Folder: unikorn_login/remote_trans/data/nanoindenter/0828-1/data/Data_2025-08-06,11h17m57s (part 21)

File: 2025-07-22_16-23-58_1_40.txt
2025-07-22, 16:23:58, 1
Index	Phase	Displacement	Time	Pos X	Pos Y	Pos Z	Rot A	Rot B	Piezo Z	Force A	Force B	Gripper	Voltage A	Voltage B	Temperature	Amplitude force	Amplitude pos	Stiffness	Phase shift	Phase excitation	Force A raw	Displacement raw	HMax	HMax raw	Real Force	Real Stiffness	Contact Depth	Area	Hardness	Reduced Mod.
[#]	[#]	[um]	[s]	[um]	[um]	[um]	[m°]	[m°]	[um]	[uN]	[uN]	[V]	[V]	[V]	[°C]	[uN]	[um]	[N/m]	[°]	[°]	[uN]	[um]	[um]	[um]	[uN]	[N/m]	[um]	[um^2]	[MPa]	[MPa]
40	1.000000	0.002088	7.36543e+06	-40639.1	955.82	-29789.9	0.000000	0.000000	6.002815	-0.011399	NaN	0.000000	0.001569	0.001701	28.0949	0.022688	0.000896	25.3213	-135.526	-160.257	-0.065618	0.000813	-1.072528	-1.073803	-0.011399	25.3213	-1.072190	-2.121361E+14	5.373241E-17	NaN
40	1.000000	0.042055	7.36543e+06	-40639.1	955.819	-29789.9	0.000000	0.000000	6.042782	0.003517	NaN	0.000000	0.001578	0.001760	28.0956	0.108294	0.001914	56.5752	-143.564	-167.104	0.004351	0.040705	-1.032562	-1.033911	0.003517	56.5752	-1.032608	-6.231081E+13	-5.644348E-17	NaN
40	1.000000	0.082026	7.36543e+06	-40639.1	955.818	-29789.9	0.000000	0.000000	6.082750	-0.064610	NaN	0.000000	0.001573	0.001717	28.0939	0.025288	0.001857	13.6214	44.1348	-167.307	-0.026493	0.080740	-0.992591	-0.993876	-0.064610	13.6214	-0.989033	-1.614696E+13	4.001390E-15	NaN
40	1.000000	0.122054	7.36543e+06	-40639.1	955.818	-29789.9	0.000000	0.000000	6.122781	-0.010553	NaN	0.000000	0.001557	0.001710	28.0953	0.027198	0.001998	13.6156	-14.1803	-164.065	0.019162	0.120746	-0.952562	-0.953870	-0.010553	13.6156	-0.951981	-5.113829E+12	2.063613E-15	NaN
40	1.000000	0.162052	7.36543e+06	-40639.1	955.818	-29789.9	0.000000	0.000000	6.162777	-0.056929	NaN	0.000000	0.001581	0.001758	28.0929	0.005645	0.001850	3.051118	12.4709	-167.774	0.062852	0.160746	-0.912565	-0.913870	-0.056929	3.051118	-0.898571	-9.722031E+11	5.855633E-14	NaN
40	1.000000	0.202087	7.36543e+06	-40639.1	955.817	-29789.9	0.000000	0.000000	6.202818	0.073934	NaN	0.000000	0.001574	0.001741	28.0944	0.063552	0.002057	30.8903	-20.3385	-165.156	0.095053	0.200789	-0.872529	-0.873827	0.073934	30.8903	-0.874324	-4.570250E+11	-1.617724E-13	NaN
40	1.000000	0.242107	7.36543e+06	-40639.1	955.818	-29789.9	0.000000	0.000000	6.242833	-0.024727	NaN	0.000000	0.001564	0.001754	28.093	0.081733	0.002066	39.5575	-175.442	-165.118	-0.036702	0.240764	-0.832509	-0.833853	-0.024727	39.5575	-0.832041	-1.223042E+11	2.021769E-13	NaN
40	1.000000	0.282122	7.36543e+06	-40639.1	955.818	-29789.9	0.000000	0.000000	6.282849	0.015765	NaN	0.000000	0.001620	0.001775	28.0955	0.051806	0.001920	26.9821	-95.1184	-168.006	0.054378	0.280811	-0.792495	-0.793806	0.015765	26.9821	-0.792933	-3.605081E+10	-4.373068E-13	NaN
40	1.000000	0.322140	7.36543e+06	-40639.1	955.818	-29789.9	0.000000	0.000000	6.322868	0.004247	NaN	0.000000	0.001720	0.001739	28.0942	0.086350	0.001922	44.9368	95.5737	-166.265	-0.008354	0.320845	-0.752476	-0.753772	0.004247	44.9368	-0.752547	-1.018322E+10	-4.170383E-13	NaN
40	1.000000	0.362147	7.36543e+06	-40639.1	955.819	-29789.9	0.000000	0.000000	6.362875	0.036651	NaN	0.000000	0.001684	0.001765	28.0939	0.038450	0.001949	19.7317	13.9272	-168.345	0.026395	0.360851	-0.712470	-0.713765	0.036651	19.7317	-0.713863	-3.025224E+9	-1.211511E-11	NaN
40	1.000000	0.402176	7.36543e+06	-40639.1	955.819	-29789.9	0.000000	0.000000	6.402900	-0.083713	NaN	0.000000	0.001717	0.001747	28.0933	0.030192	0.001956	15.4332	124.319	-165.703	-0.049264	0.400906	-0.672440	-0.673710	-0.083713	15.4332	-0.668372	-7.229414E+8	1.157947E-10	NaN
40	1.000000	0.442194	7.36543e+06	-40639.1	955.819	-29789.9	0.000000	0.000000	6.442918	-0.061627	NaN	0.000000	0.001653	0.001749	28.0928	0.097209	0.002174	44.7233	-169.77	-165.988	-0.057433	0.440862	-0.632423	-0.633754	-0.061627	44.7233	-0.631389	-2.249577E+8	2.739499E-10	NaN
40	1.000000	0.482206	7.36543e+06	-40639.1	955.818	-29789.9	0.000000	0.000000	6.482933	0.000346	NaN	0.000000	0.001680	0.001728	28.0922	0.078412	0.002032	38.5907	150.828	-166.63	-0.014990	0.480932	-0.592410	-0.593684	0.000346	38.5907	-0.592417	-6.546155E+7	-5.277967E-12	NaN
40	1.000000	0.522238	7.36543e+06	-40639.1	955.819	-29789.9	0.000000	0.000000	6.522966	0.000656	NaN	0.000000	0.001706	0.001726	28.0928	0.080453	0.001933	41.6168	36.0746	-166.37	-0.053207	0.520911	-0.552378	-0.553706	0.000656	41.6168	-0.552390	-1.832530E+7	-3.578066E-11	NaN
40	1.000000	0.562209	7.36543e+06	-40639.1	955.818	-29789.9	0.000000	0.000000	6.562932	-0.113110	NaN	0.000000	0.001717	0.001741	28.0924	0.118768	0.002026	58.6302	118.472	-167.178	-0.095889	0.560912	-0.512407	-0.513704	-0.113110	58.6302	-0.510960	-4.87292e+06	2.321193E-8	NaN
40	1.000000	0.602257	7.36543e+06	-40639.1	955.817	-29789.9	0.000000	0.000000	6.602980	-0.097976	NaN	0.000000	0.001664	0.001751	28.0938	0.109695	0.001989	55.1392	-121.722	-164.419	-0.101677	0.600969	-0.472359	-0.473647	-0.097976	55.1392	-0.471026	-1.34835e+06	7.266375E-8	NaN
40	1.000000	0.642275	7.36543e+06	-40639.1	955.817	-29789.9	0.000000	0.000000	6.643001	-0.029990	NaN	0.000000	0.001624	0.001758	28.0922	0.078538	0.002059	38.1374	33.6827	-167.066	-0.098744	0.640988	-0.432341	-0.433628	-0.029990	38.1374	-0.431752	-377430	7.945950E-8	NaN
40	1.000000	0.682288	7.36543e+06	-40639.1	955.818	-29789.9	0.000000	0.000000	6.683015	-0.006105	NaN	0.000000	0.001603	0.001750	28.0911	0.097886	0.001902	51.4579	6.652355	-166.222	0.033816	0.680982	-0.392329	-0.393634	-0.006105	51.4579	-0.392240	-103561	5.894961E-8	NaN
40	1.000000	0.722301	7.36543e+06	-40639.1	955.818	-29789.9	0.000000	0.000000	6.723027	-0.040061	NaN	0.000000	0.001598	0.001744	28.0905	0.102039	0.001932	52.8232	-155.026	-166.544	-0.039323	0.721040	-0.352315	-0.353576	-0.040061	52.8232	-0.351746	-27060.7	1.480401E-6	NaN
40	1.000000	0.762321	7.36543e+06	-40639.1	955.818	-29789.9	0.000000	0.000000	6.763046	-0.044541	NaN	0.000000	0.001626	0.001791	28.0912	0.053439	0.001943	27.5024	-47.8917	-167.003	0.061740	0.760993	-0.312296	-0.313623	-0.044541	27.5024	-0.311081	-6871.49	6.481962E-6	NaN
40	1.000000	0.802367	7.36543e+06	-40639.1	955.818	-29789.9	0.000000	0.000000	6.803093	-0.039227	NaN	0.000000	0.001624	0.001755	28.0892	0.102128	0.002101	48.6089	57.209	-168.8	-0.103245	0.801040	-0.272249	-0.273577	-0.039227	48.6089	-0.271644	-1764.07	2.223678E-5	NaN
40	1.000000	0.842336	7.36543e+06	-40639.1	955.819	-29789.9	0.000000	0.000000	6.843063	-0.007632	NaN	0.000000	0.001602	0.001711	28.0927	0.024100	0.001973	12.2141	-149.323	-168.208	0.047176	0.841054	-0.232280	-0.233562	-0.007632	12.2141	-0.231812	-427.658	1.784698E-5	NaN
40	1.000000	0.882364	7.36544e+06	-40639.1	955.818	-29789.9	0.000000	0.000000	6.883089	-0.048610	NaN	0.000000	0.001642	0.001718	28.0913	0.015745	0.001947	8.088493	149.102	-165.55	-0.105859	0.881052	-0.192252	-0.193565	-0.048610	8.088493	-0.187745	-82.4677	0.000589	NaN
40	1.000000	0.922396	7.36544e+06	-40639.1	955.818	-29789.9	0.000000	0.000000	6.923122	-0.037619	NaN	0.000000	0.001633	0.001723	28.0918	0.034218	0.001939	17.6465	104.04	-167.554	-0.018122	0.921058	-0.152220	-0.153558	-0.037619	17.6465	-0.150621	-18.5918	0.002023	NaN
40	1.000000	0.962436	7.36544e+06	-40639.1	955.82	-29789.9	0.000000	0.000000	6.963165	0.020725	NaN	0.000000	0.001661	0.001731	28.0896	0.147517	0.002024	72.8813	-16.5192	-169.164	0.007039	0.961095	-0.112180	-0.113521	0.020725	72.8813	-0.112393	-3.373299	-0.006144	NaN
40	1.000000	1.002403	7.36544e+06	-40639.1	955.819	-29789.9	0.000000	0.000000	7.003129	-0.046723	NaN	0.000000	0.001603	0.001775	28.0907	0.084497	0.001859	45.4587	114.432	-169.209	-0.056785	1.001132	-0.072213	-0.073485	-0.046723	45.4587	-0.071442	-0.372673	0.125374	NaN
40	1.000000	1.042426	7.36544e+06	-40639.1	955.818	-29789.9	0.000000	0.000000	7.043150	-0.080666	NaN	0.000000	0.001668	0.001722	28.0889	0.021815	0.002074	10.5162	93.3585	-168.099	-0.044034	1.041130	-0.032190	-0.033486	-0.080666	10.5162	-0.026437	-0.018408	4.382249	NaN
40	2.000000	1.081904	7.36544e+06	-40639.1	955.819	-29789.9	0.000000	0.000000	7.083025	9.585120	NaN	0.000000	0.001598	0.001730	28.0899	3.081005	0.001921	1603.89	9.210315	-169.24	9.283018	1.081052	0.007287	0.006435	9.585120	1603.89	0.002805	0.002217	4324.23	31124.5
40	2.000000	1.091985	7.36544e+06	-40639.1	955.818	-29789.9	0.000000	0.000000	7.093364	15.8498	NaN	0.000000	0.001647	0.001724	28.0908	4.440883	0.001971	2253.19	4.966953	-168.212	15.7019	1.091712	0.017369	0.017095	15.8498	2253.19	0.012093	0.011601	1366.19	19112.4
40	2.000000	1.101959	7.36544e+06	-40639.1	955.819	-29789.9	0.000000	0.000000	7.103197	12.4133	NaN	0.000000	0.001619	0.001767	28.0903	11.4404	0.001889	6056.89	8.939814	-175.585	11.9051	1.101601	0.027343	0.026985	12.4133	6056.89	0.025806	0.032498	381.97	30696.8
40	2.000000	1.111905	7.36544e+06	-40639.1	955.818	-29789.9	0.000000	0.000000	7.113983	32.8568	NaN	0.000000	0.001679	0.001732	28.0897	21.1988	0.001793	11820.6	7.374369	-178.351	32.9171	1.111657	0.037289	0.037041	32.8568	11820.6	0.035204	0.052222	629.178	47259.3
40	2.000000	1.121897	7.36544e+06	-40639.1	955.819	-29789.9	0.000000	0.000000	7.125351	66.3555	NaN	0.000000	0.001632	0.001789	28.0902	32.7411	0.001734	18876.9	2.725705	-178.776	65.9349	1.121564	0.047281	0.046947	66.3555	18876.9	0.044644	0.076581	866.473	62322.4
40	2.000000	1.131916	7.36544e+06	-40639.1	955.819	-29789.9	0.000000	0.000000	7.137633	121.418	NaN	0.000000	0.001639	0.001745	28.0882	44.7159	0.001818	24598.8	5.754214	175.837	120.2	1.131552	0.057300	0.056936	121.418	24598.8	0.053598	0.103858	1169.08	69737.7
40	2.000000	1.141840	7.36544e+06	-40639.1	955.818	-29789.9	0.000000	0.000000	7.150242	186.737	NaN	0.000000	0.001639	0.001702	28.0894	53.7854	0.001771	30370.1	4.874965	174.076	184.899	1.141624	0.067224	0.067008	186.737	30370.1	0.062612	0.135343	1379.73	75422.7
40	2.000000	1.151885	7.36544e+06	-40639.1	955.818	-29789.9	0.000000	0.000000	7.163088	254.902	NaN	0.000000	0.001596	0.001750	28.0891	64.0353	0.001836	34882.7	4.724914	173.019	253.467	1.151559	0.077269	0.076943	254.902	34882.7	0.071788	0.171438	1486.85	76971.6
40	2.000000	1.161829	7.36544e+06	-40639.1	955.818	-29789.9	0.000000	0.000000	7.176509	339.519	NaN	0.000000	0.001610	0.001742	28.0905	73.8735	0.001840	40138.8	5.648658	170.774	335.721	1.161534	0.087212	0.086918	339.519	40138.8	0.080868	0.211087	1608.43	79819
40	2.000000	1.171721	7.36544e+06	-40639.1	955.819	-29789.9	0.000000	0.000000	7.189907	424.83	NaN	0.000000	0.001654	0.001787	28.0891	80.0775	0.001747	45849.7	3.088291	173.378	417.25	1.171399	0.097105	0.096783	424.83	45849.7	0.090155	0.255607	1662.04	82855.8
40	2.000000	1.180375	7.36544e+06	-40639.1	955.82	-29789.9	0.000000	0.000000	7.201885	505.727	NaN	0.000000	0.001619	0.001722	28.1304	87.0762	0.001753	49666.3	0.529248	-4.651292	503.476	1.180081	0.105758	0.105465	505.727	49666.3	0.098121	0.296948	1703.08	83271.2

File: 2025-07-22_16-23-58_1_41.txt
2025-07-22, 16:23:58, 1
Index	Phase	Displacement	Time	Pos X	Pos Y	Pos Z	Rot A	Rot B	Piezo Z	Force A	Force B	Gripper	Voltage A	Voltage B	Temperature	Amplitude force	Amplitude pos	Stiffness	Phase shift	Phase excitation	Force A raw	Displacement raw	HMax	HMax raw	Real Force	Real Stiffness	Contact Depth	Area	Hardness	Reduced Mod.
[#]	[#]	[um]	[s]	[um]	[um]	[um]	[m°]	[m°]	[um]	[uN]	[uN]	[V]	[V]	[V]	[°C]	[uN]	[um]	[N/m]	[°]	[°]	[uN]	[um]	[um]	[um]	[uN]	[N/m]	[um]	[um^2]	[MPa]	[MPa]
41	1.000000	0.002492	7.36544e+06	-40689.1	955.819	-29789.1	0.000000	0.000000	6.002806	-0.029685	NaN	0.000000	0.001608	0.001731	28.0882	0.039350	0.001012	38.8725	107.015	-162.537	0.054940	0.001246	-1.721036	-1.722282	-0.029685	38.8725	-1.720463	-9.511372E+22	3.120965E-25	NaN
41	1.000000	0.060458	7.36544e+06	-40689.1	955.819	-29789.1	0.000000	0.000000	6.060777	0.098666	NaN	0.000000	0.001649	0.001682	28.1244	0.034434	0.002070	16.6374	-89.3779	18.0251	0.049125	0.059128	-1.663070	-1.664400	0.098666	16.6374	-1.667518	-1.883005E+22	-5.239830E-24	NaN
41	1.000000	0.118455	7.36544e+06	-40689.1	955.818	-29789.1	0.000000	0.000000	6.118767	-0.059146	NaN	0.000000	0.001633	0.001629	28.1111	0.075245	0.002097	35.8884	-139.437	-165.545	-0.025423	0.117161	-1.605073	-1.606366	-0.059146	35.8884	-1.603837	-2.680765E+21	2.206317E-23	NaN
41	1.000000	0.176510	7.36544e+06	-40689.1	955.819	-29789.1	0.000000	0.000000	6.176820	-0.099622	NaN	0.000000	0.001645	0.001586	28.0796	0.088889	0.001961	45.3228	89.5048	18.029	-0.025296	0.175192	-1.547018	-1.548335	-0.099622	45.3228	-1.545370	-4.470619E+20	2.228369E-22	NaN
41	1.000000	0.234522	7.36544e+06	-40689.1	955.818	-29789.1	0.000000	0.000000	6.234835	-0.033363	NaN	0.000000	0.001623	0.001613	28.0853	0.037994	0.001960	19.3822	18.1119	-164.566	-0.017734	0.233208	-1.489006	-1.490320	-0.033363	19.3822	-1.487715	-7.632828E+19	4.371027E-22	NaN
41	1.000000	0.292550	7.36544e+06	-40689.1	955.819	-29789.1	0.000000	0.000000	6.292866	0.032205	NaN	0.000000	0.001653	0.001599	28.1247	0.091111	0.002034	44.794	-108.912	15.3158	0.001030	0.291177	-1.430978	-1.432351	0.032205	44.794	-1.431517	-1.360697E+19	-2.366809E-21	NaN
41	1.000000	0.350585	7.36544e+06	-40689.1	955.818	-29789.1	0.000000	0.000000	6.350899	-0.010680	NaN	0.000000	0.001698	0.001605	28.1123	0.118027	0.002054	57.4707	93.2222	-165.685	0.082010	0.349230	-1.372943	-1.374298	-0.010680	57.4707	-1.372804	-2.241866E+18	4.763675E-21	NaN
41	1.000000	0.408586	7.36544e+06	-40689.1	955.818	-29789.1	0.000000	0.000000	6.408900	-0.028910	NaN	0.000000	0.001648	0.001615	28.0804	0.006121	0.002056	2.976718	107.674	12.9079	-0.051765	0.407256	-1.314941	-1.316272	-0.028910	2.976718	-1.307657	-3.024910E+17	9.557407E-20	NaN
41	1.000000	0.466644	7.36544e+06	-40689.1	955.818	-29789.1	0.000000	0.000000	6.466962	0.082740	NaN	0.000000	0.001637	0.001635	28.0839	0.115904	0.001929	60.0899	21.6973	-162.428	0.008313	0.465249	-1.256884	-1.258278	0.082740	60.0899	-1.257917	-6.543523E+16	-1.264450E-18	NaN
41	1.000000	0.524661	7.36544e+06	-40689.1	955.819	-29789.1	0.000000	0.000000	6.524974	-0.040105	NaN	0.000000	0.001641	0.001670	28.1225	0.146926	0.001938	75.8266	62.488	14.0711	0.075566	0.523313	-1.198867	-1.200214	-0.040105	75.8266	-1.198470	-1.047770E+16	3.827666E-18	NaN
41	1.000000	0.582690	7.36544e+06	-40689.1	955.817	-29789.1	0.000000	0.000000	6.583005	-0.009470	NaN	0.000000	0.001701	0.001700	28.1142	0.127896	0.001972	64.856	-19.1421	-165.823	-0.014451	0.581339	-1.140837	-1.142189	-0.009470	64.856	-1.140728	-1.763995E+15	5.368776E-18	NaN
41	1.000000	0.640714	7.36544e+06	-40689.1	955.818	-29789.1	0.000000	0.000000	6.641026	-0.066683	NaN	0.000000	0.001678	0.001687	28.0802	0.026394	0.002033	12.9823	51.9008	14.8356	-0.137245	0.639360	-1.082814	-1.084168	-0.066683	12.9823	-1.078961	-2.615575E+14	2.549448E-16	NaN
41	1.000000	0.698710	7.36544e+06	-40689.1	955.818	-29789.1	0.000000	0.000000	6.699024	-0.007344	NaN	0.000000	0.001703	0.001614	28.0824	0.086532	0.001972	43.8777	-7.241796	-163.958	0.029025	0.697420	-1.024818	-1.026108	-0.007344	43.8777	-1.024692	-4.876229E+13	1.506156E-16	NaN
41	1.000000	0.756761	7.36544e+06	-40689.1	955.818	-29789.1	0.000000	0.000000	6.757073	-0.046800	NaN	0.000000	0.001667	0.001685	28.1206	0.107016	0.002011	53.2042	13.8568	16.8343	-0.022323	0.755372	-0.966767	-0.968156	-0.046800	53.2042	-0.966108	-7.928681E+12	5.902680E-15	NaN
41	1.000000	0.814766	7.36544e+06	-40689.1	955.818	-29789.1	0.000000	0.000000	6.815079	-0.035182	NaN	0.000000	0.001706	0.001701	28.1163	0.088959	0.001906	46.6766	174.891	-164.167	-0.017156	0.813393	-0.908762	-0.910135	-0.035182	46.6766	-0.908197	-1.311616E+12	2.682341E-14	NaN
41	1.000000	0.872779	7.36544e+06	-40689.1	955.817	-29789.1	0.000000	0.000000	6.873097	0.072071	NaN	0.000000	0.001612	0.001672	28.0823	0.092034	0.002044	45.0243	-103.541	16.3923	0.053228	0.871429	-0.850749	-0.852099	0.072071	45.0243	-0.851949	-2.275805E+11	-3.166853E-13	NaN
41	1.000000	0.930793	7.36545e+06	-40689.1	955.818	-29789.1	0.000000	0.000000	6.931109	0.030548	NaN	0.000000	0.001651	0.001738	28.0815	0.048264	0.001937	24.9152	-61.4711	-167.091	-0.011301	0.929489	-0.792735	-0.794038	0.030548	24.9152	-0.793655	-3.687347E+10	-8.284616E-13	NaN
41	1.000000	0.988854	7.36545e+06	-40689.1	955.818	-29789.1	0.000000	0.000000	6.989162	-0.148655	NaN	0.000000	0.001659	0.001722	28.1206	0.112663	0.001961	57.4449	-84.6181	14.8429	-0.063376	0.987544	-0.734674	-0.735984	-0.148655	57.4449	-0.732733	-5.470895E+9	2.717197E-11	NaN
41	1.000000	1.046858	7.36545e+06	-40689.1	955.819	-29789.1	0.000000	0.000000	7.047174	0.030785	NaN	0.000000	0.001654	0.001732	28.1178	0.060450	0.001890	31.985	96.3991	-161.897	-0.050779	1.045575	-0.676670	-0.677953	0.030785	31.985	-0.677392	-9.605779E+8	-3.204886E-11	NaN
41	1.000000	1.104902	7.36545e+06	-40689.1	955.819	-29789.1	0.000000	0.000000	7.105218	0.029661	NaN	0.000000	0.001602	0.001737	28.0826	0.024232	0.002140	11.3233	71.2258	14.4462	-0.037249	1.103519	-0.618625	-0.620008	0.029661	11.3233	-0.620590	-1.598615E+8	-1.855420E-10	NaN
41	1.000000	1.162903	7.36545e+06	-40689.1	955.819	-29789	0.000000	0.000000	7.163218	-0.011834	NaN	0.000000	0.001585	0.001723	28.0824	0.078324	0.002026	38.6672	18.2633	-168.1	-0.056267	1.161606	-0.560624	-0.561921	-0.011834	38.6672	-0.560395	-2.365048E+7	5.003580E-10	NaN
41	1.000000	1.220935	7.36545e+06	-40689.1	955.821	-29789	0.000000	0.000000	7.221247	-0.059388	NaN	0.000000	0.001570	0.001714	28.1199	0.109692	0.002129	51.5136	42.5249	17.1617	-0.001776	1.219562	-0.502593	-0.503966	-0.059388	51.5136	-0.501728	-3.6235e+06	1.638974E-8	NaN
41	1.000000	1.278948	7.36545e+06	-40689.1	955.821	-29789	0.000000	0.000000	7.279262	-0.020643	NaN	0.000000	0.001600	0.001695	28.1178	0.049394	0.001940	25.467	121.515	-164.735	0.033313	1.277667	-0.444580	-0.445861	-0.020643	25.467	-0.443972	-561563	3.675958E-8	NaN
41	1.000000	1.336987	7.36545e+06	-40689.1	955.821	-29789	0.000000	0.000000	7.337301	-0.011401	NaN	0.000000	0.001608	0.001696	28.0811	0.073123	0.002028	36.0596	-56.7913	14.3389	-0.002441	1.335610	-0.386541	-0.387918	-0.011401	36.0596	-0.386304	-85166.2	1.338717E-7	NaN
41	1.000000	1.395015	7.36545e+06	-40689.1	955.82	-29789	0.000000	0.000000	7.395330	-0.005462	NaN	0.000000	0.001622	0.001668	28.0825	0.069624	0.002088	33.3427	-111.885	-163.021	-0.038346	1.393674	-0.328513	-0.329853	-0.005462	33.3427	-0.328390	-12355.5	4.420738E-7	NaN
41	1.000000	1.453018	7.36545e+06	-40689.1	955.821	-29789	0.000000	0.000000	7.453332	-0.026871	NaN	0.000000	0.001678	0.001711	28.1191	0.069768	0.002067	33.7611	-142.59	16.1222	-0.085321	1.451707	-0.270509	-0.271820	-0.026871	33.7611	-0.269913	-1660.41	1.618341E-5	NaN
41	1.000000	1.511058	7.36545e+06	-40689.1	955.821	-29789	0.000000	0.000000	7.511372	-0.021309	NaN	0.000000	0.001632	0.001680	28.1193	0.039889	0.002030	19.6496	-71.0103	-163.125	-0.085157	1.509711	-0.212470	-0.213817	-0.021309	19.6496	-0.211656	-203.992	0.000104	NaN
41	1.000000	1.569096	7.36545e+06	-40689.1	955.821	-29789	0.000000	0.000000	7.569409	-0.053555	NaN	0.000000	0.001584	0.001730	28.0822	0.087628	0.001983	44.1956	96.1809	13.3824	-0.078512	1.567713	-0.154432	-0.155815	-0.053555	44.1956	-0.153523	-20.9869	0.002552	NaN
41	1.000000	1.627126	7.36545e+06	-40689.1	955.82	-29789	0.000000	0.000000	7.627439	-0.046086	NaN	0.000000	0.001596	0.001770	28.0817	0.043504	0.001997	21.7841	-85.2345	-162.883	-0.088109	1.625882	-0.096402	-0.097646	-0.046086	21.7841	-0.094815	-1.397018	0.032989	NaN
41	1.000000	1.685132	7.36545e+06	-40689.1	955.822	-29789	0.000000	0.000000	7.685447	0.014763	NaN	0.000000	0.001571	0.001695	28.1197	0.049223	0.002116	23.2648	169.908	16.7267	0.018108	1.683804	-0.038396	-0.039724	0.014763	23.2648	-0.038872	-0.041799	-0.353178	NaN
41	2.000000	1.737771	7.36545e+06	-40689.1	955.823	-29789	0.000000	0.000000	7.738469	9.321935	NaN	0.000000	0.001592	0.001758	28.1196	9.797628	0.001548	6327.42	4.866141	-168.642	9.105079	1.737507	0.014243	0.013979	9.321935	6327.42	0.013138	0.012882	723.633	50933.8
41	2.000000	1.752160	7.36545e+06	-40689.1	955.822	-29789	0.000000	0.000000	7.753832	33.0097	NaN	0.000000	0.001577	0.001785	28.0818	24.6338	0.001823	13516.5	5.431995	3.372024	30.9399	1.751945	0.028632	0.028417	33.0097	13516.5	0.026801	0.034373	960.327	66607.7
41	2.000000	1.766708	7.36545e+06	-40689.1	955.822	-29789	0.000000	0.000000	7.769819	68.0449	NaN	0.000000	0.001644	0.001768	28.0813	37.0902	0.001811	20476.3	5.008744	-179.242	69.9726	1.766365	0.043181	0.042837	68.0449	20476.3	0.040688	0.065819	1033.82	72920.5
41	2.000000	1.781168	7.36545e+06	-40689.1	955.822	-29789	0.000000	0.000000	7.786274	116.597	NaN	0.000000	0.001635	0.001767	28.1182	49.1831	0.001793	27435.8	3.928821	-1.978329	116.402	1.780806	0.057640	0.057279	116.597	27435.8	0.054453	0.106671	1093.05	76748
41	2.000000	1.795737	7.36545e+06	-40689.1	955.823	-29789	0.000000	0.000000	7.803275	175.766	NaN	0.000000	0.001611	0.001738	28.1215	62.5443	0.001808	34596.2	3.896076	176.364	181.015	1.795473	0.072210	0.071945	175.766	34596.2	0.068399	0.157637	1115	79610.8
41	2.000000	1.810133	7.36545e+06	-40689.1	955.822	-29789	0.000000	0.000000	7.821129	259.917	NaN	0.000000	0.001593	0.001756	28.0815	73.8104	0.001809	40795.8	5.057761	-5.882898	258.09	1.809692	0.086605	0.086164	259.917	40795.8	0.081827	0.215498	1206.12	80291.1
41	2.000000	1.824586	7.36545e+06	-40689.1	955.823	-29789	0.000000	0.000000	7.839782	362.097	NaN	0.000000	0.001570	0.001765	28.0815	87.0116	0.001796	48451.9	7.132508	171.013	358.966	1.824236	0.101058	0.100708	362.097	48451.9	0.095453	0.282780	1280.49	83245.3
41	2.000000	1.834507	7.36545e+06	-40689.1	955.823	-29789	0.000000	0.000000	7.853018	442.773	NaN	0.000000	0.001593	0.001696	28.0794	96.7093	0.001765	54792	3.870853	173.509	439.127	1.834223	0.110979	0.110695	442.773	54792	0.104918	0.334507	1323.66	86554.1