Folder: unikorn_login/remote_trans/data/nanoindenter/0828-1/data/Data_2025-08-06,11h17m57s (part 164)

File: 2025-07-22_16-23-58_1_345.txt
2025-07-22, 16:23:58, 1
Index	Phase	Displacement	Time	Pos X	Pos Y	Pos Z	Rot A	Rot B	Piezo Z	Force A	Force B	Gripper	Voltage A	Voltage B	Temperature	Amplitude force	Amplitude pos	Stiffness	Phase shift	Phase excitation	Force A raw	Displacement raw	HMax	HMax raw	Real Force	Real Stiffness	Contact Depth	Area	Hardness	Reduced Mod.
[#]	[#]	[um]	[s]	[um]	[um]	[um]	[m°]	[m°]	[um]	[uN]	[uN]	[V]	[V]	[V]	[°C]	[uN]	[um]	[N/m]	[°]	[°]	[uN]	[um]	[um]	[um]	[uN]	[N/m]	[um]	[um^2]	[MPa]	[MPa]
345	1.000000	0.002789	7.36844e+06	-55889.1	955.818	-29740.9	0.000000	0.000000	6.002793	0.020136	NaN	0.000000	0.001542	0.001726	28.0783	0.036616	0.001036	35.3325	-149.526	-165.285	-0.034017	0.001530	-0.957881	-0.959140	0.020136	35.3325	-0.958308	-6.223896E+12	-3.235333E-15	NaN
345	1.000000	0.040767	7.36844e+06	-55889.1	955.819	-29740.9	0.000000	0.000000	6.040769	-0.018830	NaN	0.000000	0.001582	0.001736	28.0784	0.108619	0.001957	55.4953	135.072	13.3556	0.004114	0.039395	-0.919904	-0.921275	-0.018830	55.4953	-0.919649	-1.872698E+12	1.005484E-14	NaN
345	1.000000	0.078756	7.36844e+06	-55889.1	955.819	-29740.9	0.000000	0.000000	6.078760	0.022196	NaN	0.000000	0.001590	0.001764	28.0794	0.075567	0.002078	36.3644	107.392	-168.923	-0.108736	0.077475	-0.881914	-0.883195	0.022196	36.3644	-0.882372	-5.871972E+11	-3.779927E-14	NaN
345	1.000000	0.116788	7.36844e+06	-55889.1	955.818	-29740.9	0.000000	0.000000	6.116792	0.057433	NaN	0.000000	0.001620	0.001739	28.0795	0.113045	0.001990	56.817	114.997	15.6941	0.061128	0.115402	-0.843883	-0.845268	0.057433	56.817	-0.844641	-1.812011E+11	-3.169548E-13	NaN
345	1.000000	0.154817	7.36844e+06	-55889.1	955.818	-29740.9	0.000000	0.000000	6.154820	0.029936	NaN	0.000000	0.001564	0.001697	28.0794	0.026114	0.001857	14.0604	167.352	-164.483	0.036194	0.153452	-0.805854	-0.807218	0.029936	14.0604	-0.807451	-5.675188E+10	-5.274931E-13	NaN
345	1.000000	0.192805	7.36844e+06	-55889.1	955.819	-29740.9	0.000000	0.000000	6.192806	-0.036726	NaN	0.000000	0.001590	0.001674	28.0798	0.061555	0.001997	30.8189	171.126	13.6952	-0.000335	0.191440	-0.767866	-0.769230	-0.036726	30.8189	-0.766972	-1.600036E+10	2.295325E-12	NaN
345	1.000000	0.230818	7.36844e+06	-55889.1	955.818	-29740.9	0.000000	0.000000	6.230820	-0.008271	NaN	0.000000	0.001553	0.001733	28.078	0.087241	0.001828	47.7122	122.011	-164.435	-0.075418	0.229442	-0.729853	-0.731228	-0.008271	47.7122	-0.729723	-4.977685E+9	1.661667E-12	NaN
345	1.000000	0.268860	7.36844e+06	-55889.1	955.818	-29740.9	0.000000	0.000000	6.268860	-0.046474	NaN	0.000000	0.001553	0.001722	28.0782	0.058307	0.001988	29.3347	121.417	16.8694	-0.086496	0.267432	-0.691811	-0.693238	-0.046474	29.3347	-0.690622	-1.456882E+9	3.189980E-11	NaN
345	1.000000	0.306875	7.36844e+06	-55889.1	955.819	-29740.9	0.000000	0.000000	6.306877	-0.026588	NaN	0.000000	0.001575	0.001722	28.0781	0.121008	0.002076	58.2762	161.099	-165.819	0.053229	0.305553	-0.653795	-0.655118	-0.026588	58.2762	-0.653453	-4.516109E+8	5.887285E-11	NaN
345	1.000000	0.344871	7.36844e+06	-55889.1	955.818	-29740.9	0.000000	0.000000	6.344876	0.047101	NaN	0.000000	0.001549	0.001716	28.078	0.153331	0.002048	74.8548	160.654	14.9144	0.097139	0.343518	-0.615799	-0.617153	0.047101	74.8548	-0.616271	-1.394337E+8	-3.378005E-10	NaN
345	1.000000	0.382875	7.36844e+06	-55889.1	955.818	-29740.9	0.000000	0.000000	6.382879	0.039276	NaN	0.000000	0.001568	0.001728	28.08	0.043584	0.001884	23.1333	168.297	-166.939	-0.013030	0.381624	-0.577795	-0.579047	0.039276	23.1333	-0.579068	-4.284191E+7	-9.167732E-10	NaN
345	1.000000	0.420956	7.36844e+06	-55889.1	955.818	-29740.9	0.000000	0.000000	6.420959	0.020801	NaN	0.000000	0.001601	0.001760	28.0794	0.059165	0.002002	29.546	34.277	14.0459	0.045677	0.419530	-0.539714	-0.541140	0.020801	29.546	-0.540242	-1.243710E+7	-1.672490E-9	NaN
345	1.000000	0.458921	7.36844e+06	-55889.1	955.818	-29740.9	0.000000	0.000000	6.458922	-0.031707	NaN	0.000000	0.001561	0.001727	28.0796	0.102181	0.002023	50.5088	-114.464	-166.742	0.018518	0.457619	-0.501749	-0.503051	-0.031707	50.5088	-0.501279	-3.57153e+06	8.877734E-9	NaN
345	1.000000	0.496937	7.36844e+06	-55889.1	955.818	-29740.9	0.000000	0.000000	6.496938	-0.024375	NaN	0.000000	0.001554	0.001760	28.0785	0.016082	0.001954	8.231213	100.892	13.2866	0.054076	0.495603	-0.463734	-0.465067	-0.024375	8.231213	-0.461513	-991449	2.458553E-8	NaN
345	1.000000	0.534943	7.36844e+06	-55889.1	955.82	-29740.9	0.000000	0.000000	6.534945	-0.007753	NaN	0.000000	0.001529	0.001729	28.0784	0.016621	0.002189	7.593957	91.5404	-169.098	-0.006295	0.533689	-0.425728	-0.426981	-0.007753	7.593957	-0.424962	-302515	2.562730E-8	NaN
345	1.000000	0.572959	7.36844e+06	-55889.1	955.819	-29740.9	0.000000	0.000000	6.572961	-0.004829	NaN	0.000000	0.001572	0.001785	28.0783	0.137940	0.002089	66.0258	24.1973	13.9944	-0.007594	0.571580	-0.387712	-0.389090	-0.004829	66.0258	-0.387657	-89050.1	5.422930E-8	NaN
345	1.000000	0.610968	7.36844e+06	-55889.1	955.819	-29740.9	0.000000	0.000000	6.610968	-0.074139	NaN	0.000000	0.001578	0.001734	28.0782	0.069083	0.002090	33.0582	-162.86	-167.768	-0.128671	0.609705	-0.349702	-0.350965	-0.074139	33.0582	-0.348020	-23892.2	3.103064E-6	NaN
345	1.000000	0.649014	7.36844e+06	-55889.1	955.818	-29740.9	0.000000	0.000000	6.649016	-0.002030	NaN	0.000000	0.001533	0.001708	28.0796	0.092253	0.001938	47.6089	-131.325	8.207678	-0.037189	0.647677	-0.311657	-0.312993	-0.002030	47.6089	-0.311625	-6999.88	2.900141E-7	NaN
345	1.000000	0.687019	7.36844e+06	-55889.1	955.818	-29740.9	0.000000	0.000000	6.687021	-0.004213	NaN	0.000000	0.001544	0.001696	28.0794	0.103613	0.002016	51.4	-144.743	-169.039	-0.047187	0.685666	-0.273652	-0.275004	-0.004213	51.4	-0.273590	-1888.19	2.231309E-6	NaN
345	1.000000	0.725024	7.36844e+06	-55889.1	955.819	-29740.9	0.000000	0.000000	6.725023	-0.075053	NaN	0.000000	0.001598	0.001734	28.0796	0.082778	0.001945	42.5557	-146.467	15.7378	-0.017968	0.723722	-0.235646	-0.236948	-0.075053	42.5557	-0.234324	-468.41	0.000160	NaN
345	1.000000	0.763039	7.36844e+06	-55889.1	955.818	-29740.9	0.000000	0.000000	6.763040	-0.017946	NaN	0.000000	0.001609	0.001707	28.0782	0.028934	0.001975	14.6502	8.500693	-166.284	-0.034010	0.761733	-0.197632	-0.198938	-0.017946	14.6502	-0.196713	-116.29	0.000154	NaN
345	1.000000	0.801066	7.36844e+06	-55889.1	955.817	-29740.9	0.000000	0.000000	6.801064	-0.104522	NaN	0.000000	0.001631	0.001728	28.0782	0.008829	0.001996	4.422337	95.2236	12.8163	-0.041891	0.799676	-0.159605	-0.160994	-0.104522	4.422337	-0.141879	-12.8278	0.008148	NaN
345	1.000000	0.839048	7.36844e+06	-55889.1	955.818	-29740.9	0.000000	0.000000	6.839049	-0.035821	NaN	0.000000	0.001586	0.001749	28.0785	0.096801	0.001999	48.4328	-70.7789	-166.331	0.023701	0.837795	-0.121622	-0.122876	-0.035821	48.4328	-0.121067	-5.076685	0.007056	NaN
345	1.000000	0.877085	7.36844e+06	-55889.1	955.818	-29740.9	0.000000	0.000000	6.877088	-0.001310	NaN	0.000000	0.001591	0.001725	28.0783	0.062559	0.001968	31.7851	-165.181	14.7926	-0.025129	0.875720	-0.083585	-0.084951	-0.001310	31.7851	-0.083554	-0.757756	0.001728	NaN
345	1.000000	0.915110	7.36844e+06	-55889.1	955.818	-29740.9	0.000000	0.000000	6.915113	0.011178	NaN	0.000000	0.001612	0.001726	28.0796	0.023521	0.001973	11.9191	88.4455	-164.654	-0.025474	0.913729	-0.045560	-0.046941	0.011178	11.9191	-0.046264	-0.070246	-0.159134	NaN
345	1.000000	0.953088	7.36844e+06	-55889.1	955.818	-29740.9	0.000000	0.000000	6.953091	0.013588	NaN	0.000000	0.001676	0.001696	28.0795	0.082703	0.002010	41.1418	79.0112	14.6857	-0.002885	0.951750	-0.007582	-0.008920	0.013588	41.1418	-0.007830	-0.005132	-2.647776	NaN
345	2.000000	0.976718	7.36844e+06	-55889.1	955.817	-29740.9	0.000000	0.000000	6.977337	15.0101	NaN	0.000000	0.001664	0.001724	28.0797	15.3589	0.001759	8730.51	12.2144	178.471	16.857	0.976411	0.016047	0.015741	15.0101	8730.51	0.014758	0.014964	1003.11	65207.2
345	2.000000	0.986125	7.36844e+06	-55889.1	955.818	-29740.9	0.000000	0.000000	6.987671	37.5266	NaN	0.000000	0.001592	0.001676	28.0798	25.9534	0.001836	14135.5	3.462600	1.787776	35.1553	0.985777	0.025455	0.025107	37.5266	14135.5	0.023464	0.028280	1326.97	76797
345	2.000000	0.995622	7.36844e+06	-55889.1	955.818	-29740.9	0.000000	0.000000	6.998171	61.9054	NaN	0.000000	0.001609	0.001704	28.0781	34.6815	0.001726	20089.5	3.740468	179.073	61.8317	0.995276	0.034951	0.034606	61.9054	20089.5	0.032640	0.046393	1334.36	85214.5
345	2.000000	1.005071	7.36844e+06	-55889.1	955.818	-29740.9	0.000000	0.000000	7.008867	92.2032	NaN	0.000000	0.001639	0.001727	28.0782	41.9963	0.001773	23680.2	1.892612	-0.584446	89.4144	1.004685	0.044401	0.044014	92.2032	23680.2	0.041480	0.067910	1357.72	83021.7
345	2.000000	1.014566	7.36844e+06	-55889.1	955.819	-29740.9	0.000000	0.000000	7.019830	127.896	NaN	0.000000	0.001606	0.001709	28.0783	51.0998	0.001801	28374	4.422602	175.155	125.644	1.014259	0.053896	0.053589	127.896	28374	0.050515	0.094012	1360.42	84547.7
345	2.000000	1.024043	7.36844e+06	-55889.1	955.82	-29740.9	0.000000	0.000000	7.031205	174.038	NaN	0.000000	0.001690	0.001708	28.0798	59.6578	0.001810	32958.6	4.381319	-5.999871	169.301	1.023655	0.063372	0.062984	174.038	32958.6	0.059412	0.123708	1406.84	85613.7
345	2.000000	1.033552	7.36844e+06	-55889.1	955.82	-29740.9	0.000000	0.000000	7.042591	219.651	NaN	0.000000	0.001603	0.001702	28.0796	67.9395	0.001958	34696.9	4.051544	174.066	218.758	1.033209	0.072882	0.072538	219.651	34696.9	0.068134	0.156581	1402.8	80111.5
345	2.000000	1.043016	7.36844e+06	-55889.1	955.819	-29740.9	0.000000	0.000000	7.054327	274.88	NaN	0.000000	0.001511	0.001692	28.0798	75.5439	0.001754	43064	3.740242	-6.717634	270.056	1.042730	0.082346	0.082060	274.88	43064	0.077559	0.196188	1401.11	88828.4
345	2.000000	1.052709	7.36844e+06	-55889.1	955.82	-29740.9	0.000000	0.000000	7.065691	315.504	NaN	0.000000	0.001513	0.001705	28.0794	86.402	0.001756	49198.6	6.067620	169.673	325.672	1.052391	0.092038	0.091721	315.504	49198.6	0.087229	0.241148	1308.34	91534.4
345	2.000000	1.061986	7.36844e+06	-55889.1	955.82	-29740.9	0.000000	0.000000	7.077962	388.285	NaN	0.000000	0.001651	0.001726	28.0785	93.3937	0.001820	51306.9	4.212889	-8.523801	381.418	1.061655	0.101316	0.100984	388.285	51306.9	0.095640	0.283759	1368.36	87998.3
345	2.000000	1.070595	7.36844e+06	-55889.1	955.82	-29740.9	0.000000	0.000000	7.088974	446.7	NaN	0.000000	0.001629	0.001754	28.078	103.383	0.001713	60354.6	8.201383	166.242	451.643	1.070238	0.109925	0.109567	446.7	60354.6	0.104374	0.331420	1347.84	95784.3

File: 2025-07-22_16-23-58_1_346.txt
2025-07-22, 16:23:58, 1
Index	Phase	Displacement	Time	Pos X	Pos Y	Pos Z	Rot A	Rot B	Piezo Z	Force A	Force B	Gripper	Voltage A	Voltage B	Temperature	Amplitude force	Amplitude pos	Stiffness	Phase shift	Phase excitation	Force A raw	Displacement raw	HMax	HMax raw	Real Force	Real Stiffness	Contact Depth	Area	Hardness	Reduced Mod.
[#]	[#]	[um]	[s]	[um]	[um]	[um]	[m°]	[m°]	[um]	[uN]	[uN]	[V]	[V]	[V]	[°C]	[uN]	[um]	[N/m]	[°]	[°]	[uN]	[um]	[um]	[um]	[uN]	[N/m]	[um]	[um^2]	[MPa]	[MPa]
346	1.000000	0.002347	7.36844e+06	-55939.1	955.819	-29740.6	0.000000	0.000000	6.002806	-0.019608	NaN	0.000000	0.001594	0.001724	28.0812	0.089759	0.001005	89.309	-150.801	-171.816	-0.068234	0.001114	-1.048441	-1.049674	-0.019608	89.309	-1.048276	-1.012144E+14	1.937271E-16	NaN
346	1.000000	0.042315	7.36844e+06	-55939.1	955.818	-29740.6	0.000000	0.000000	6.042776	0.031366	NaN	0.000000	0.001617	0.001660	28.0824	0.062480	0.001966	31.7883	67.1656	-167.765	-0.015628	0.040996	-1.008474	-1.009792	0.031366	31.7883	-1.009214	-3.018559E+13	-1.039118E-15	NaN
346	1.000000	0.082296	7.36845e+06	-55939.1	955.818	-29740.6	0.000000	0.000000	6.082756	-0.007051	NaN	0.000000	0.001580	0.001690	28.0818	0.083246	0.002020	41.2114	-16.1956	-167.968	-0.034169	0.081012	-0.968492	-0.969777	-0.007051	41.2114	-0.968364	-8.503771E+12	8.291280E-16	NaN
346	1.000000	0.122338	7.36845e+06	-55939.1	955.819	-29740.6	0.000000	0.000000	6.122798	0.006530	NaN	0.000000	0.001620	0.001697	28.0837	0.088998	0.001950	45.6415	71.4507	-164.668	-0.011710	0.121006	-0.928450	-0.929782	0.006530	45.6415	-0.928557	-2.470149E+12	-2.643731E-15	NaN
346	1.000000	0.162324	7.36845e+06	-55939.1	955.818	-29740.6	0.000000	0.000000	6.162781	-0.062350	NaN	0.000000	0.001581	0.001704	28.0828	0.037075	0.002039	18.1814	153.073	-166.148	-0.009765	0.161043	-0.888465	-0.889746	-0.062350	18.1814	-0.885893	-6.552225E+11	9.515800E-14	NaN
346	1.000000	0.202351	7.36845e+06	-55939.1	955.818	-29740.6	0.000000	0.000000	6.202807	-0.072259	NaN	0.000000	0.001583	0.001653	28.0822	0.036425	0.002067	17.6215	-32.7589	-166.798	-0.090251	0.201076	-0.848438	-0.849712	-0.072259	17.6215	-0.845362	-1.853233E+11	3.899097E-13	NaN
346	1.000000	0.242348	7.36845e+06	-55939.1	955.819	-29740.6	0.000000	0.000000	6.242807	-0.014544	NaN	0.000000	0.001577	0.001657	28.0824	0.026317	0.001895	13.8897	-5.046915	-165.924	-0.002371	0.241101	-0.808440	-0.809687	-0.014544	13.8897	-0.807655	-5.711499E+10	2.546468E-13	NaN
346	1.000000	0.282353	7.36845e+06	-55939.1	955.818	-29740.6	0.000000	0.000000	6.282814	0.024832	NaN	0.000000	0.001571	0.001702	28.0813	0.039015	0.001971	19.7908	121.764	-167.008	-0.049233	0.281059	-0.768435	-0.769729	0.024832	19.7908	-0.769376	-1.725135E+10	-1.439400E-12	NaN
346	1.000000	0.322418	7.36845e+06	-55939.1	955.818	-29740.6	0.000000	0.000000	6.322878	0.003212	NaN	0.000000	0.001564	0.001668	28.0812	0.059218	0.001953	30.3187	-117.345	-165.418	0.048903	0.321115	-0.728371	-0.729673	0.003212	30.3187	-0.728450	-4.782796E+9	-6.715439E-13	NaN
346	1.000000	0.362433	7.36845e+06	-55939.1	955.818	-29740.6	0.000000	0.000000	6.362893	0.009965	NaN	0.000000	0.001606	0.001658	28.081	0.103513	0.002125	48.7213	-172.533	-166.667	-0.023715	0.361122	-0.688355	-0.689666	0.009965	48.7213	-0.688509	-1.363121E+9	-7.310713E-12	NaN
346	1.000000	0.402408	7.36845e+06	-55939.1	955.818	-29740.6	0.000000	0.000000	6.402868	0.002887	NaN	0.000000	0.001575	0.001629	28.081	0.027776	0.001970	14.1028	-129.604	-164.302	0.005091	0.401120	-0.648380	-0.649668	0.002887	14.1028	-0.648534	-3.866672E+8	-7.465496E-12	NaN
346	1.000000	0.442427	7.36845e+06	-55939.1	955.818	-29740.6	0.000000	0.000000	6.442889	0.045235	NaN	0.000000	0.001526	0.001681	28.0825	0.124703	0.002042	61.063	-156.841	-166.708	-0.022989	0.441150	-0.608361	-0.609638	0.045235	61.063	-0.608917	-1.104606E+8	-4.095154E-10	NaN
346	1.000000	0.482469	7.36845e+06	-55939.1	955.819	-29740.6	0.000000	0.000000	6.482929	0.018837	NaN	0.000000	0.001561	0.001664	28.0826	0.086033	0.002049	41.9853	-102.938	-163.613	0.020798	0.481205	-0.568320	-0.569584	0.018837	41.9853	-0.568656	-3.076544E+7	-6.122724E-10	NaN
346	1.000000	0.522503	7.36845e+06	-55939.1	955.818	-29740.6	0.000000	0.000000	6.522963	0.002685	NaN	0.000000	0.001605	0.001673	28.0825	0.033547	0.002025	16.5655	-170.75	-164.033	-0.015930	0.521182	-0.528285	-0.529606	0.002685	16.5655	-0.528406	-8.52001e+06	-3.150824E-10	NaN
346	1.000000	0.562517	7.36845e+06	-55939.1	955.818	-29740.6	0.000000	0.000000	6.562977	-0.011339	NaN	0.000000	0.001558	0.001626	28.0813	0.019172	0.002018	9.499744	-120.056	-165.67	-0.048329	0.561168	-0.488271	-0.489620	-0.011339	9.499744	-0.487376	-2.28409e+06	4.964495E-9	NaN
346	1.000000	0.602532	7.36845e+06	-55939.1	955.818	-29740.6	0.000000	0.000000	6.602993	0.020179	NaN	0.000000	0.001563	0.001677	28.0813	0.067979	0.002009	33.8296	-22.3062	-164.481	0.012938	0.601203	-0.448256	-0.449585	0.020179	33.8296	-0.448703	-654756	-3.081927E-8	NaN
346	1.000000	0.642570	7.36845e+06	-55939.1	955.819	-29740.6	0.000000	0.000000	6.643030	0.017575	NaN	0.000000	0.001596	0.001693	28.0814	0.011351	0.002052	5.530809	-54.3923	-168.989	0.112641	0.641237	-0.408219	-0.409551	0.017575	5.530809	-0.410602	-189218	-9.288504E-8	NaN
346	1.000000	0.682555	7.36845e+06	-55939.1	955.818	-29740.6	0.000000	0.000000	6.683014	-0.013022	NaN	0.000000	0.001623	0.001735	28.0823	0.097955	0.002031	48.2415	-9.051842	-165.806	0.051128	0.681253	-0.368234	-0.369535	-0.013022	48.2415	-0.368031	-46533.5	2.798419E-7	NaN
346	1.000000	0.722586	7.36845e+06	-55939.1	955.818	-29740.6	0.000000	0.000000	6.723043	-0.060973	NaN	0.000000	0.001642	0.001675	28.0822	0.036407	0.002018	18.0452	-14.5919	-170.63	-0.068228	0.721265	-0.328202	-0.329523	-0.060973	18.0452	-0.325668	-11270.5	5.409910E-6	NaN
346	1.000000	0.762587	7.36845e+06	-55939.1	955.819	-29740.6	0.000000	0.000000	6.763048	0.023183	NaN	0.000000	0.001633	0.001675	28.0826	0.056016	0.002145	26.1145	-30.3869	-164.652	-0.010257	0.761283	-0.288201	-0.289505	0.023183	26.1145	-0.288867	-3208.65	-7.225051E-6	NaN
346	1.000000	0.802576	7.36845e+06	-55939.1	955.818	-29740.6	0.000000	0.000000	6.803036	0.000161	NaN	0.000000	0.001634	0.001700	28.0827	0.071619	0.001914	37.4144	113.32	-167.828	-0.136506	0.801295	-0.248212	-0.249493	0.000161	37.4144	-0.248215	-771.505	-2.090406E-7	NaN
346	1.000000	0.842650	7.36845e+06	-55939.1	955.819	-29740.6	0.000000	0.000000	6.843109	-0.005389	NaN	0.000000	0.001633	0.001728	28.0811	0.054568	0.001993	27.3773	-128.545	-167	-0.053242	0.841319	-0.208139	-0.209469	-0.005389	27.3773	-0.207991	-177.926	3.028969E-5	NaN
346	1.000000	0.882635	7.36845e+06	-55939.1	955.818	-29740.6	0.000000	0.000000	6.883096	0.019889	NaN	0.000000	0.001593	0.001751	28.0811	0.109790	0.001914	57.3664	-178.726	-166.438	-0.000308	0.881350	-0.168153	-0.169439	0.019889	57.3664	-0.168413	-38.5487	-0.000516	NaN
346	1.000000	0.922633	7.36845e+06	-55939.1	955.819	-29740.6	0.000000	0.000000	6.923094	0.030968	NaN	0.000000	0.001627	0.001764	28.0809	0.151619	0.002135	71.0268	-172.724	-168.623	0.023782	0.921374	-0.128155	-0.129414	0.030968	71.0268	-0.128482	-7.119431	-0.004350	NaN
346	1.000000	0.962684	7.36845e+06	-55939.1	955.817	-29740.6	0.000000	0.000000	6.963142	-0.029780	NaN	0.000000	0.001621	0.001747	28.0823	0.067346	0.001941	34.691	108.747	-166.991	0.047981	0.961354	-0.088105	-0.089434	-0.029780	34.691	-0.087461	-0.941404	0.031634	NaN
346	1.000000	1.002697	7.36845e+06	-55939.1	955.817	-29740.6	0.000000	0.000000	7.003156	-0.015327	NaN	0.000000	0.001643	0.001689	28.0822	0.097077	0.002095	46.3422	-33.6528	-167.087	0.029069	1.001362	-0.048092	-0.049427	-0.015327	46.3422	-0.047844	-0.078487	0.195284	NaN
346	1.000000	1.042710	7.36845e+06	-55939.1	955.816	-29740.6	0.000000	0.000000	7.043168	-0.048496	NaN	0.000000	0.001589	0.001723	28.0824	0.095271	0.001865	51.0954	87.5727	-164.386	-0.053376	1.041352	-0.008078	-0.009437	-0.048496	51.0954	-0.007367	-0.004859	9.981705	NaN
346	2.000000	1.067226	7.36845e+06	-55939.1	955.815	-29740.6	0.000000	0.000000	7.068333	15.7252	NaN	0.000000	0.001623	0.001697	28.0833	15.0823	0.001831	8239.04	9.495713	-177.18	15.6128	1.066883	0.016438	0.016095	15.7252	8239.04	0.015006	0.015294	1028.19	60868.1
346	2.000000	1.077156	7.36845e+06	-55939.1	955.818	-29740.6	0.000000	0.000000	7.079209	38.7139	NaN	0.000000	0.001619	0.001773	28.0812	26.594	0.001801	14767.3	8.259681	177.777	37.918	1.076792	0.026368	0.026004	38.7139	14767.3	0.024402	0.029936	1293.21	77978.9
346	2.000000	1.087149	7.36845e+06	-55939.1	955.816	-29740.6	0.000000	0.000000	7.090339	66.3812	NaN	0.000000	0.001621	0.001717	28.0821	38.2176	0.001854	20611.4	4.720656	177.328	65.5366	1.086888	0.036360	0.036100	66.3812	20611.4	0.033945	0.049318	1345.99	84796.7
346	2.000000	1.097084	7.36845e+06	-55939.1	955.815	-29740.6	0.000000	0.000000	7.101825	104.073	NaN	0.000000	0.001634	0.001731	28.081	46.8457	0.001781	26298.9	8.137146	171.451	99.3342	1.096850	0.046296	0.046062	104.073	26298.9	0.043328	0.072911	1427.4	88984.6
346	2.000000	1.107127	7.36845e+06	-55939.1	955.817	-29740.6	0.000000	0.000000	7.113702	148.655	NaN	0.000000	0.001690	0.001720	28.0823	56.277	0.001770	31794.6	6.246663	173.139	147.253	1.106721	0.056338	0.055933	148.655	31794.6	0.052832	0.101367	1466.5	91238.8
346	2.000000	1.117149	7.36845e+06	-55939.1	955.817	-29740.6	0.000000	0.000000	7.126087	206.091	NaN	0.000000	0.001650	0.001738	28.0823	66.2378	0.001716	38606.1	8.852977	168.538	207.327	1.116708	0.066361	0.065920	206.091	38606.1	0.062357	0.134397	1533.45	96213.3
346	2.000000	1.127140	7.36845e+06	-55939.1	955.817	-29740.6	0.000000	0.000000	7.138422	263.072	NaN	0.000000	0.001630	0.001728	28.0824	76.0333	0.001804	42158.3	3.944405	173.184	266.431	1.126766	0.076352	0.075977	263.072	42158.3	0.071672	0.170954	1538.84	93157.2
346	2.000000	1.137003	7.36845e+06	-55939.1	955.816	-29740.6	0.000000	0.000000	7.150765	323.345	NaN	0.000000	0.001603	0.001712	28.0814	86.624	0.001861	46542.2	5.970854	169.821	319.149	1.136907	0.086214	0.086119	323.345	46542.2	0.081004	0.211709	1527.31	92416.9
346	2.000000	1.146953	7.36845e+06	-55939.1	955.815	-29740.6	0.000000	0.000000	7.164126	406.254	NaN	0.000000	0.001648	0.001743	28.0811	94.141	0.001813	51913.9	4.780228	170.415	398.854	1.146732	0.096165	0.095944	406.254	51913.9	0.090296	0.256310	1585.01	93685.9
346	2.000000	1.156977	7.36845e+06	-55939.1	955.817	-29740.6	0.000000	0.000000	7.177173	479.734	NaN	0.000000	0.001678	0.001719	28.0812	102.784	0.001826	56302.2	2.545880	172.348	473.493	1.156778	0.106189	0.105990	479.734	56302.2	0.099798	0.306020	1567.66	92987.3
346	2.000000	1.160528	7.36845e+06	-55939.1	955.816	-29740.6	0.000000	0.000000	7.182056	512.123	NaN	0.000000	0.001624	0.001729	28.0809	105.581	0.001700	62115.2	5.097794	-10.985	508.902	1.160223	0.109740	0.109435	512.123	62115.2	0.103556	0.326813	1567.02	99270.8