Folder: unikorn_login/remote_trans/data/nanoindenter/0828-1/data/Data_2025-08-06,11h17m57s (part 98)

File: 2025-07-22_16-23-58_1_213.txt
2025-07-22, 16:23:58, 1
Index	Phase	Displacement	Time	Pos X	Pos Y	Pos Z	Rot A	Rot B	Piezo Z	Force A	Force B	Gripper	Voltage A	Voltage B	Temperature	Amplitude force	Amplitude pos	Stiffness	Phase shift	Phase excitation	Force A raw	Displacement raw	HMax	HMax raw	Real Force	Real Stiffness	Contact Depth	Area	Hardness	Reduced Mod.
[#]	[#]	[um]	[s]	[um]	[um]	[um]	[m°]	[m°]	[um]	[uN]	[uN]	[V]	[V]	[V]	[°C]	[uN]	[um]	[N/m]	[°]	[°]	[uN]	[um]	[um]	[um]	[uN]	[N/m]	[um]	[um^2]	[MPa]	[MPa]
213	1.000000	0.002312	7.36713e+06	-49289.1	955.819	-29759.6	0.000000	0.000000	6.002836	-0.044784	NaN	0.000000	0.001650	0.001827	28.0801	0.074510	0.000988	75.4067	-108.724	-164.327	-0.060802	0.001045	-1.249362	-1.250629	-0.044784	75.4067	-1.248917	-4.959392E+16	9.030162E-19	NaN
213	1.000000	0.048221	7.36713e+06	-49289.1	955.818	-29759.6	0.000000	0.000000	6.048747	-0.022746	NaN	0.000000	0.001571	0.001787	28.0803	0.132401	0.001965	67.3855	-171.078	16.1438	0.055049	0.046852	-1.203453	-1.204822	-0.022746	67.3855	-1.203199	-1.212240E+16	1.876383E-18	NaN
213	1.000000	0.094261	7.36713e+06	-49289.1	955.818	-29759.6	0.000000	0.000000	6.094789	0.022621	NaN	0.000000	0.001585	0.001807	28.0804	0.093600	0.002022	46.2915	89.8355	-164.61	-0.016862	0.092983	-1.157412	-1.158691	0.022621	46.2915	-1.157779	-2.986064E+15	-7.575637E-18	NaN
213	1.000000	0.140245	7.36713e+06	-49289.1	955.819	-29759.6	0.000000	0.000000	6.140771	-0.025899	NaN	0.000000	0.001667	0.001779	28.0789	0.013244	0.002102	6.301402	4.927198	17.1523	-0.018411	0.138909	-1.111428	-1.112765	-0.025899	6.301402	-1.108346	-6.487667E+14	3.992066E-17	NaN
213	1.000000	0.186273	7.36713e+06	-49289.1	955.817	-29759.6	0.000000	0.000000	6.186797	-0.048853	NaN	0.000000	0.001665	0.001802	28.0787	0.012213	0.001985	6.152694	145.345	-165.201	0.058790	0.184915	-1.065401	-1.066759	-0.048853	6.152694	-1.059446	-1.430125E+14	3.415977E-16	NaN
213	1.000000	0.232298	7.36713e+06	-49289.1	955.819	-29759.7	0.000000	0.000000	6.232822	-0.048976	NaN	0.000000	0.001593	0.001787	28.0794	0.112028	0.002002	55.9627	102.554	11.6964	-0.007857	0.230926	-1.019376	-1.020747	-0.048976	55.9627	-1.018720	-4.052520E+13	1.208539E-15	NaN
213	1.000000	0.278322	7.36713e+06	-49289.1	955.818	-29759.7	0.000000	0.000000	6.278850	0.026020	NaN	0.000000	0.001610	0.001790	28.0801	0.175334	0.002081	84.2736	-57.3461	-169.855	0.105393	0.277017	-0.973351	-0.974657	0.026020	84.2736	-0.973583	-9.998740E+12	-2.602290E-15	NaN
213	1.000000	0.324312	7.36713e+06	-49289.1	955.819	-29759.7	0.000000	0.000000	6.324837	-0.025349	NaN	0.000000	0.001683	0.001729	28.0802	0.056112	0.002085	26.908	-19.893	16.7614	-0.031360	0.322936	-0.927362	-0.928737	-0.025349	26.908	-0.926655	-2.328362E+12	1.088691E-14	NaN
213	1.000000	0.370345	7.36713e+06	-49289.1	955.818	-29759.7	0.000000	0.000000	6.370872	0.022942	NaN	0.000000	0.001694	0.001786	28.0802	0.042651	0.001963	21.7276	154.009	-166.729	-0.021652	0.369105	-0.881329	-0.882568	0.022942	21.7276	-0.882121	-5.826228E+11	-3.937647E-14	NaN
213	1.000000	0.416375	7.36713e+06	-49289.1	955.817	-29759.7	0.000000	0.000000	6.416904	0.059411	NaN	0.000000	0.001587	0.001711	28.0789	0.063894	0.001978	32.2952	0.400736	12.5689	0.073425	0.414976	-0.835299	-0.836698	0.059411	32.2952	-0.836679	-1.413486E+11	-4.203147E-13	NaN
213	1.000000	0.462385	7.36713e+06	-49289.1	955.819	-29759.7	0.000000	0.000000	6.462912	0.009716	NaN	0.000000	0.001605	0.001710	28.0786	0.059954	0.002078	28.8567	-171.984	-164.597	0.032065	0.461105	-0.789289	-0.790568	0.009716	28.8567	-0.789541	-3.242322E+10	-2.996763E-13	NaN
213	1.000000	0.508429	7.36713e+06	-49289.1	955.818	-29759.7	0.000000	0.000000	6.508955	-0.007359	NaN	0.000000	0.001608	0.001764	28.0787	0.071540	0.002027	35.2922	-105.866	13.7433	-0.010628	0.507102	-0.743245	-0.744572	-0.007359	35.2922	-0.743088	-7.570391E+9	9.720957E-13	NaN
213	1.000000	0.554472	7.36713e+06	-49289.1	955.818	-29759.7	0.000000	0.000000	6.554998	0.004852	NaN	0.000000	0.001586	0.001763	28.0802	0.010838	0.002133	5.080656	166.516	-165.078	-0.060083	0.553169	-0.697202	-0.698504	0.004852	5.080656	-0.697918	-1.832741E+9	-2.647484E-12	NaN
213	1.000000	0.600458	7.36713e+06	-49289.1	955.817	-29759.7	0.000000	0.000000	6.600986	0.038779	NaN	0.000000	0.001595	0.001751	28.0803	0.137019	0.001985	69.0121	-113.494	13.0253	-0.002612	0.599092	-0.651215	-0.652582	0.038779	69.0121	-0.651637	-4.264558E+8	-9.093304E-11	NaN
213	1.000000	0.646461	7.36713e+06	-49289.1	955.818	-29759.7	0.000000	0.000000	6.646987	-0.015047	NaN	0.000000	0.001541	0.001778	28.0801	0.047753	0.002055	23.2384	74.7936	-165.471	-0.030550	0.645185	-0.605213	-0.606489	-0.015047	23.2384	-0.604727	-9.672745E+7	1.555647E-10	NaN
213	1.000000	0.692492	7.36713e+06	-49289.1	955.818	-29759.7	0.000000	0.000000	6.693017	-0.032713	NaN	0.000000	0.001591	0.001796	28.0788	0.015835	0.002059	7.689506	-167.351	18.56	-0.048060	0.691136	-0.559182	-0.560537	-0.032713	7.689506	-0.555991	-2.055459E+7	1.591514E-9	NaN
213	1.000000	0.738544	7.36713e+06	-49289.1	955.818	-29759.7	0.000000	0.000000	6.739071	0.010237	NaN	0.000000	0.001624	0.001783	28.0791	0.055005	0.002081	26.4369	-167.826	-163.938	-0.061076	0.737154	-0.513130	-0.514520	0.010237	26.4369	-0.513420	-5.27278e+06	-1.941471E-9	NaN
213	1.000000	0.784541	7.36713e+06	-49289.1	955.819	-29759.7	0.000000	0.000000	6.785069	0.053300	NaN	0.000000	0.001564	0.001731	28.0788	0.045929	0.001928	23.8277	152.049	14.6426	0.018914	0.783178	-0.467133	-0.468496	0.053300	23.8277	-0.468811	-1.25523e+06	-4.246231E-8	NaN
213	1.000000	0.830547	7.36713e+06	-49289.1	955.818	-29759.7	0.000000	0.000000	6.831072	-0.027432	NaN	0.000000	0.001614	0.001741	28.0799	0.108871	0.002058	52.9009	-170.098	-167.544	-0.037869	0.829250	-0.421127	-0.422423	-0.027432	52.9009	-0.420738	-263559	1.040840E-7	NaN
213	1.000000	0.876572	7.36713e+06	-49289.1	955.817	-29759.7	0.000000	0.000000	6.877098	-0.014337	NaN	0.000000	0.001555	0.001740	28.0801	0.026297	0.002166	12.1416	-45.235	15.4522	0.039740	0.875190	-0.375102	-0.376484	-0.014337	12.1416	-0.374216	-57121.4	2.509977E-7	NaN
213	1.000000	0.922584	7.36713e+06	-49289.1	955.818	-29759.7	0.000000	0.000000	6.923109	-0.042573	NaN	0.000000	0.001548	0.001734	28.0799	0.044534	0.001951	22.8297	144.392	-162.506	0.029110	0.921309	-0.329090	-0.330364	-0.042573	22.8297	-0.327691	-12067.6	3.527844E-6	NaN
213	1.000000	0.968604	7.36713e+06	-49289.1	955.818	-29759.7	0.000000	0.000000	6.969129	-0.047182	NaN	0.000000	0.001548	0.001689	28.0786	0.048410	0.001952	24.7971	-88.2526	15.3678	0.051280	0.967281	-0.283070	-0.284393	-0.047182	24.7971	-0.281643	-2498.82	1.888185E-5	NaN
213	1.000000	1.014641	7.36713e+06	-49289.1	955.817	-29759.7	0.000000	0.000000	7.015167	-0.025392	NaN	0.000000	0.001523	0.001716	28.0789	0.089311	0.001962	45.518	-153.65	-166.511	0.013158	1.013320	-0.237032	-0.238354	-0.025392	45.518	-0.236614	-508.829	4.990349E-5	NaN
213	1.000000	1.060634	7.36713e+06	-49289.1	955.818	-29759.7	0.000000	0.000000	7.061161	0.024872	NaN	0.000000	0.001560	0.001730	28.0786	0.053510	0.002012	26.5923	90.9902	12.5382	0.027341	1.059369	-0.191040	-0.192305	0.024872	26.5923	-0.191741	-96.1778	-0.000259	NaN
213	1.000000	1.106671	7.36713e+06	-49289.1	955.818	-29759.7	0.000000	0.000000	7.107197	-0.012182	NaN	0.000000	0.001552	0.001725	28.0797	0.083301	0.001931	43.1485	65.3833	-165.31	-0.122309	1.105311	-0.145003	-0.146362	-0.012182	43.1485	-0.144791	-14.5311	0.000838	NaN
213	1.000000	1.152693	7.36713e+06	-49289.1	955.817	-29759.7	0.000000	0.000000	7.153223	0.086118	NaN	0.000000	0.001596	0.001795	28.0801	0.074350	0.002082	35.7083	-48.3371	14.1228	-0.007554	1.151318	-0.098980	-0.100355	0.086118	35.7083	-0.100789	-1.902072	-0.045276	NaN
213	1.000000	1.198667	7.36713e+06	-49289.1	955.817	-29759.7	0.000000	0.000000	7.199193	-0.006426	NaN	0.000000	0.001644	0.001793	28.079	0.047170	0.001921	24.5526	-19.3626	-165.951	0.015669	1.197466	-0.053006	-0.054208	-0.006426	24.5526	-0.052810	-0.110853	0.057970	NaN
213	1.000000	1.244749	7.36713e+06	-49289.1	955.818	-29759.7	0.000000	0.000000	7.245273	-0.064760	NaN	0.000000	0.001639	0.001773	28.0785	0.059819	0.001836	32.5823	-93.861	12.462	-0.033143	1.243371	-0.006925	-0.008303	-0.064760	32.5823	-0.005434	-0.003688	17.5611	NaN
213	2.000000	1.269229	7.36713e+06	-49289.1	955.818	-29759.7	0.000000	0.000000	7.270613	20.8413	NaN	0.000000	0.001666	0.001715	28.0786	16.3878	0.001744	9394.47	7.210365	-176.71	21.1684	1.268917	0.017555	0.017244	20.8413	9394.47	0.015892	0.016493	1263.67	66834.4
213	2.000000	1.280690	7.36713e+06	-49289.1	955.817	-29759.7	0.000000	0.000000	7.283332	51.4405	NaN	0.000000	0.001638	0.001771	28.0798	29.5295	0.001939	15225.7	4.456940	2.196488	50.654	1.280260	0.029016	0.028586	51.4405	15225.7	0.026482	0.033768	1523.37	75700.9
213	2.000000	1.292102	7.36713e+06	-49289.1	955.817	-29759.7	0.000000	0.000000	7.296558	95.5573	NaN	0.000000	0.001617	0.001745	28.0796	40.4111	0.001794	22526.3	6.736383	175.394	93.5503	1.291834	0.040429	0.040160	95.5573	22526.3	0.037247	0.057108	1673.27	86121.9
213	2.000000	1.303715	7.36714e+06	-49289.1	955.818	-29759.7	0.000000	0.000000	7.309842	136.196	NaN	0.000000	0.001625	0.001747	28.0799	51.8903	0.001745	29736.9	1.550865	-1.984586	137.832	1.303489	0.052042	0.051815	136.196	29736.9	0.048607	0.088156	1544.94	91504.6
213	2.000000	1.315148	7.36714e+06	-49289.1	955.818	-29759.7	0.000000	0.000000	7.324087	204.575	NaN	0.000000	0.001624	0.001698	28.0784	63.0137	0.001791	35175.5	6.564757	171.272	205.142	1.314943	0.063475	0.063270	204.575	35175.5	0.059113	0.122646	1668.01	91766.9
213	2.000000	1.326651	7.36714e+06	-49289.1	955.818	-29759.7	0.000000	0.000000	7.338672	279.553	NaN	0.000000	0.001639	0.001701	28.0782	75.6142	0.001776	42565	5.834371	-8.546216	278.821	1.326374	0.074977	0.074700	279.553	42565	0.070052	0.164298	1701.5	95942.1
213	2.000000	1.337934	7.36714e+06	-49289.1	955.817	-29759.7	0.000000	0.000000	7.353474	365.114	NaN	0.000000	0.001671	0.001740	28.079	86.7613	0.001720	50443.6	5.386862	170.075	357.451	1.337645	0.086261	0.085971	365.114	50443.6	0.080832	0.210921	1731.04	100350
213	2.000000	1.349544	7.36714e+06	-49289.1	955.818	-29759.7	0.000000	0.000000	7.368731	453.84	NaN	0.000000	0.001679	0.001762	28.0799	97.3552	0.001905	51103.3	3.491361	-6.770857	449.38	1.349232	0.097870	0.097558	453.84	51103.3	0.091209	0.260911	1739.45	91406.4
213	2.000000	1.360553	7.36714e+06	-49289.1	955.817	-29759.7	0.000000	0.000000	7.383381	542.378	NaN	0.000000	0.001694	0.001781	28.0796	106.259	0.001762	60290.5	0.165571	-5.137105	539.464	1.360334	0.108879	0.108661	542.378	60290.5	0.102132	0.318856	1701.01	97549.4

File: 2025-07-22_16-23-58_1_214.txt
2025-07-22, 16:23:58, 1
Index	Phase	Displacement	Time	Pos X	Pos Y	Pos Z	Rot A	Rot B	Piezo Z	Force A	Force B	Gripper	Voltage A	Voltage B	Temperature	Amplitude force	Amplitude pos	Stiffness	Phase shift	Phase excitation	Force A raw	Displacement raw	HMax	HMax raw	Real Force	Real Stiffness	Contact Depth	Area	Hardness	Reduced Mod.
[#]	[#]	[um]	[s]	[um]	[um]	[um]	[m°]	[m°]	[um]	[uN]	[uN]	[V]	[V]	[V]	[°C]	[uN]	[um]	[N/m]	[°]	[°]	[uN]	[um]	[um]	[um]	[uN]	[N/m]	[um]	[um^2]	[MPa]	[MPa]
214	1.000000	0.002767	7.36714e+06	-49339.1	955.818	-29759.7	0.000000	0.000000	6.002791	-0.019630	NaN	0.000000	0.001632	0.001655	28.0785	0.089724	0.001020	87.9866	-62.3794	-169.826	0.015386	0.001536	-1.085114	-1.086346	-0.019630	87.9866	-1.084947	-3.147455E+14	6.236793E-17	NaN
214	1.000000	0.042742	7.36714e+06	-49339.1	955.819	-29759.7	0.000000	0.000000	6.042768	0.024819	NaN	0.000000	0.001574	0.001655	28.0786	0.081672	0.002076	39.3369	150.278	-166.982	0.028249	0.041459	-1.045139	-1.046423	0.024819	39.3369	-1.045612	-9.320279E+13	-2.662956E-16	NaN
214	1.000000	0.082741	7.36714e+06	-49339.1	955.818	-29759.7	0.000000	0.000000	6.082769	0.062489	NaN	0.000000	0.001572	0.001700	28.0798	0.045152	0.001929	23.4039	69.5296	-167.801	0.122471	0.081433	-1.005140	-1.006448	0.062489	23.4039	-1.007143	-2.830896E+13	-2.207386E-15	NaN
214	1.000000	0.122756	7.36714e+06	-49339.1	955.819	-29759.7	0.000000	0.000000	6.122785	0.086973	NaN	0.000000	0.001617	0.001631	28.0796	0.037541	0.001954	19.2084	-151.091	-166.583	0.000322	0.121416	-0.965125	-0.966466	0.086973	19.2084	-0.968521	-8.545372E+12	-1.017783E-14	NaN
214	1.000000	0.162757	7.36714e+06	-49339.1	955.819	-29759.7	0.000000	0.000000	6.162783	0.028641	NaN	0.000000	0.001627	0.001652	28.0794	0.095162	0.001924	49.4495	-156.444	-165.073	0.037780	0.161458	-0.925124	-0.926423	0.028641	49.4495	-0.925559	-2.250359E+12	-1.272736E-14	NaN
214	1.000000	0.202776	7.36714e+06	-49339.1	955.818	-29759.7	0.000000	0.000000	6.202799	-0.035450	NaN	0.000000	0.001643	0.001663	28.0778	0.063880	0.001880	33.9751	-11.625	-168.078	0.007573	0.201447	-0.885105	-0.886434	-0.035450	33.9751	-0.884323	-6.239700E+11	5.681424E-14	NaN
214	1.000000	0.242774	7.36714e+06	-49339.1	955.818	-29759.7	0.000000	0.000000	6.242802	0.089675	NaN	0.000000	0.001609	0.001689	28.0774	0.122496	0.002028	60.4092	34.7531	-167.091	0.050703	0.241517	-0.845108	-0.846365	0.089675	60.4092	-0.846221	-1.903535E+11	-4.710990E-13	NaN
214	1.000000	0.282815	7.36714e+06	-49339.1	955.817	-29759.7	0.000000	0.000000	6.282841	0.020587	NaN	0.000000	0.001641	0.001631	28.0776	0.109991	0.001991	55.2458	-107.785	-166.606	0.036977	0.281524	-0.805066	-0.806358	0.020587	55.2458	-0.805346	-5.313936E+10	-3.874122E-13	NaN
214	1.000000	0.322844	7.36714e+06	-49339.1	955.819	-29759.7	0.000000	0.000000	6.322873	0.089665	NaN	0.000000	0.001622	0.001654	28.0778	0.016833	0.001996	8.435003	-41.5331	-168.204	0.118236	0.321512	-0.765037	-0.766369	0.089665	8.435003	-0.773010	-1.932959E+10	-4.638719E-12	NaN
214	1.000000	0.362858	7.36714e+06	-49339.1	955.818	-29759.7	0.000000	0.000000	6.362887	0.101568	NaN	0.000000	0.001662	0.001637	28.0791	0.021661	0.001978	10.949	-89.9538	-164.777	0.059203	0.361593	-0.725024	-0.726289	0.101568	10.949	-0.731981	-5.343238E+9	-1.900861E-11	NaN
214	1.000000	0.402860	7.36714e+06	-49339.1	955.819	-29759.7	0.000000	0.000000	6.402887	0.050178	NaN	0.000000	0.001564	0.001644	28.0791	0.093911	0.001939	48.4366	83.0264	-168.415	0.121873	0.401594	-0.685021	-0.686287	0.050178	48.4366	-0.685798	-1.251668E+9	-4.008912E-11	NaN
214	1.000000	0.442924	7.36714e+06	-49339.1	955.818	-29759.7	0.000000	0.000000	6.442949	-0.001633	NaN	0.000000	0.001616	0.001655	28.0794	0.059518	0.002046	29.0857	-141.367	-164.698	-0.006959	0.441609	-0.644957	-0.646273	-0.001633	29.0857	-0.644915	-3.449167E+8	4.735555E-12	NaN
214	1.000000	0.482904	7.36714e+06	-49339.1	955.818	-29759.7	0.000000	0.000000	6.482928	-0.003524	NaN	0.000000	0.001637	0.001669	28.0783	0.058647	0.002100	27.9302	-105.299	-169.254	0.025603	0.481613	-0.604978	-0.606268	-0.003524	27.9302	-0.604883	-9.720616E+7	3.625661E-11	NaN
214	1.000000	0.522946	7.36714e+06	-49339.1	955.819	-29759.7	0.000000	0.000000	6.522973	0.050506	NaN	0.000000	0.001690	0.001677	28.078	0.137516	0.001986	69.2281	155.964	-168.134	0.082322	0.521570	-0.564935	-0.566311	0.050506	69.2281	-0.565483	-2.780982E+7	-1.816133E-9	NaN
214	1.000000	0.562901	7.36714e+06	-49339.1	955.817	-29759.7	0.000000	0.000000	6.562926	0.002388	NaN	0.000000	0.001629	0.001690	28.0778	0.048492	0.001932	25.098	16.0686	-168.089	0.086687	0.561681	-0.524981	-0.526201	0.002388	25.098	-0.525052	-7.653e+06	-3.120199E-10	NaN
214	1.000000	0.602961	7.36714e+06	-49339.1	955.818	-29759.7	0.000000	0.000000	6.602984	-0.039071	NaN	0.000000	0.001646	0.001726	28.0792	0.007094	0.002043	3.471571	-44.684	-169.006	-0.011699	0.601648	-0.484920	-0.486233	-0.039071	3.471571	-0.476480	-1.60779e+06	2.430102E-8	NaN
214	1.000000	0.642992	7.36714e+06	-49339.1	955.818	-29759.7	0.000000	0.000000	6.643016	-0.008183	NaN	0.000000	0.001621	0.001763	28.0792	0.069065	0.001964	35.1681	163.554	-167	0.058990	0.641659	-0.444890	-0.446223	-0.008183	35.1681	-0.444715	-575274	1.422477E-8	NaN
214	1.000000	0.682969	7.36714e+06	-49339.1	955.818	-29759.7	0.000000	0.000000	6.682996	0.049111	NaN	0.000000	0.001651	0.001720	28.0792	0.062100	0.001926	32.2366	-117.041	-166.747	0.033614	0.681676	-0.404912	-0.406206	0.049111	32.2366	-0.406055	-163031	-3.012375E-7	NaN
214	1.000000	0.722955	7.36714e+06	-49339.1	955.818	-29759.7	0.000000	0.000000	6.722982	0.035416	NaN	0.000000	0.001641	0.001736	28.079	0.048930	0.001933	25.309	167.171	-164.105	0.010358	0.721690	-0.364926	-0.366192	0.035416	25.309	-0.365976	-43463.7	-8.148457E-7	NaN
214	1.000000	0.763007	7.36714e+06	-49339.1	955.818	-29759.7	0.000000	0.000000	6.763032	0.004380	NaN	0.000000	0.001636	0.001723	28.0778	0.051418	0.002188	23.505	-70.3487	-165.97	0.051799	0.761754	-0.324874	-0.326128	0.004380	23.505	-0.325014	-11024.2	-3.972803E-7	NaN
214	1.000000	0.803051	7.36714e+06	-49339.1	955.817	-29759.7	0.000000	0.000000	6.803078	0.056660	NaN	0.000000	0.001595	0.001712	28.0778	0.052684	0.001997	26.3809	138.928	-166.464	0.104787	0.801700	-0.284831	-0.286181	0.056660	26.3809	-0.286442	-2950.74	-1.920204E-5	NaN
214	1.000000	0.843073	7.36714e+06	-49339.1	955.819	-29759.7	0.000000	0.000000	6.843098	0.016775	NaN	0.000000	0.001651	0.001749	28.0777	0.118342	0.002038	58.0562	115.168	-165.7	0.019350	0.841704	-0.244809	-0.246178	0.016775	58.0562	-0.245026	-688.418	-2.436815E-5	NaN
214	1.000000	0.883063	7.36714e+06	-49339.1	955.818	-29759.7	0.000000	0.000000	6.883088	0.006255	NaN	0.000000	0.001624	0.001652	28.0791	0.118258	0.002057	57.4839	124.244	-169.707	-0.014922	0.881725	-0.204818	-0.206157	0.006255	57.4839	-0.204900	-158.463	-3.947391E-5	NaN
214	1.000000	0.923076	7.36714e+06	-49339.1	955.819	-29759.7	0.000000	0.000000	6.923104	0.064286	NaN	0.000000	0.001620	0.001693	28.0791	0.078063	0.001907	40.9255	155.068	-167.235	0.008984	0.921743	-0.164805	-0.166139	0.064286	40.9255	-0.165983	-34.9586	-0.001839	NaN
214	1.000000	0.963121	7.36714e+06	-49339.1	955.818	-29759.7	0.000000	0.000000	6.963145	0.000317	NaN	0.000000	0.001643	0.001716	28.0791	0.052423	0.001993	26.299	34.1601	-168.992	0.098584	0.961790	-0.124761	-0.126092	0.000317	26.299	-0.124770	-6.017813	-5.266133E-5	NaN
214	1.000000	1.003133	7.36714e+06	-49339.1	955.818	-29759.7	0.000000	0.000000	7.003158	0.024250	NaN	0.000000	0.001632	0.001715	28.0795	0.027473	0.001904	14.4277	15.4427	-164.615	-0.001053	1.001820	-0.084749	-0.086062	0.024250	14.4277	-0.086009	-0.869024	-0.027905	NaN
214	1.000000	1.043151	7.36714e+06	-49339.1	955.82	-29759.7	0.000000	0.000000	7.043177	0.036793	NaN	0.000000	0.001728	0.001762	28.078	0.069258	0.001999	34.6409	175.06	-167.296	0.029060	1.041836	-0.044731	-0.046046	0.036793	34.6409	-0.045527	-0.066698	-0.551633	NaN
214	1.000000	1.083142	7.36714e+06	-49339.1	955.818	-29759.7	0.000000	0.000000	7.083170	0.065174	NaN	0.000000	0.001646	0.001726	28.0779	0.018021	0.001862	9.678294	-58.9724	-167.305	0.052855	1.081859	-0.004739	-0.006022	0.065174	9.678294	-0.009790	-0.006267	-10.3996	NaN
214	2.000000	1.101658	7.36714e+06	-49339.1	955.82	-29759.7	0.000000	0.000000	7.102499	19.8367	NaN	0.000000	0.001643	0.001715	28.0781	15.3392	0.001806	8494.28	6.035242	-175.848	19.2078	1.101311	0.013777	0.013429	19.8367	8494.28	0.012025	0.011520	1721.9	72305.1
214	2.000000	1.111612	7.36714e+06	-49339.1	955.819	-29759.7	0.000000	0.000000	7.113311	40.7348	NaN	0.000000	0.001655	0.001713	28.0793	23.7689	0.001768	13446.3	5.489746	-178.966	39.6445	1.111256	0.023730	0.023374	40.7348	13446.3	0.021458	0.024885	1636.9	77875.9
214	2.000000	1.121574	7.36714e+06	-49339.1	955.821	-29759.7	0.000000	0.000000	7.124448	69.2867	NaN	0.000000	0.001696	0.001722	28.0795	34.0746	0.001810	18825.4	5.513140	177.803	68.6494	1.121286	0.033693	0.033404	69.2867	18825.4	0.030932	0.042698	1622.72	83236.4
214	2.000000	1.131565	7.36714e+06	-49339.1	955.819	-29759.7	0.000000	0.000000	7.135778	101.857	NaN	0.000000	0.001639	0.001747	28.0794	43.8441	0.001837	23860.9	1.222845	-179.897	99.898	1.131312	0.043683	0.043431	101.857	23860.9	0.040482	0.065279	1560.33	85324.4
214	2.000000	1.141500	7.36714e+06	-49339.1	955.819	-29759.7	0.000000	0.000000	7.147734	151.022	NaN	0.000000	0.001664	0.001746	28.0788	52.6532	0.001826	28834.6	4.940359	174.624	147.542	1.141180	0.053618	0.053298	151.022	28834.6	0.049690	0.091457	1651.29	87112.2
214	2.000000	1.151536	7.36714e+06	-49339.1	955.82	-29759.7	0.000000	0.000000	7.159583	195.109	NaN	0.000000	0.001668	0.001740	28.0781	62.2348	0.001837	33873.3	3.758768	174.815	195.442	1.151309	0.063655	0.063427	195.109	33873.3	0.059335	0.123433	1580.69	88087.8
214	2.000000	1.161525	7.36715e+06	-49339.1	955.821	-29759.7	0.000000	0.000000	7.172272	260.789	NaN	0.000000	0.001643	0.001756	28.078	72.8453	0.001797	40544	4.420416	172.801	259.101	1.161180	0.073643	0.073299	260.789	40544	0.068819	0.159316	1636.93	92804.6
214	2.000000	1.171453	7.36715e+06	-49339.1	955.82	-29759.7	0.000000	0.000000	7.184860	325.461	NaN	0.000000	0.001672	0.001694	28.078	80.6635	0.001780	45327.9	1.837471	174.514	321.139	1.171288	0.083572	0.083406	325.461	45327.9	0.078187	0.198975	1635.69	92841
214	2.000000	1.181484	7.36715e+06	-49339.1	955.821	-29759.7	0.000000	0.000000	7.198276	407.794	NaN	0.000000	0.001651	0.001678	28.0793	90.8902	0.001803	50403	7.494320	169.281	406.59	1.181130	0.093602	0.093249	407.794	50403	0.087534	0.242640	1680.66	93486.4
214	2.000000	1.191550	7.36715e+06	-49339.1	955.82	-29759.7	0.000000	0.000000	7.211671	488.738	NaN	0.000000	0.001668	0.001689	28.0793	99.4694	0.001826	54481.7	4.905723	170.31	490.255	1.191203	0.103669	0.103321	488.738	54481.7	0.096941	0.290639	1681.6	92330.9
214	2.000000	1.192969	7.36715e+06	-49339.1	955.821	-29759.7	0.000000	0.000000	7.213758	505.007	NaN	0.000000	0.001653	0.001733	28.0795	99.7776	0.001727	57783.9	4.947414	-10.0652	499.647	1.192551	0.105087	0.104669	505.007	57783.9	0.098532	0.299160	1688.09	96522.5