Folder: unikorn_login/remote_trans/data/nanoindenter/0828-1/data/Data_2025-08-06,11h17m57s (part 87)

File: 2025-07-22_16-23-58_1_191.txt
2025-07-22, 16:23:58, 1
Index	Phase	Displacement	Time	Pos X	Pos Y	Pos Z	Rot A	Rot B	Piezo Z	Force A	Force B	Gripper	Voltage A	Voltage B	Temperature	Amplitude force	Amplitude pos	Stiffness	Phase shift	Phase excitation	Force A raw	Displacement raw	HMax	HMax raw	Real Force	Real Stiffness	Contact Depth	Area	Hardness	Reduced Mod.
[#]	[#]	[um]	[s]	[um]	[um]	[um]	[m°]	[m°]	[um]	[uN]	[uN]	[V]	[V]	[V]	[°C]	[uN]	[um]	[N/m]	[°]	[°]	[uN]	[um]	[um]	[um]	[uN]	[N/m]	[um]	[um^2]	[MPa]	[MPa]
191	1.000000	0.003176	7.36691e+06	-48189.1	955.818	-29763.7	0.000000	0.000000	6.002823	0.021631	NaN	0.000000	0.001670	0.001764	28.0791	0.068238	0.001029	66.3101	-22.2833	-164.944	-0.106829	0.001899	-1.091642	-1.092920	0.021631	66.3101	-1.091887	-3.900775E+14	-5.545381E-17	NaN
191	1.000000	0.045077	7.36691e+06	-48189.1	955.818	-29763.7	0.000000	0.000000	6.044723	0.031516	NaN	0.000000	0.001681	0.001694	28.079	0.107108	0.001923	55.6896	92.9736	14.3731	-0.084502	0.043809	-1.049742	-1.051010	0.031516	55.6896	-1.050167	-1.073133E+14	-2.936806E-16	NaN
191	1.000000	0.087130	7.36691e+06	-48189.1	955.817	-29763.7	0.000000	0.000000	6.086779	0.084768	NaN	0.000000	0.001672	0.001703	28.0787	0.037206	0.001853	20.0765	83.0084	-166.267	0.046097	0.085797	-1.007689	-1.009022	0.084768	20.0765	-1.010855	-3.176090E+13	-2.668931E-15	NaN
191	1.000000	0.129116	7.36691e+06	-48189.1	955.818	-29763.7	0.000000	0.000000	6.128762	0.027918	NaN	0.000000	0.001698	0.001690	28.0789	0.073254	0.002052	35.693	-105.629	17.4936	-0.029604	0.127782	-0.965703	-0.967036	0.027918	35.693	-0.966290	-7.973659E+12	-3.501281E-15	NaN
191	1.000000	0.171124	7.36691e+06	-48189.1	955.819	-29763.7	0.000000	0.000000	6.170770	0.011023	NaN	0.000000	0.001636	0.001729	28.0799	0.028923	0.001985	14.5722	-165.445	-165.341	-0.028057	0.169817	-0.923695	-0.925001	0.011023	14.5722	-0.924262	-2.161479E+12	-5.099886E-15	NaN
191	1.000000	0.213154	7.36691e+06	-48189.1	955.819	-29763.7	0.000000	0.000000	6.212802	0.061934	NaN	0.000000	0.001657	0.001711	28.0801	0.049290	0.001893	26.0445	107.034	13.5254	0.105913	0.211797	-0.881665	-0.883022	0.061934	26.0445	-0.883449	-6.072132E+11	-1.019966E-13	NaN
191	1.000000	0.255183	7.36691e+06	-48189.1	955.818	-29763.7	0.000000	0.000000	6.254832	0.082567	NaN	0.000000	0.001658	0.001734	28.0803	0.049795	0.002021	24.6393	162.802	-166.363	0.069725	0.253945	-0.839636	-0.840874	0.082567	24.6393	-0.842149	-1.676505E+11	-4.924957E-13	NaN
191	1.000000	0.297184	7.36691e+06	-48189.1	955.819	-29763.7	0.000000	0.000000	6.296830	0.024021	NaN	0.000000	0.001618	0.001781	28.0791	0.092005	0.002038	45.1341	-176.404	14.3448	0.071157	0.295865	-0.797635	-0.798954	0.024021	45.1341	-0.798034	-4.228430E+10	-5.680929E-13	NaN
191	1.000000	0.339224	7.36691e+06	-48189.1	955.819	-29763.7	0.000000	0.000000	6.338869	0.000722	NaN	0.000000	0.001622	0.001789	28.0787	0.145363	0.001972	73.7153	152.654	-165.135	-0.001243	0.337942	-0.755595	-0.756877	0.000722	73.7153	-0.755602	-1.120638E+10	-6.442453E-14	NaN
191	1.000000	0.381229	7.36691e+06	-48189.1	955.818	-29763.7	0.000000	0.000000	6.380875	0.016173	NaN	0.000000	0.001631	0.001777	28.0788	0.027143	0.002011	13.4962	-88.6975	17.5504	0.027087	0.379898	-0.713590	-0.714920	0.016173	13.4962	-0.714489	-3.085295E+9	-5.241811E-12	NaN
191	1.000000	0.423304	7.36691e+06	-48189.1	955.818	-29763.7	0.000000	0.000000	6.422950	0.015882	NaN	0.000000	0.001599	0.001754	28.0799	0.129407	0.002050	63.1289	145.698	-168.49	0.118153	0.421933	-0.671515	-0.672886	0.015882	63.1289	-0.671704	-8.029863E+8	-1.977817E-11	NaN
191	1.000000	0.465275	7.36691e+06	-48189.1	955.817	-29763.7	0.000000	0.000000	6.464924	0.078172	NaN	0.000000	0.001617	0.001776	28.0799	0.029897	0.001985	15.06	-27.3316	15.41	0.058151	0.463856	-0.629544	-0.630963	0.078172	15.06	-0.633437	-2.400021E+8	-3.257140E-10	NaN
191	1.000000	0.507300	7.36691e+06	-48189.1	955.817	-29763.7	0.000000	0.000000	6.506949	0.082632	NaN	0.000000	0.001619	0.001760	28.0802	0.110451	0.002019	54.7187	-61.9825	-164.129	0.103988	0.505961	-0.587519	-0.588858	0.082632	54.7187	-0.588651	-5.808612E+7	-1.422586E-9	NaN
191	1.000000	0.549329	7.36691e+06	-48189.1	955.818	-29763.7	0.000000	0.000000	6.548976	0.018065	NaN	0.000000	0.001618	0.001773	28.079	0.060895	0.002077	29.3196	122.783	15.9313	0.016492	0.547968	-0.545489	-0.546851	0.018065	29.3196	-0.545951	-1.492328E+7	-1.210507E-9	NaN
191	1.000000	0.591346	7.36691e+06	-48189.1	955.818	-29763.7	0.000000	0.000000	6.590993	0.041658	NaN	0.000000	0.001588	0.001784	28.0788	0.068309	0.002063	33.1069	-84.2876	-166.296	0.010901	0.590038	-0.503473	-0.504780	0.041658	33.1069	-0.504416	-3.95012e+06	-1.054611E-8	NaN
191	1.000000	0.633353	7.36691e+06	-48189.1	955.817	-29763.7	0.000000	0.000000	6.632997	-0.014279	NaN	0.000000	0.001615	0.001807	28.0788	0.061845	0.002054	30.1054	70.7155	13.7074	-0.021080	0.632023	-0.461466	-0.462796	-0.014279	30.1054	-0.461111	-978638	1.459022E-8	NaN
191	1.000000	0.675372	7.36691e+06	-48189.1	955.817	-29763.7	0.000000	0.000000	6.675024	0.136807	NaN	0.000000	0.001568	0.001802	28.0787	0.047875	0.001934	24.7568	-172.321	-162.283	0.078359	0.674056	-0.419446	-0.420763	0.136807	24.7568	-0.423591	-289281	-4.729215E-7	NaN
191	1.000000	0.717405	7.36691e+06	-48189.1	955.818	-29763.7	0.000000	0.000000	6.717054	0.075447	NaN	0.000000	0.001616	0.001745	28.0801	0.132592	0.001898	69.8749	-67.5374	16.7744	0.017351	0.716036	-0.377413	-0.378782	0.075447	69.8749	-0.378223	-65220.4	-1.156807E-6	NaN
191	1.000000	0.759399	7.36692e+06	-48189.1	955.818	-29763.7	0.000000	0.000000	6.759047	0.043763	NaN	0.000000	0.001619	0.001646	28.08	0.032970	0.002099	15.7042	154.876	-166.863	0.015304	0.758100	-0.335419	-0.336718	0.043763	15.7042	-0.337509	-16796.9	-2.605450E-6	NaN
191	1.000000	0.801438	7.36692e+06	-48189.1	955.818	-29763.7	0.000000	0.000000	6.801086	0.075853	NaN	0.000000	0.001614	0.001704	28.08	0.102697	0.001987	51.6783	0.409517	13.7861	0.141702	0.800040	-0.293381	-0.294778	0.075853	51.6783	-0.294482	-3893.6	-1.948145E-5	NaN
191	1.000000	0.843456	7.36692e+06	-48189.1	955.818	-29763.7	0.000000	0.000000	6.843100	-0.030810	NaN	0.000000	0.001559	0.001747	28.0788	0.120557	0.002059	58.5558	147.475	-164.95	0.009301	0.842164	-0.251363	-0.252654	-0.030810	58.5558	-0.250968	-851.011	3.620426E-5	NaN
191	1.000000	0.885485	7.36692e+06	-48189.1	955.818	-29763.7	0.000000	0.000000	6.885129	-0.020603	NaN	0.000000	0.001586	0.001698	28.0787	0.072742	0.001926	37.7635	163.485	13.0315	0.022813	0.884096	-0.209334	-0.210723	-0.020603	37.7635	-0.208925	-184.246	0.000112	NaN
191	1.000000	0.927483	7.36692e+06	-48189.1	955.818	-29763.7	0.000000	0.000000	6.927131	0.056708	NaN	0.000000	0.001591	0.001689	28.0787	0.015768	0.001988	7.932880	97.4373	-167.058	0.134312	0.926145	-0.167335	-0.168673	0.056708	7.932880	-0.172697	-45.7413	-0.001240	NaN
191	1.000000	0.969496	7.36692e+06	-48189.1	955.819	-29763.7	0.000000	0.000000	6.969140	-0.044640	NaN	0.000000	0.001620	0.001686	28.0801	0.060147	0.001873	32.1137	105.453	13.5755	0.009288	0.968153	-0.125322	-0.126666	-0.044640	32.1137	-0.124280	-5.884663	0.007586	NaN
191	1.000000	1.011515	7.36692e+06	-48189.1	955.818	-29763.7	0.000000	0.000000	7.011163	0.070254	NaN	0.000000	0.001555	0.001701	28.0802	0.064332	0.002031	31.6811	-5.483097	-165.494	-0.010624	1.010143	-0.083304	-0.084675	0.070254	31.6811	-0.084967	-0.820135	-0.085662	NaN
191	1.000000	1.053549	7.36692e+06	-48189.1	955.817	-29763.7	0.000000	0.000000	7.053192	-0.053982	NaN	0.000000	0.001641	0.001674	28.0795	0.131266	0.002009	65.3398	-79.9941	15.8797	0.092867	1.052203	-0.041270	-0.042616	-0.053982	65.3398	-0.040650	-0.047328	1.140585	NaN
191	1.000000	1.095534	7.36692e+06	-48189.1	955.818	-29763.7	0.000000	0.000000	7.095191	0.278094	NaN	0.000000	0.001629	0.001727	28.0784	0.451450	0.001957	230.697	14.4299	-169.388	-0.008811	1.094136	0.000715	-0.000683	0.278094	230.697	-0.000189	-0.000141	-1977.37	NaN
191	2.000000	1.112479	7.36692e+06	-48189.1	955.82	-29763.7	0.000000	0.000000	7.112953	20.1338	NaN	0.000000	0.001616	0.001697	28.0786	18.3052	0.001814	10092.2	5.561121	4.499271	18.5597	1.112182	0.017661	0.017363	20.1338	10092.2	0.016164	0.016869	1193.51	70992
191	2.000000	1.122986	7.36692e+06	-48189.1	955.818	-29763.7	0.000000	0.000000	7.124339	41.5291	NaN	0.000000	0.001609	0.001668	28.0785	28.4366	0.001876	15161.7	7.278111	-179.993	41.3834	1.122643	0.028167	0.027825	41.5291	15161.7	0.026113	0.033072	1255.73	76171.7
191	2.000000	1.133479	7.36692e+06	-48189.1	955.82	-29763.7	0.000000	0.000000	7.136063	71.4722	NaN	0.000000	0.001623	0.001744	28.0787	36.9631	0.001750	21124.3	5.764204	-1.612071	69.3381	1.133075	0.038660	0.038257	71.4722	21124.3	0.036123	0.054393	1314	82753.3
191	2.000000	1.143934	7.36692e+06	-48189.1	955.819	-29763.7	0.000000	0.000000	7.148042	108.531	NaN	0.000000	0.001574	0.001691	28.0798	48.2351	0.001624	29708.4	9.176835	170.781	107.426	1.143615	0.049116	0.048796	108.531	29708.4	0.046376	0.081541	1331	95052.5
191	2.000000	1.154411	7.36692e+06	-48189.1	955.82	-29763.7	0.000000	0.000000	7.160507	156.877	NaN	0.000000	0.001602	0.001727	28.0797	56.0047	0.001681	33311	3.548420	-3.719801	153.096	1.153974	0.059593	0.059155	156.877	33311	0.056061	0.112062	1399.9	90914.1
191	2.000000	1.164900	7.36692e+06	-48189.1	955.819	-29763.7	0.000000	0.000000	7.173331	213.696	NaN	0.000000	0.001567	0.001727	28.0796	66.5005	0.001719	38692.4	2.914803	176.361	211.075	1.164516	0.070081	0.069697	213.696	38692.4	0.065939	0.147961	1444.28	91902.3
191	2.000000	1.175331	7.36692e+06	-48189.1	955.82	-29763.7	0.000000	0.000000	7.186420	278.327	NaN	0.000000	0.001594	0.001728	28.0781	75.346	0.001753	42985.1	1.497413	-3.151195	272.494	1.175035	0.080513	0.080216	278.327	42985.1	0.075656	0.187855	1481.6	90610.8
191	2.000000	1.185852	7.36692e+06	-48189.1	955.819	-29763.7	0.000000	0.000000	7.199638	343.913	NaN	0.000000	0.001666	0.001711	28.0782	86.151	0.001813	47505.8	4.320153	172.678	340.572	1.185568	0.091033	0.090749	343.913	47505.8	0.085604	0.233291	1474.18	89861
191	2.000000	1.196378	7.36692e+06	-48189.1	955.819	-29763.7	0.000000	0.000000	7.213530	425.815	NaN	0.000000	0.001607	0.001730	28.0783	95.6531	0.001785	53574.8	6.486291	-10.0496	423.435	1.195925	0.101559	0.101106	425.815	53574.8	0.095598	0.283538	1501.79	91923.9
191	2.000000	1.202762	7.36692e+06	-48189.1	955.819	-29763.7	0.000000	0.000000	7.221765	470.808	NaN	0.000000	0.001627	0.001731	28.0784	102.534	0.001892	54202.6	1.894800	174.741	464.233	1.202524	0.107943	0.107705	470.808	54202.6	0.101429	0.314961	1494.81	88239.9

File: 2025-07-22_16-23-58_1_192.txt
2025-07-22, 16:23:58, 1
Index	Phase	Displacement	Time	Pos X	Pos Y	Pos Z	Rot A	Rot B	Piezo Z	Force A	Force B	Gripper	Voltage A	Voltage B	Temperature	Amplitude force	Amplitude pos	Stiffness	Phase shift	Phase excitation	Force A raw	Displacement raw	HMax	HMax raw	Real Force	Real Stiffness	Contact Depth	Area	Hardness	Reduced Mod.
[#]	[#]	[um]	[s]	[um]	[um]	[um]	[m°]	[m°]	[um]	[uN]	[uN]	[V]	[V]	[V]	[°C]	[uN]	[um]	[N/m]	[°]	[°]	[uN]	[um]	[um]	[um]	[uN]	[N/m]	[um]	[um^2]	[MPa]	[MPa]
192	1.000000	0.002706	7.36692e+06	-48239.1	955.819	-29763.6	0.000000	0.000000	6.002807	-0.030656	NaN	0.000000	0.001602	0.001696	28.0788	0.085097	0.000883	96.3903	172.522	-161.805	-0.053297	0.001439	-1.026540	-1.027807	-0.030656	96.3903	-1.026302	-5.125433E+13	5.981086E-16	NaN
192	1.000000	0.042648	7.36692e+06	-48239.1	955.818	-29763.6	0.000000	0.000000	6.042750	-0.021696	NaN	0.000000	0.001548	0.001712	28.0787	0.052711	0.001953	26.9894	-36.2943	-162.948	-0.007262	0.041405	-0.986598	-0.987840	-0.021696	26.9894	-0.985995	-1.469482E+13	1.476471E-15	NaN
192	1.000000	0.082663	7.36692e+06	-48239.1	955.818	-29763.6	0.000000	0.000000	6.082767	0.023828	NaN	0.000000	0.001627	0.001728	28.0784	0.076413	0.001883	40.5891	159.016	-165.563	0.002216	0.081331	-0.946583	-0.947915	0.023828	40.5891	-0.947023	-4.384040E+12	-5.435157E-15	NaN
192	1.000000	0.122691	7.36692e+06	-48239.1	955.818	-29763.6	0.000000	0.000000	6.122791	-0.058496	NaN	0.000000	0.001598	0.001682	28.0797	0.090008	0.002063	43.6225	74.9474	-166.043	-0.016367	0.121360	-0.906555	-0.907886	-0.058496	43.6225	-0.905549	-1.207919E+12	4.842670E-14	NaN
192	1.000000	0.162669	7.36692e+06	-48239.1	955.818	-29763.6	0.000000	0.000000	6.162770	-0.066183	NaN	0.000000	0.001568	0.001678	28.08	0.085319	0.002074	41.1418	-170.749	-164.349	-0.034476	0.161415	-0.866576	-0.867830	-0.066183	41.1418	-0.865370	-3.457739E+11	1.914054E-13	NaN
192	1.000000	0.202722	7.36692e+06	-48239.1	955.819	-29763.6	0.000000	0.000000	6.202823	-0.033437	NaN	0.000000	0.001642	0.001669	28.0797	0.112081	0.002113	53.0355	151.578	-167.32	-0.080627	0.201435	-0.826524	-0.827811	-0.033437	53.0355	-0.826051	-1.014507E+11	3.295880E-13	NaN
192	1.000000	0.242726	7.36692e+06	-48239.1	955.819	-29763.6	0.000000	0.000000	6.242828	-0.025082	NaN	0.000000	0.001587	0.001665	28.079	0.122224	0.002062	59.2727	152.945	-166.349	-0.015776	0.241425	-0.786519	-0.787821	-0.025082	59.2727	-0.786202	-2.920738E+10	8.587389E-13	NaN
192	1.000000	0.282729	7.36692e+06	-48239.1	955.818	-29763.6	0.000000	0.000000	6.282831	-0.028090	NaN	0.000000	0.001604	0.001680	28.0786	0.066373	0.002152	30.8458	-62.2323	-163.374	-0.089117	0.281464	-0.746516	-0.747782	-0.028090	30.8458	-0.745833	-8.250819E+9	3.404481E-12	NaN
192	1.000000	0.322747	7.36692e+06	-48239.1	955.818	-29763.6	0.000000	0.000000	6.322850	-0.000391	NaN	0.000000	0.001593	0.001650	28.0787	0.087318	0.001871	46.672	76.1475	-164.042	-0.028869	0.321446	-0.706499	-0.707800	-0.000391	46.672	-0.706492	-2.399803E+9	1.628249E-13	NaN
192	1.000000	0.362791	7.36692e+06	-48239.1	955.819	-29763.6	0.000000	0.000000	6.362892	-0.047731	NaN	0.000000	0.001596	0.001684	28.0786	0.093662	0.002099	44.6326	62.8802	-167.731	-0.041842	0.361485	-0.666454	-0.667761	-0.047731	44.6326	-0.665652	-6.635480E+8	7.193328E-11	NaN
192	1.000000	0.402783	7.36692e+06	-48239.1	955.818	-29763.6	0.000000	0.000000	6.402884	-0.043052	NaN	0.000000	0.001540	0.001659	28.08	0.124930	0.001995	62.611	51.6591	-167.171	-0.064683	0.401489	-0.626463	-0.627757	-0.043052	62.611	-0.625947	-1.893890E+8	2.273194E-10	NaN
192	1.000000	0.442811	7.36692e+06	-48239.1	955.819	-29763.6	0.000000	0.000000	6.442913	-0.017359	NaN	0.000000	0.001600	0.001683	28.08	0.023667	0.002083	11.3623	-126.294	-165.304	-0.049016	0.441472	-0.586434	-0.587773	-0.017359	11.3623	-0.585289	-5.220290E+7	3.325301E-10	NaN
192	1.000000	0.482840	7.36692e+06	-48239.1	955.818	-29763.6	0.000000	0.000000	6.482943	0.009646	NaN	0.000000	0.001592	0.001652	28.0802	0.072510	0.001960	36.9858	95.8594	-164.635	0.047887	0.481514	-0.546405	-0.547731	0.009646	36.9858	-0.546601	-1.523590E+7	-6.330863E-10	NaN
192	1.000000	0.522839	7.36692e+06	-48239.1	955.818	-29763.6	0.000000	0.000000	6.522944	0.050232	NaN	0.000000	0.001589	0.001655	28.079	0.090733	0.001930	47.0004	99.59	-166.516	0.074188	0.521515	-0.506407	-0.507730	0.050232	47.0004	-0.507208	-4.32038e+06	-1.162676E-8	NaN
192	1.000000	0.562848	7.36692e+06	-48239.1	955.819	-29763.6	0.000000	0.000000	6.562953	0.052234	NaN	0.000000	0.001566	0.001662	28.0791	0.048387	0.002014	24.0219	159.694	-167.22	0.012243	0.561501	-0.466398	-0.467745	0.052234	24.0219	-0.468028	-1.22391e+06	-4.267793E-8	NaN
192	1.000000	0.602897	7.36692e+06	-48239.1	955.819	-29763.6	0.000000	0.000000	6.602998	-0.032524	NaN	0.000000	0.001569	0.001634	28.0791	0.076835	0.001963	39.1359	-21.7036	-163.43	-0.005483	0.601580	-0.426349	-0.427666	-0.032524	39.1359	-0.425726	-310141	1.048689E-7	NaN
192	1.000000	0.642935	7.36692e+06	-48239.1	955.818	-29763.6	0.000000	0.000000	6.643036	-0.037304	NaN	0.000000	0.001571	0.001680	28.0799	0.065594	0.002016	32.5427	-156.364	-164.901	-0.041513	0.641573	-0.386311	-0.387673	-0.037304	32.5427	-0.385451	-82803.6	4.505146E-7	NaN
192	1.000000	0.682905	7.36692e+06	-48239.1	955.818	-29763.6	0.000000	0.000000	6.683006	-0.040463	NaN	0.000000	0.001577	0.001645	28.0799	0.110025	0.001953	56.3228	-145.428	-164.645	-0.019856	0.681565	-0.346341	-0.347680	-0.040463	56.3228	-0.345802	-22183.1	1.824033E-6	NaN
192	1.000000	0.722911	7.36692e+06	-48239.1	955.818	-29763.6	0.000000	0.000000	6.723013	-0.005434	NaN	0.000000	0.001576	0.001688	28.0798	0.148510	0.001946	76.3087	160.736	-164.514	-0.017743	0.721614	-0.306335	-0.307631	-0.005434	76.3087	-0.306281	-5833.99	9.314188E-7	NaN
192	1.000000	0.762952	7.36692e+06	-48239.1	955.818	-29763.6	0.000000	0.000000	6.763055	0.008459	NaN	0.000000	0.001629	0.001667	28.0796	0.039532	0.002024	19.5359	-103.314	-165.594	0.059596	0.761687	-0.266294	-0.267559	0.008459	19.5359	-0.266618	-1479.35	-5.717732E-6	NaN
192	1.000000	0.802971	7.36693e+06	-48239.1	955.819	-29763.6	0.000000	0.000000	6.803074	0.014462	NaN	0.000000	0.001632	0.001675	28.0786	0.107742	0.002038	52.8679	141.921	-164.175	0.015342	0.801651	-0.226275	-0.227594	0.014462	52.8679	-0.226480	-352.226	-4.105908E-5	NaN
192	1.000000	0.842997	7.36693e+06	-48239.1	955.818	-29763.6	0.000000	0.000000	6.843099	-0.017796	NaN	0.000000	0.001575	0.001692	28.0787	0.058302	0.002021	28.8517	-148.696	-165.384	0.033516	0.841658	-0.186249	-0.187588	-0.017796	28.8517	-0.185786	-76.4488	0.000233	NaN
192	1.000000	0.883001	7.36693e+06	-48239.1	955.818	-29763.6	0.000000	0.000000	6.883103	-0.008683	NaN	0.000000	0.001594	0.001693	28.0787	0.026592	0.002041	13.0318	22.5097	-166.357	0.011803	0.881701	-0.146245	-0.147544	-0.008683	13.0318	-0.145745	-15.1334	0.000574	NaN
192	1.000000	0.923019	7.36693e+06	-48239.1	955.818	-29763.6	0.000000	0.000000	6.923122	0.015445	NaN	0.000000	0.001582	0.001720	28.0799	0.090404	0.001864	48.496	141.983	-164.816	-0.026737	0.921753	-0.106227	-0.107492	0.015445	48.496	-0.106466	-2.527678	-0.006110	NaN
192	1.000000	0.963023	7.36693e+06	-48239.1	955.818	-29763.6	0.000000	0.000000	6.963128	0.062922	NaN	0.000000	0.001511	0.001699	28.0798	0.046936	0.001991	23.5767	-133.524	-164.509	0.034179	0.961767	-0.066223	-0.067479	0.062922	23.5767	-0.068224	-0.305507	-0.205960	NaN
192	1.000000	1.003038	7.36693e+06	-48239.1	955.819	-29763.6	0.000000	0.000000	7.003142	0.013329	NaN	0.000000	0.001532	0.001636	28.08	0.078013	0.001945	40.1007	70.4584	-165.889	0.050152	1.001741	-0.026207	-0.027504	0.013329	40.1007	-0.026457	-0.018429	-0.723231	NaN
192	1.000000	1.043031	7.36693e+06	-48239.1	955.82	-29763.6	0.000000	0.000000	7.043335	4.900717	NaN	0.000000	0.001614	0.001673	28.0801	5.663498	0.001820	3111.93	19.2657	-172.822	4.152265	1.041765	0.013785	0.012520	4.900717	3111.93	0.012604	0.012222	400.98	25717.9
192	2.000000	1.055612	7.36693e+06	-48239.1	955.82	-29763.6	0.000000	0.000000	7.056785	26.0225	NaN	0.000000	0.001714	0.001650	28.0797	19.2312	0.001646	11680.7	4.660933	-176.442	24.9898	1.055319	0.026366	0.026073	26.0225	11680.7	0.024695	0.030464	854.213	61143.7
192	2.000000	1.065564	7.36693e+06	-48239.1	955.819	-29763.6	0.000000	0.000000	7.067816	52.2595	NaN	0.000000	0.001638	0.001653	28.0802	29.5955	0.001803	16416	4.172847	-177.553	50.7375	1.065321	0.036319	0.036075	52.2595	16416	0.033931	0.049287	1060.31	67557.9
192	2.000000	1.075589	7.36693e+06	-48239.1	955.819	-29763.6	0.000000	0.000000	7.079202	85.3774	NaN	0.000000	0.001610	0.001704	28.0791	38.7897	0.001751	22147.4	3.162942	179.793	85.5573	1.075292	0.046343	0.046047	85.3774	22147.4	0.043452	0.073254	1165.5	74761.9
192	2.000000	1.085533	7.36693e+06	-48239.1	955.82	-29763.6	0.000000	0.000000	7.090703	123.263	NaN	0.000000	0.001614	0.001691	28.0803	49.998	0.001843	27125	6.144129	174.815	120.634	1.085280	0.056287	0.056034	123.263	27125	0.052879	0.101519	1214.19	77780.2
192	2.000000	1.095543	7.36693e+06	-48239.1	955.82	-29763.6	0.000000	0.000000	7.102864	175.581	NaN	0.000000	0.001602	0.001723	28.0802	58.1504	0.001832	31745.6	0.014541	179.946	173.215	1.095341	0.066297	0.066096	175.581	31745.6	0.062149	0.133627	1313.97	79343.2
192	2.000000	1.105507	7.36693e+06	-48239.1	955.819	-29763.6	0.000000	0.000000	7.115176	232.668	NaN	0.000000	0.001632	0.001729	28.0802	67.5265	0.001771	38135.5	3.893320	175.549	231.558	1.105222	0.076262	0.075976	232.668	38135.5	0.071686	0.171014	1360.52	84253.1
192	2.000000	1.115451	7.36693e+06	-48239.1	955.82	-29763.6	0.000000	0.000000	7.127684	295.016	NaN	0.000000	0.001697	0.001760	28.0792	77.2335	0.001912	40385.5	2.277222	176.012	290.6	1.115259	0.086206	0.086014	295.016	40385.5	0.080727	0.210440	1401.9	80433
192	2.000000	1.125575	7.36693e+06	-48239.1	955.819	-29763.6	0.000000	0.000000	7.140756	366.721	NaN	0.000000	0.001710	0.001760	28.0792	85.7659	0.001770	48450.5	7.362493	170.594	367.64	1.125145	0.096330	0.095900	366.721	48450.5	0.090653	0.258105	1420.82	87131.1
192	2.000000	1.135582	7.36693e+06	-48239.1	955.82	-29763.6	0.000000	0.000000	7.153420	431.365	NaN	0.000000	0.001630	0.001726	28.0792	94.9093	0.001771	53599.6	4.989833	171.763	434.821	1.135274	0.106336	0.106029	431.365	53599.6	0.100300	0.308760	1397.09	88130
192	2.000000	1.144958	7.36693e+06	-48239.1	955.819	-29763.6	0.000000	0.000000	7.166416	519.382	NaN	0.000000	0.001604	0.001715	28.0788	104.255	0.001766	59040.2	5.457297	-9.717376	514.748	1.144720	0.115713	0.115474	519.382	59040.2	0.109115	0.358744	1447.78	90059.4