Folder: unikorn_login/remote_trans/data/nanoindenter/0828-1/data/Data_2025-08-06,11h17m57s (part 70)

File: 2025-07-22_16-23-58_1_157.txt
2025-07-22, 16:23:58, 1
Index	Phase	Displacement	Time	Pos X	Pos Y	Pos Z	Rot A	Rot B	Piezo Z	Force A	Force B	Gripper	Voltage A	Voltage B	Temperature	Amplitude force	Amplitude pos	Stiffness	Phase shift	Phase excitation	Force A raw	Displacement raw	HMax	HMax raw	Real Force	Real Stiffness	Contact Depth	Area	Hardness	Reduced Mod.
[#]	[#]	[um]	[s]	[um]	[um]	[um]	[m°]	[m°]	[um]	[uN]	[uN]	[V]	[V]	[V]	[°C]	[uN]	[um]	[N/m]	[°]	[°]	[uN]	[um]	[um]	[um]	[uN]	[N/m]	[um]	[um^2]	[MPa]	[MPa]
157	1.000000	0.002767	7.36658e+06	-46489.1	955.818	-29769.4	0.000000	0.000000	6.002801	-0.048155	NaN	0.000000	0.001608	0.001686	28.13	0.081046	0.000853	95.053	1.816624	-168.689	0.049751	0.001527	-1.119874	-1.121113	-0.048155	95.053	-1.119494	-9.155526E+14	5.259687E-17	NaN
157	1.000000	0.044734	7.36658e+06	-46489.1	955.818	-29769.4	0.000000	0.000000	6.044766	-0.080951	NaN	0.000000	0.001608	0.001634	28.0944	0.059269	0.001902	31.1566	-131.856	13.3956	-0.022456	0.043325	-1.077907	-1.079316	-0.080951	31.1566	-1.075958	-2.383596E+14	3.396152E-16	NaN
157	1.000000	0.086748	7.36658e+06	-46489.1	955.818	-29769.4	0.000000	0.000000	6.086784	-0.010074	NaN	0.000000	0.001652	0.001728	28.0779	0.076664	0.002041	37.566	-152.574	-167.151	-0.036768	0.085456	-1.035892	-1.037185	-0.010074	37.566	-1.035691	-6.855280E+13	1.469580E-16	NaN
157	1.000000	0.128708	7.36658e+06	-46489.1	955.818	-29769.4	0.000000	0.000000	6.128742	-0.028174	NaN	0.000000	0.001628	0.001688	28.0927	0.124266	0.001945	63.8852	-172.937	14.0706	-0.040573	0.127384	-0.993933	-0.995256	-0.028174	63.8852	-0.993602	-1.860476E+13	1.514333E-15	NaN
157	1.000000	0.170766	7.36658e+06	-46489.1	955.819	-29769.4	0.000000	0.000000	6.170800	-0.040671	NaN	0.000000	0.001681	0.001707	28.129	0.059620	0.002158	27.63	177.795	-165.44	-0.052988	0.169455	-0.951875	-0.953186	-0.040671	27.63	-0.950771	-4.925195E+12	8.257669E-15	NaN
157	1.000000	0.212770	7.36658e+06	-46489.1	955.819	-29769.4	0.000000	0.000000	6.212803	-0.069399	NaN	0.000000	0.001697	0.001724	28.0966	0.069666	0.001926	36.1775	30.238	12.1719	-0.072612	0.211400	-0.909871	-0.911240	-0.069399	36.1775	-0.908432	-1.321259E+12	5.252519E-14	NaN
157	1.000000	0.254798	7.36658e+06	-46489.1	955.819	-29769.4	0.000000	0.000000	6.254832	-0.040723	NaN	0.000000	0.001712	0.001716	28.0792	0.067486	0.001996	33.8081	153.905	-167.303	0.026734	0.253472	-0.867843	-0.869168	-0.040723	33.8081	-0.866939	-3.631060E+11	1.121530E-13	NaN
157	1.000000	0.296788	7.36658e+06	-46489.1	955.819	-29769.4	0.000000	0.000000	6.296822	-0.050809	NaN	0.000000	0.001664	0.001723	28.094	0.091156	0.001850	49.2696	-166.01	12.3909	-0.008328	0.295492	-0.825853	-0.827149	-0.050809	49.2696	-0.825079	-9.841904E+10	5.162565E-13	NaN
157	1.000000	0.338866	7.36658e+06	-46489.1	955.818	-29769.4	0.000000	0.000000	6.338900	-0.045575	NaN	0.000000	0.001738	0.001719	28.1272	0.014884	0.002110	7.052615	-77.1012	-163.577	-0.036111	0.337534	-0.783775	-0.785107	-0.045575	7.052615	-0.778928	-2.326303E+10	1.959098E-12	NaN
157	1.000000	0.380862	7.36658e+06	-46489.1	955.818	-29769.4	0.000000	0.000000	6.380895	-0.062891	NaN	0.000000	0.001676	0.001680	28.0969	0.030251	0.001976	15.3065	-9.712749	13.493	-0.036893	0.379471	-0.741779	-0.743170	-0.062891	15.3065	-0.738697	-6.596435E+9	9.534062E-12	NaN
157	1.000000	0.422868	7.36658e+06	-46489.1	955.819	-29769.4	0.000000	0.000000	6.422904	0.003706	NaN	0.000000	0.001683	0.001685	28.0762	0.057922	0.002001	28.9474	83.6456	-168.959	0.045929	0.421639	-0.699773	-0.701002	0.003706	28.9474	-0.699869	-1.948662E+9	-1.901655E-12	NaN
157	1.000000	0.464900	7.36658e+06	-46489.1	955.819	-29769.4	0.000000	0.000000	6.464937	0.049033	NaN	0.000000	0.001669	0.001717	28.0944	0.058783	0.001941	30.2811	-52.6628	16.5635	0.039004	0.463578	-0.657741	-0.659062	0.049033	30.2811	-0.658956	-5.372341E+8	-9.127010E-11	NaN
157	1.000000	0.506870	7.36658e+06	-46489.1	955.818	-29769.4	0.000000	0.000000	6.506903	-0.088120	NaN	0.000000	0.001658	0.001704	28.1284	0.064009	0.001980	32.3301	145.995	-165.878	-0.066918	0.505577	-0.615770	-0.617064	-0.088120	32.3301	-0.613726	-1.286389E+8	6.850201E-10	NaN
157	1.000000	0.548930	7.36658e+06	-46489.1	955.819	-29769.4	0.000000	0.000000	6.548965	-0.027596	NaN	0.000000	0.001695	0.001722	28.0996	0.081868	0.002047	40.0011	12.1687	16.2393	-0.064414	0.547564	-0.573711	-0.575076	-0.027596	40.0011	-0.573193	-3.554222E+7	7.764314E-10	NaN
157	1.000000	0.590951	7.36658e+06	-46489.1	955.818	-29769.4	0.000000	0.000000	6.590981	-0.128865	NaN	0.000000	0.001684	0.001690	28.0766	0.071039	0.001946	36.4993	118.503	-165.094	-0.063505	0.589614	-0.531690	-0.533027	-0.128865	36.4993	-0.529042	-8.69507e+06	1.482043E-8	NaN
157	1.000000	0.632948	7.36658e+06	-46489.1	955.818	-29769.4	0.000000	0.000000	6.632983	-0.023034	NaN	0.000000	0.001646	0.001728	28.0925	0.096073	0.002081	46.1711	65.6344	11.9774	-0.026797	0.631583	-0.489693	-0.491057	-0.023034	46.1711	-0.489319	-2.43148e+06	9.473353E-9	NaN
157	1.000000	0.674995	7.36658e+06	-46489.1	955.819	-29769.4	0.000000	0.000000	6.675026	-0.122204	NaN	0.000000	0.001697	0.001698	28.1271	0.095179	0.002003	47.5076	47.6863	-167.727	-0.039422	0.673679	-0.447646	-0.448961	-0.122204	47.5076	-0.445716	-594279	2.056338E-7	NaN
157	1.000000	0.716994	7.36658e+06	-46489.1	955.818	-29769.4	0.000000	0.000000	6.717028	-0.043434	NaN	0.000000	0.001630	0.001729	28.0995	0.083698	0.001981	42.2512	112.883	14.4305	-0.049833	0.715609	-0.405647	-0.407031	-0.043434	42.2512	-0.404876	-156847	2.769204E-7	NaN
157	1.000000	0.759021	7.36658e+06	-46489.1	955.818	-29769.4	0.000000	0.000000	6.759057	0.000796	NaN	0.000000	0.001700	0.001695	28.0782	0.046587	0.001904	24.4655	45.9749	-167.497	0.014565	0.757729	-0.363620	-0.364912	0.000796	24.4655	-0.363644	-40224.4	-1.978387E-8	NaN
157	1.000000	0.801050	7.36658e+06	-46489.1	955.819	-29769.4	0.000000	0.000000	6.801085	-0.020560	NaN	0.000000	0.001670	0.001725	28.0924	0.059096	0.001957	30.1999	33.7575	15.7453	-0.016612	0.799691	-0.321591	-0.322949	-0.020560	30.1999	-0.321080	-9650.14	2.130565E-6	NaN
157	1.000000	0.843048	7.36658e+06	-46489.1	955.818	-29769.4	0.000000	0.000000	6.843085	0.005632	NaN	0.000000	0.001660	0.001691	28.1281	0.026997	0.002017	13.384	-25.2195	-164.872	-0.034488	0.841768	-0.279592	-0.280873	0.005632	13.384	-0.279908	-2352.78	-2.393770E-6	NaN
157	1.000000	0.885086	7.36658e+06	-46489.1	955.818	-29769.4	0.000000	0.000000	6.885119	-0.079590	NaN	0.000000	0.001608	0.001683	28.1	0.076477	0.002025	37.7706	-126.461	12.2236	-0.064475	0.883718	-0.237554	-0.238922	-0.079590	37.7706	-0.235974	-497.203	0.000160	NaN
157	1.000000	0.927076	7.36658e+06	-46489.1	955.818	-29769.4	0.000000	0.000000	6.927115	0.055515	NaN	0.000000	0.001637	0.001709	28.0756	0.198909	0.002026	98.1881	35.7232	-168.267	-0.038112	0.925789	-0.195564	-0.196852	0.055515	98.1881	-0.195988	-113.126	-0.000491	NaN
157	1.000000	0.969105	7.36658e+06	-46489.1	955.819	-29769.4	0.000000	0.000000	6.969140	-0.029791	NaN	0.000000	0.001634	0.001695	28.0909	0.103949	0.001911	54.4068	-71.5493	15.3706	-0.046972	0.967778	-0.153536	-0.154863	-0.029791	54.4068	-0.153125	-20.6422	0.001443	NaN
157	1.000000	1.011123	7.36658e+06	-46489.1	955.819	-29769.4	0.000000	0.000000	7.011159	-0.015502	NaN	0.000000	0.001675	0.001730	28.1279	0.047467	0.001993	23.812	42.6501	-165.257	-0.017109	1.009780	-0.111517	-0.112861	-0.015502	23.812	-0.111029	-3.158796	0.004908	NaN
157	1.000000	1.053129	7.36658e+06	-46489.1	955.818	-29769.4	0.000000	0.000000	7.053161	-0.081578	NaN	0.000000	0.001654	0.001695	28.102	0.078157	0.002052	38.0886	63.1684	11.9958	-0.054475	1.051796	-0.069512	-0.070845	-0.081578	38.0886	-0.067906	-0.299482	0.272396	NaN
157	1.000000	1.095178	7.36658e+06	-46489.1	955.819	-29769.4	0.000000	0.000000	7.095211	-0.067770	NaN	0.000000	0.001582	0.001710	28.0788	0.064615	0.001940	33.3027	11.4193	-166.102	-0.087395	1.093808	-0.027463	-0.028833	-0.067770	33.3027	-0.025936	-0.017853	3.795885	NaN
157	2.000000	1.133231	7.36658e+06	-46489.1	955.819	-29769.4	0.000000	0.000000	7.133686	10.2116	NaN	0.000000	0.001635	0.001700	28.0897	10.2324	0.001738	5886.65	8.134251	6.538716	9.638549	1.132912	0.010590	0.010271	10.2116	5886.65	0.009289	0.008402	1215.4	58675.1
157	2.000000	1.143625	7.36658e+06	-46489.1	955.82	-29769.4	0.000000	0.000000	7.144818	28.1623	NaN	0.000000	0.001629	0.001682	28.1278	20.4914	0.001692	12107.5	4.028523	-177.171	27.4889	1.143302	0.020984	0.020662	28.1623	12107.5	0.019239	0.021361	1318.4	75686.4
157	2.000000	1.154070	7.36658e+06	-46489.1	955.821	-29769.4	0.000000	0.000000	7.156136	49.3877	NaN	0.000000	0.001645	0.001696	28.1011	30.6822	0.001781	17232.3	4.803074	-0.076475	47.4042	1.153797	0.031429	0.031156	49.3877	17232.3	0.029279	0.039263	1257.85	79455.1
157	2.000000	1.164570	7.36658e+06	-46489.1	955.82	-29769.4	0.000000	0.000000	7.167872	79.4447	NaN	0.000000	0.001655	0.001754	28.0785	41.0369	0.001780	23058.5	7.370538	175.822	78.3994	1.164298	0.041929	0.041657	79.4447	23058.5	0.039345	0.062347	1274.23	84371.6
157	2.000000	1.175051	7.36658e+06	-46489.1	955.82	-29769.4	0.000000	0.000000	7.180032	120.285	NaN	0.000000	0.001689	0.001774	28.0892	49.7253	0.001820	27327.2	4.709963	-3.046873	117.865	1.174665	0.052411	0.052024	120.285	27327.2	0.049109	0.089680	1341.27	83372
157	2.000000	1.185547	7.36658e+06	-46489.1	955.819	-29769.4	0.000000	0.000000	7.192432	166.601	NaN	0.000000	0.001668	0.001749	28.1287	59.9522	0.001845	32501.7	4.252062	176.395	164.924	1.185234	0.062906	0.062593	166.601	32501.7	0.059062	0.122466	1360.39	84853.8
157	2.000000	1.196043	7.36658e+06	-46489.1	955.819	-29769.4	0.000000	0.000000	7.205417	227.149	NaN	0.000000	0.001642	0.001674	28.1027	69.6306	0.001811	38448.2	3.717457	-4.155495	224.99	1.195699	0.073402	0.073059	227.149	38448.2	0.068971	0.159928	1420.32	87838.9
157	2.000000	1.206526	7.36658e+06	-46489.1	955.82	-29769.4	0.000000	0.000000	7.218368	287.171	NaN	0.000000	0.001647	0.001712	28.0791	78.6674	0.001829	43010.2	8.113731	170.525	285.397	1.206173	0.083885	0.083532	287.171	43010.2	0.078878	0.202065	1421.18	87417.6
157	2.000000	1.216957	7.36658e+06	-46489.1	955.821	-29769.4	0.000000	0.000000	7.231596	355.227	NaN	0.000000	0.001671	0.001694	28.087	87.5672	0.001751	50017.9	2.415574	-5.440112	350.585	1.216723	0.094316	0.094082	355.227	50017.9	0.088990	0.249801	1422.04	91432.7
157	2.000000	1.227472	7.36658e+06	-46489.1	955.82	-29769.4	0.000000	0.000000	7.245444	436.298	NaN	0.000000	0.001670	0.001665	28.127	97.4148	0.001743	55889.8	6.956537	169.458	432.884	1.227152	0.104831	0.104511	436.298	55889.8	0.098976	0.301557	1446.82	92986.8
157	2.000000	1.230440	7.36658e+06	-46489.1	955.82	-29769.4	0.000000	0.000000	7.249318	458.323	NaN	0.000000	0.001648	0.001679	28.0779	100.466	0.001855	54167.3	5.260997	171.509	454.277	1.230108	0.107800	0.107467	458.323	54167.3	0.101454	0.315099	1454.54	88163

File: 2025-07-22_16-23-58_1_158.txt
2025-07-22, 16:23:58, 1
Index	Phase	Displacement	Time	Pos X	Pos Y	Pos Z	Rot A	Rot B	Piezo Z	Force A	Force B	Gripper	Voltage A	Voltage B	Temperature	Amplitude force	Amplitude pos	Stiffness	Phase shift	Phase excitation	Force A raw	Displacement raw	HMax	HMax raw	Real Force	Real Stiffness	Contact Depth	Area	Hardness	Reduced Mod.
[#]	[#]	[um]	[s]	[um]	[um]	[um]	[m°]	[m°]	[um]	[uN]	[uN]	[V]	[V]	[V]	[°C]	[uN]	[um]	[N/m]	[°]	[°]	[uN]	[um]	[um]	[um]	[uN]	[N/m]	[um]	[um^2]	[MPa]	[MPa]
158	1.000000	0.002687	7.36659e+06	-46539.1	955.818	-29769.3	0.000000	0.000000	6.002820	-0.076607	NaN	0.000000	0.001674	0.001713	28.0889	0.070325	0.000956	73.5711	131.049	-162.671	-0.049679	0.001414	-1.053634	-1.054907	-0.076607	73.5711	-1.052853	-1.166193E+14	6.568983E-16	NaN
158	1.000000	0.042633	7.36659e+06	-46539.1	955.819	-29769.3	0.000000	0.000000	6.042767	-0.050108	NaN	0.000000	0.001612	0.001717	28.0894	0.042343	0.001918	22.0717	25.5566	-160.649	0.085591	0.041297	-1.013689	-1.015025	-0.050108	22.0717	-1.011986	-3.289371E+13	1.523339E-15	NaN
158	1.000000	0.082596	7.36659e+06	-46539.1	955.819	-29769.3	0.000000	0.000000	6.082731	-0.018142	NaN	0.000000	0.001632	0.001790	28.0895	0.043251	0.002105	20.5449	-78.4931	-160.786	0.031762	0.081284	-0.973726	-0.975037	-0.018142	20.5449	-0.973064	-9.839067E+12	1.843914E-15	NaN
158	1.000000	0.122677	7.36659e+06	-46539.1	955.819	-29769.3	0.000000	0.000000	6.122812	-0.010209	NaN	0.000000	0.001649	0.001737	28.0903	0.076716	0.002054	37.3407	93.8862	-164.193	0.022780	0.121321	-0.933645	-0.935001	-0.010209	37.3407	-0.933440	-2.874903E+12	3.551157E-15	NaN
158	1.000000	0.162638	7.36659e+06	-46539.1	955.819	-29769.3	0.000000	0.000000	6.162776	0.042286	NaN	0.000000	0.001615	0.001736	28.0902	0.041429	0.001949	21.2569	-137.945	-165.274	-0.000945	0.161370	-0.893684	-0.894951	0.042286	21.2569	-0.895176	-8.747356E+11	-4.834203E-14	NaN
158	1.000000	0.202653	7.36659e+06	-46539.1	955.819	-29769.3	0.000000	0.000000	6.202791	0.039348	NaN	0.000000	0.001634	0.001766	28.0917	0.136954	0.002017	67.8889	-101.733	-161.726	-0.006750	0.201360	-0.853669	-0.854961	0.039348	67.8889	-0.854104	-2.433889E+11	-1.616667E-13	NaN
158	1.000000	0.242701	7.36659e+06	-46539.1	955.819	-29769.3	0.000000	0.000000	6.242837	-0.002171	NaN	0.000000	0.001648	0.001673	28.0891	0.032213	0.002025	15.9096	2.921412	-164.083	0.100058	0.241389	-0.813620	-0.814933	-0.002171	15.9096	-0.813518	-6.859593E+10	3.165016E-14	NaN
158	1.000000	0.282718	7.36659e+06	-46539.1	955.819	-29769.3	0.000000	0.000000	6.282854	0.009027	NaN	0.000000	0.001641	0.001704	28.0899	0.086028	0.001889	45.5526	136.265	-164.999	0.031202	0.281404	-0.773604	-0.774918	0.009027	45.5526	-0.773753	-1.978446E+10	-4.562599E-13	NaN
158	1.000000	0.322720	7.36659e+06	-46539.1	955.818	-29769.3	0.000000	0.000000	6.322857	0.015055	NaN	0.000000	0.001612	0.001676	28.0873	0.026755	0.002061	12.9846	146.413	-162.869	0.009235	0.321486	-0.733601	-0.734835	0.015055	12.9846	-0.734471	-5.777409E+9	-2.605898E-12	NaN
158	1.000000	0.362716	7.36659e+06	-46539.1	955.818	-29769.3	0.000000	0.000000	6.362854	0.038432	NaN	0.000000	0.001626	0.001691	28.0892	0.062423	0.001951	31.9913	19.2262	-161.001	0.031374	0.361425	-0.693605	-0.694897	0.038432	31.9913	-0.694506	-1.646235E+9	-2.334518E-11	NaN
158	1.000000	0.402756	7.36659e+06	-46539.1	955.818	-29769.3	0.000000	0.000000	6.402894	0.047172	NaN	0.000000	0.001588	0.001675	28.0878	0.054902	0.001971	27.851	88.789	-164.78	0.076423	0.401452	-0.653566	-0.654870	0.047172	27.851	-0.654836	-4.717614E+8	-9.999179E-11	NaN
158	1.000000	0.442761	7.36659e+06	-46539.1	955.818	-29769.3	0.000000	0.000000	6.442897	-0.022772	NaN	0.000000	0.001642	0.001686	28.0897	0.021199	0.001966	10.7803	70.2753	-166.096	-0.081889	0.441474	-0.613560	-0.614848	-0.022772	10.7803	-0.611976	-1.217027E+8	1.871107E-10	NaN
158	1.000000	0.482824	7.36659e+06	-46539.1	955.818	-29769.3	0.000000	0.000000	6.482962	0.035483	NaN	0.000000	0.001628	0.001726	28.0888	0.027525	0.002018	13.6406	46.7713	-161.657	0.051351	0.481526	-0.573497	-0.574796	0.035483	13.6406	-0.575448	-3.818477E+7	-9.292486E-10	NaN
158	1.000000	0.522823	7.36659e+06	-46539.1	955.819	-29769.3	0.000000	0.000000	6.522959	-0.015567	NaN	0.000000	0.001643	0.001693	28.0887	0.096379	0.001964	49.0613	87.5343	-167.523	0.065945	0.521508	-0.533499	-0.534813	-0.015567	49.0613	-0.533261	-9.95062e+06	1.564376E-9	NaN
158	1.000000	0.562840	7.36659e+06	-46539.1	955.818	-29769.3	0.000000	0.000000	6.562976	0.004723	NaN	0.000000	0.001648	0.001701	28.0863	0.063365	0.001954	32.4316	-98.0283	-164.141	0.022894	0.561552	-0.493482	-0.494770	0.004723	32.4316	-0.493591	-2.78973e+06	-1.692900E-9	NaN
158	1.000000	0.602867	7.36659e+06	-46539.1	955.818	-29769.3	0.000000	0.000000	6.603003	0.000167	NaN	0.000000	0.001642	0.001733	28.0873	0.038669	0.001981	19.5171	-25.4326	-164.596	-0.071800	0.601571	-0.453455	-0.454750	0.000167	19.5171	-0.453462	-763961	-2.191419E-10	NaN
158	1.000000	0.642875	7.36659e+06	-46539.1	955.819	-29769.3	0.000000	0.000000	6.643010	-0.027935	NaN	0.000000	0.001662	0.001689	28.0868	0.076787	0.001953	39.3124	-14.4478	-167.123	-0.063919	0.641550	-0.413447	-0.414771	-0.027935	39.3124	-0.412914	-204092	1.368740E-7	NaN
158	1.000000	0.682907	7.36659e+06	-46539.1	955.819	-29769.3	0.000000	0.000000	6.683041	-0.033245	NaN	0.000000	0.001677	0.001677	28.0881	0.027325	0.001884	14.5067	-92.1735	-165.27	0.017152	0.681567	-0.373415	-0.374755	-0.033245	14.5067	-0.371696	-52547.4	6.326614E-7	NaN
158	1.000000	0.722915	7.36659e+06	-46539.1	955.82	-29769.3	0.000000	0.000000	6.723050	-0.027803	NaN	0.000000	0.001675	0.001715	28.0877	0.048435	0.001986	24.3835	-138.217	-168.769	-0.002978	0.721584	-0.333407	-0.334738	-0.027803	24.3835	-0.332552	-14216.6	1.955691E-6	NaN
158	1.000000	0.762900	7.36659e+06	-46539.1	955.819	-29769.3	0.000000	0.000000	6.763034	-0.037442	NaN	0.000000	0.001703	0.001689	28.0886	0.046668	0.001900	24.5684	153.877	-165.998	0.034085	0.761600	-0.293422	-0.294721	-0.037442	24.5684	-0.292279	-3609.3	1.037374E-5	NaN
158	1.000000	0.802949	7.36659e+06	-46539.1	955.819	-29769.3	0.000000	0.000000	6.803085	-0.002018	NaN	0.000000	0.001630	0.001648	28.0875	0.086268	0.002088	41.3178	128.97	-169.365	0.000696	0.801632	-0.253373	-0.254690	-0.002018	41.3178	-0.253336	-925.724	2.179758E-6	NaN
158	1.000000	0.842955	7.36659e+06	-46539.1	955.818	-29769.3	0.000000	0.000000	6.843089	-0.050595	NaN	0.000000	0.001689	0.001685	28.0874	0.020444	0.001996	10.2422	119.634	-166.206	-0.069073	0.841627	-0.213367	-0.214695	-0.050595	10.2422	-0.209662	-189.384	0.000267	NaN
158	1.000000	0.882970	7.36659e+06	-46539.1	955.82	-29769.3	0.000000	0.000000	6.883106	-0.003234	NaN	0.000000	0.001652	0.001663	28.0861	0.073495	0.002072	35.4789	-174.962	-165.046	0.035501	0.881643	-0.173352	-0.174679	-0.003234	35.4789	-0.173283	-46.8199	6.907852E-5	NaN
158	1.000000	0.922989	7.36659e+06	-46539.1	955.818	-29769.3	0.000000	0.000000	6.923124	-0.039358	NaN	0.000000	0.001652	0.001684	28.0874	0.134449	0.002020	66.5658	40.493	-170.256	-0.001936	0.921641	-0.133333	-0.134681	-0.039358	66.5658	-0.132889	-8.666664	0.004541	NaN
158	1.000000	0.962991	7.36659e+06	-46539.1	955.819	-29769.3	0.000000	0.000000	6.963128	0.017245	NaN	0.000000	0.001633	0.001660	28.0867	0.064328	0.002002	32.1366	93.7501	-160.258	0.001595	0.961714	-0.093331	-0.094608	0.017245	32.1366	-0.093733	-1.319619	-0.013068	NaN
158	1.000000	1.003032	7.36659e+06	-46539.1	955.82	-29769.3	0.000000	0.000000	7.003169	0.015070	NaN	0.000000	0.001613	0.001681	28.0875	0.162246	0.001869	86.7981	-68.5548	-168.518	0.050788	1.001733	-0.053290	-0.054588	0.015070	86.7981	-0.053420	-0.115599	-0.130366	NaN
158	1.000000	1.043031	7.36659e+06	-46539.1	955.82	-29769.3	0.000000	0.000000	7.043166	-0.028516	NaN	0.000000	0.001634	0.001696	28.0862	0.080073	0.002041	39.2359	-37.3901	-165.185	-0.031280	1.041737	-0.013291	-0.014584	-0.028516	39.2359	-0.012746	-0.007956	3.584168	NaN
158	2.000000	1.070555	7.36659e+06	-46539.1	955.819	-29769.3	0.000000	0.000000	7.071310	15.0454	NaN	0.000000	0.001650	0.001695	28.0867	14.4476	0.001823	7927.34	5.826207	-175.378	14.0378	1.070274	0.014234	0.013953	15.0454	7927.34	0.012810	0.012475	1206.04	64845.4
158	2.000000	1.080494	7.36659e+06	-46539.1	955.82	-29769.3	0.000000	0.000000	7.082086	35.416	NaN	0.000000	0.001657	0.001642	28.0848	24.6392	0.001949	12644.7	7.197439	-177.896	35.1164	1.080211	0.024172	0.023890	35.416	12644.7	0.022072	0.025903	1367.28	71780.9
158	2.000000	1.090460	7.36659e+06	-46539.1	955.819	-29769.3	0.000000	0.000000	7.093462	69.7014	NaN	0.000000	0.001629	0.001688	28.0856	36.013	0.001707	21093	4.915006	177.604	70.4894	1.090179	0.034139	0.033857	69.7014	21093	0.031660	0.044255	1574.99	91607
158	2.000000	1.100462	7.36659e+06	-46539.1	955.82	-29769.3	0.000000	0.000000	7.105171	111.224	NaN	0.000000	0.001646	0.001657	28.085	46.6113	0.001805	25826.5	3.611739	176.948	110.375	1.100124	0.044141	0.043803	111.224	25826.5	0.040911	0.066403	1674.98	91568
158	2.000000	1.110424	7.36659e+06	-46539.1	955.82	-29769.3	0.000000	0.000000	7.116979	156.132	NaN	0.000000	0.001631	0.001653	28.087	56.4471	0.001732	32591.1	0.028767	178.305	154.126	1.110248	0.054102	0.053926	156.132	32591.1	0.050509	0.093993	1661.11	97123.6
158	2.000000	1.120379	7.36659e+06	-46539.1	955.82	-29769.3	0.000000	0.000000	7.129646	222.106	NaN	0.000000	0.001623	0.001706	28.085	66.0282	0.001750	37734.3	3.073037	174.523	218.673	1.120137	0.064057	0.063815	222.106	37734.3	0.059643	0.124530	1783.55	97695.2
158	2.000000	1.130447	7.36659e+06	-46539.1	955.82	-29769.3	0.000000	0.000000	7.142406	287.575	NaN	0.000000	0.001679	0.001697	28.0868	77.964	0.001907	40882.1	6.623220	170.758	290.057	1.130157	0.074125	0.073835	287.575	40882.1	0.068850	0.159440	1803.66	93542.4
158	2.000000	1.140327	7.36659e+06	-46539.1	955.819	-29769.3	0.000000	0.000000	7.155345	361.99	NaN	0.000000	0.001643	0.001712	28.0841	85.6576	0.001827	46880.7	3.827248	172.292	357.091	1.140118	0.084005	0.083796	361.99	46880.7	0.078214	0.199097	1818.16	95992
158	2.000000	1.150384	7.36659e+06	-46539.1	955.82	-29769.3	0.000000	0.000000	7.168890	446.839	NaN	0.000000	0.001687	0.001723	28.0849	94.6883	0.001720	55036.1	8.213057	168.044	446.02	1.149916	0.094062	0.093595	446.839	55036.1	0.087973	0.244788	1825.41	101631
158	2.000000	1.160313	7.36659e+06	-46539.1	955.819	-29769.3	0.000000	0.000000	7.182451	535.196	NaN	0.000000	0.001636	0.001740	28.0839	104.548	0.001704	61368	3.799281	170.662	530.605	1.160062	0.103991	0.103740	535.196	61368	0.097451	0.293355	1824.4	103519
158	2.000000	1.164899	7.36659e+06	-46539.1	955.821	-29769.3	0.000000	0.000000	7.188267	565.093	NaN	0.000000	0.001670	0.001685	28.1222	108.65	0.001799	60392.6	2.751074	-7.797054	565.399	1.164660	0.108577	0.108338	565.093	60392.6	0.101560	0.315686	1790.05	98204.2