Folder: unikorn_login/remote_trans/data/nanoindenter/0828-1/data/Data_2025-08-06,11h17m57s (part 76)

File: 2025-07-22_16-23-58_1_169.txt
2025-07-22, 16:23:58, 1
Index	Phase	Displacement	Time	Pos X	Pos Y	Pos Z	Rot A	Rot B	Piezo Z	Force A	Force B	Gripper	Voltage A	Voltage B	Temperature	Amplitude force	Amplitude pos	Stiffness	Phase shift	Phase excitation	Force A raw	Displacement raw	HMax	HMax raw	Real Force	Real Stiffness	Contact Depth	Area	Hardness	Reduced Mod.
[#]	[#]	[um]	[s]	[um]	[um]	[um]	[m°]	[m°]	[um]	[uN]	[uN]	[V]	[V]	[V]	[°C]	[uN]	[um]	[N/m]	[°]	[°]	[uN]	[um]	[um]	[um]	[uN]	[N/m]	[um]	[um^2]	[MPa]	[MPa]
169	1.000000	0.002518	7.36669e+06	-47089.1	955.818	-29767.5	0.000000	0.000000	6.002834	0.046699	NaN	0.000000	0.001677	0.001763	28.1288	0.112616	0.000974	115.651	-52.7796	-168.429	-0.039581	0.001234	-1.089115	-1.090398	0.046699	115.651	-1.089417	-3.614017E+14	-1.292151E-16	NaN
169	1.000000	0.044422	7.36669e+06	-47089.1	955.819	-29767.5	0.000000	0.000000	6.044736	-0.015750	NaN	0.000000	0.001713	0.001733	28.0868	0.045295	0.001978	22.8996	86.7877	14.6917	0.015323	0.043070	-1.047211	-1.048562	-0.015750	22.8996	-1.046695	-9.637879E+13	1.634222E-16	NaN
169	1.000000	0.086430	7.36669e+06	-47089.1	955.82	-29767.5	0.000000	0.000000	6.086750	0.119951	NaN	0.000000	0.001731	0.001751	28.0804	0.042865	0.001952	21.9583	52.4203	-165.499	0.106329	0.085120	-1.005202	-1.006512	0.119951	21.9583	-1.009299	-3.026564E+13	-3.963264E-15	NaN
169	1.000000	0.128458	7.36669e+06	-47089.1	955.819	-29767.5	0.000000	0.000000	6.128777	0.117936	NaN	0.000000	0.001713	0.001776	28.1109	0.110124	0.001935	56.9072	1.241858	13.7033	0.094706	0.127107	-0.963175	-0.964525	0.117936	56.9072	-0.964729	-7.596600E+12	-1.552484E-14	NaN
169	1.000000	0.170453	7.36669e+06	-47089.1	955.819	-29767.5	0.000000	0.000000	6.170770	0.057941	NaN	0.000000	0.001746	0.001732	28.1284	0.120905	0.002095	57.7047	38.7137	-167.177	0.024664	0.169157	-0.921180	-0.922475	0.057941	57.7047	-0.921933	-2.010478E+12	-2.881958E-14	NaN
169	1.000000	0.212485	7.36669e+06	-47089.1	955.818	-29767.5	0.000000	0.000000	6.212799	-0.018478	NaN	0.000000	0.001732	0.001789	28.0894	0.017113	0.002003	8.542323	-20.9188	12.6048	0.000624	0.211147	-0.879148	-0.880485	-0.018478	8.542323	-0.877525	-5.049399E+11	3.659510E-14	NaN
169	1.000000	0.254526	7.36669e+06	-47089.1	955.819	-29767.5	0.000000	0.000000	6.254843	0.046011	NaN	0.000000	0.001742	0.001754	28.0822	0.065829	0.002010	32.7504	-141.418	-164.883	0.058773	0.253197	-0.837106	-0.838435	0.046011	32.7504	-0.838160	-1.480333E+11	-3.108129E-13	NaN
169	1.000000	0.296536	7.36669e+06	-47089.1	955.819	-29767.5	0.000000	0.000000	6.296851	0.002974	NaN	0.000000	0.001674	0.001789	28.1098	0.100977	0.002122	47.5809	170.303	13.3039	-0.020697	0.295155	-0.795096	-0.796477	0.002974	47.5809	-0.795143	-3.862999E+10	-7.698447E-14	NaN
169	1.000000	0.338545	7.36669e+06	-47089.1	955.819	-29767.5	0.000000	0.000000	6.338862	0.067968	NaN	0.000000	0.001717	0.001776	28.1283	0.082880	0.001897	43.6892	-113.971	-167.074	0.101773	0.337288	-0.753088	-0.754344	0.067968	43.6892	-0.754254	-1.074298E+10	-6.326779E-12	NaN
169	1.000000	0.380592	7.36669e+06	-47089.1	955.819	-29767.5	0.000000	0.000000	6.380908	0.027708	NaN	0.000000	0.001650	0.001753	28.0892	0.171295	0.002016	84.9608	-38.5469	12.474	0.101218	0.379240	-0.711041	-0.712393	0.027708	84.9608	-0.711285	-2.789891E+9	-9.931604E-12	NaN
169	1.000000	0.422576	7.36669e+06	-47089.1	955.819	-29767.5	0.000000	0.000000	6.422891	-0.003541	NaN	0.000000	0.001686	0.001775	28.0798	0.061801	0.002011	30.7327	152.052	-167.751	0.098397	0.421337	-0.669056	-0.670295	-0.003541	30.7327	-0.668970	-7.366974E+8	4.806540E-12	NaN
169	1.000000	0.464584	7.36669e+06	-47089.1	955.818	-29767.5	0.000000	0.000000	6.464902	0.100334	NaN	0.000000	0.001683	0.001709	28.1107	0.050752	0.001913	26.5268	165.027	10.3322	0.023310	0.463250	-0.627049	-0.628382	0.100334	26.5268	-0.629885	-2.145112E+8	-4.677310E-10	NaN
169	1.000000	0.506636	7.36669e+06	-47089.1	955.818	-29767.5	0.000000	0.000000	6.506954	0.061611	NaN	0.000000	0.001708	0.001721	28.1298	0.030387	0.001960	15.5073	44.2628	-164.11	0.103662	0.505329	-0.584996	-0.586303	0.061611	15.5073	-0.587976	-5.685333E+7	-1.083676E-9	NaN
169	1.000000	0.548664	7.36669e+06	-47089.1	955.818	-29767.5	0.000000	0.000000	6.548981	0.043526	NaN	0.000000	0.001644	0.001757	28.0895	0.072315	0.002089	34.6241	161.951	10.0806	0.040078	0.547258	-0.542968	-0.544374	0.043526	34.6241	-0.543911	-1.398238E+7	-3.112895E-9	NaN
169	1.000000	0.590635	7.36669e+06	-47089.1	955.818	-29767.5	0.000000	0.000000	6.590951	0.013937	NaN	0.000000	0.001647	0.001768	28.0813	0.069167	0.001959	35.3078	-5.844409	-165.537	0.098761	0.589360	-0.500997	-0.502272	0.013937	35.3078	-0.501293	-3.57319e+06	-3.900526E-9	NaN
169	1.000000	0.632685	7.36669e+06	-47089.1	955.819	-29767.5	0.000000	0.000000	6.633000	-0.000481	NaN	0.000000	0.001706	0.001739	28.1081	0.043523	0.002077	20.9536	-88.1102	16.8683	-0.006828	0.631310	-0.458947	-0.460323	-0.000481	20.9536	-0.458930	-911968	5.276819E-10	NaN
169	1.000000	0.674735	7.36669e+06	-47089.1	955.818	-29767.5	0.000000	0.000000	6.675051	0.042931	NaN	0.000000	0.001730	0.001723	28.1287	0.022820	0.002134	10.6927	-127.245	-164.339	0.016060	0.673450	-0.416898	-0.418182	0.042931	10.6927	-0.419909	-256520	-1.673603E-7	NaN
169	1.000000	0.716740	7.36669e+06	-47089.1	955.818	-29767.5	0.000000	0.000000	6.717056	0.023979	NaN	0.000000	0.001717	0.001690	28.092	0.123525	0.001948	63.4213	110.024	12.865	0.046774	0.715390	-0.374892	-0.376243	0.023979	63.4213	-0.375176	-58965.4	-4.066542E-7	NaN
169	1.000000	0.758728	7.36669e+06	-47089.1	955.818	-29767.5	0.000000	0.000000	6.759046	0.087580	NaN	0.000000	0.001660	0.001688	28.0814	0.020470	0.002085	9.818243	167.943	-166.517	0.111016	0.757424	-0.332904	-0.334209	0.087580	9.818243	-0.339595	-18015.4	-4.861415E-6	NaN
169	1.000000	0.800755	7.36669e+06	-47089.1	955.817	-29767.5	0.000000	0.000000	6.801073	0.076960	NaN	0.000000	0.001684	0.001662	28.108	0.025879	0.002014	12.848	124.302	13.2781	0.050976	0.799393	-0.290877	-0.292239	0.076960	12.848	-0.295370	-4014.27	-1.917155E-5	NaN
169	1.000000	0.842746	7.36669e+06	-47089.1	955.819	-29767.5	0.000000	0.000000	6.843064	0.074314	NaN	0.000000	0.001761	0.001676	28.1291	0.021143	0.002104	10.0468	41.221	-165.027	0.125774	0.841482	-0.248886	-0.250150	0.074314	10.0468	-0.254433	-962.48	-7.721136E-5	NaN
169	1.000000	0.884786	7.36669e+06	-47089.1	955.819	-29767.5	0.000000	0.000000	6.885102	0.037012	NaN	0.000000	0.001732	0.001643	28.0894	0.114658	0.002059	55.6949	-118.564	13.397	0.018239	0.883423	-0.206847	-0.208209	0.037012	55.6949	-0.207345	-173.678	-0.000213	NaN
169	1.000000	0.926820	7.36669e+06	-47089.1	955.819	-29767.5	0.000000	0.000000	6.927133	-0.026355	NaN	0.000000	0.001707	0.001687	28.0814	0.048241	0.002070	23.3091	151.744	-166.103	0.016888	0.925567	-0.164813	-0.166065	-0.026355	23.3091	-0.163965	-32.2184	0.000818	NaN
169	1.000000	0.968804	7.36669e+06	-47089.1	955.818	-29767.5	0.000000	0.000000	6.969120	0.024511	NaN	0.000000	0.001736	0.001616	28.1065	0.039968	0.001967	20.316	-119.633	13.8396	0.005763	0.967521	-0.122828	-0.124112	0.024511	20.316	-0.123733	-5.739359	-0.004271	NaN
169	1.000000	1.010819	7.3667e+06	-47089.1	955.82	-29767.5	0.000000	0.000000	7.011135	0.030852	NaN	0.000000	0.001721	0.001643	28.1319	0.064253	0.002147	29.9335	85.4097	-165.001	0.062580	1.009521	-0.080814	-0.082111	0.030852	29.9335	-0.081587	-0.677879	-0.045512	NaN
169	1.000000	1.052869	7.3667e+06	-47089.1	955.819	-29767.5	0.000000	0.000000	7.053190	0.139859	NaN	0.000000	0.001669	0.001663	28.0913	0.077126	0.001885	40.914	58.3988	14.9171	0.119642	1.051455	-0.038763	-0.040177	0.139859	40.914	-0.041327	-0.049628	-2.818142	NaN
169	1.000000	1.094857	7.3667e+06	-47089.1	955.819	-29767.5	0.000000	0.000000	7.095240	1.672271	NaN	0.000000	0.001666	0.001679	28.0801	2.490071	0.001934	1287.31	10.1837	-164.957	0.707147	1.093604	0.003224	0.001972	1.672271	1287.31	0.002250	0.001758	951.238	28050.9
169	2.000000	1.109887	7.3667e+06	-47089.1	955.82	-29767.5	0.000000	0.000000	7.111206	24.4201	NaN	0.000000	0.001671	0.001652	28.1039	19.5635	0.001792	10916.2	11.5227	-3.451243	22.8339	1.109550	0.018255	0.017917	24.4201	10916.2	0.016577	0.017447	1399.71	75507.6
169	2.000000	1.120341	7.3667e+06	-47089.1	955.82	-29767.5	0.000000	0.000000	7.122926	55.2264	NaN	0.000000	0.001722	0.001688	28.1315	29.6309	0.001731	17120.6	4.708232	-179.374	54.5504	1.119978	0.028708	0.028345	55.2264	17120.6	0.026289	0.033403	1653.35	85585.7
169	2.000000	1.130855	7.3667e+06	-47089.1	955.82	-29767.5	0.000000	0.000000	7.134881	90.2753	NaN	0.000000	0.001722	0.001645	28.0906	38.9306	0.001774	21943.7	5.704638	-2.254782	90.5328	1.130455	0.039223	0.038822	90.2753	21943.7	0.036137	0.054427	1658.64	85936.1
169	2.000000	1.141297	7.3667e+06	-47089.1	955.82	-29767.5	0.000000	0.000000	7.147320	138.851	NaN	0.000000	0.001690	0.001668	28.0824	49.3109	0.001834	26892.4	3.527290	177.917	137.416	1.140949	0.049665	0.049317	138.851	26892.4	0.045792	0.079852	1738.85	86947.8
169	2.000000	1.151795	7.3667e+06	-47089.1	955.82	-29767.5	0.000000	0.000000	7.160163	195.898	NaN	0.000000	0.001665	0.001705	28.1045	58.2899	0.001625	35865.9	4.769142	-6.521379	192.701	1.151470	0.060163	0.059838	195.898	35865.9	0.056066	0.112081	1747.82	97878.8
169	2.000000	1.162418	7.3667e+06	-47089.1	955.82	-29767.5	0.000000	0.000000	7.173295	256.895	NaN	0.000000	0.001648	0.001675	28.1328	69.0444	0.001786	38663.1	7.255148	172.478	259.764	1.161847	0.070786	0.070215	256.895	38663.1	0.065803	0.147435	1742.43	91996.3
169	2.000000	1.172751	7.3667e+06	-47089.1	955.82	-29767.5	0.000000	0.000000	7.186267	321.107	NaN	0.000000	0.001682	0.001637	28.0925	79.8899	0.001885	42387.9	2.673924	-5.112491	318.496	1.172518	0.081119	0.080885	321.107	42387.9	0.075437	0.186907	1718.01	89578.3
169	2.000000	1.183387	7.3667e+06	-47089.1	955.82	-29767.5	0.000000	0.000000	7.199754	390.453	NaN	0.000000	0.001674	0.001632	28.0809	89.0976	0.001801	49482	3.762210	173.121	394.915	1.182905	0.091755	0.091273	390.453	49482	0.085837	0.234410	1665.69	93375.4
169	2.000000	1.193661	7.3667e+06	-47089.1	955.821	-29767.5	0.000000	0.000000	7.213467	474.104	NaN	0.000000	0.001685	0.001675	28.1029	96.1411	0.001779	54045.2	1.366580	-4.910068	466.703	1.193408	0.102028	0.101776	474.104	54045.2	0.095449	0.282758	1676.71	92858.8
169	2.000000	1.199386	7.3667e+06	-47089.1	955.82	-29767.5	0.000000	0.000000	7.220881	515.174	NaN	0.000000	0.001663	0.001658	28.0809	103.964	0.001705	60968.6	6.006106	169.545	523.223	1.198853	0.107754	0.107220	515.174	60968.6	0.101417	0.314895	1636.02	99265.2

File: 2025-07-22_16-23-58_1_170.txt
2025-07-22, 16:23:58, 1
Index	Phase	Displacement	Time	Pos X	Pos Y	Pos Z	Rot A	Rot B	Piezo Z	Force A	Force B	Gripper	Voltage A	Voltage B	Temperature	Amplitude force	Amplitude pos	Stiffness	Phase shift	Phase excitation	Force A raw	Displacement raw	HMax	HMax raw	Real Force	Real Stiffness	Contact Depth	Area	Hardness	Reduced Mod.
[#]	[#]	[um]	[s]	[um]	[um]	[um]	[m°]	[m°]	[um]	[uN]	[uN]	[V]	[V]	[V]	[°C]	[uN]	[um]	[N/m]	[°]	[°]	[uN]	[um]	[um]	[um]	[uN]	[N/m]	[um]	[um^2]	[MPa]	[MPa]
170	1.000000	0.002480	7.3667e+06	-47139.1	955.818	-29767.3	0.000000	0.000000	6.002785	0.034266	NaN	0.000000	0.001674	0.001669	28.0972	0.051350	0.001044	49.1724	81.6606	-162.587	0.008016	0.001240	-1.079461	-1.080702	0.034266	49.1724	-1.079984	-2.699627E+14	-1.269278E-16	NaN
170	1.000000	0.042436	7.3667e+06	-47139.1	955.819	-29767.3	0.000000	0.000000	6.042741	0.026885	NaN	0.000000	0.001637	0.001657	28.0944	0.118800	0.001976	60.1098	-83.2531	-163.845	-0.016537	0.041142	-1.039505	-1.040800	0.026885	60.1098	-1.039841	-7.795187E+13	-3.448880E-16	NaN
170	1.000000	0.082442	7.3667e+06	-47139.1	955.818	-29767.3	0.000000	0.000000	6.082747	0.039783	NaN	0.000000	0.001645	0.001628	28.0957	0.027671	0.001945	14.2301	-51.9829	-162.918	0.059492	0.081179	-0.999500	-1.000762	0.039783	14.2301	-1.001597	-2.383792E+13	-1.668914E-15	NaN
170	1.000000	0.122470	7.3667e+06	-47139.1	955.819	-29767.3	0.000000	0.000000	6.122773	-0.006179	NaN	0.000000	0.001617	0.001664	28.0944	0.065968	0.002093	31.5207	-119.344	-167.735	0.051633	0.121107	-0.959472	-0.960835	-0.006179	31.5207	-0.959325	-6.423363E+12	9.619438E-16	NaN
170	1.000000	0.162467	7.3667e+06	-47139.1	955.818	-29767.3	0.000000	0.000000	6.162770	0.008247	NaN	0.000000	0.001597	0.001634	28.0981	0.059308	0.002043	29.0357	-19.6474	-165.96	0.033318	0.161205	-0.919475	-0.920737	0.008247	29.0357	-0.919688	-1.874980E+12	-4.398250E-15	NaN
170	1.000000	0.202500	7.3667e+06	-47139.1	955.818	-29767.3	0.000000	0.000000	6.202806	0.046174	NaN	0.000000	0.001596	0.001642	28.0966	0.027580	0.001905	14.4767	-97.9732	-161.692	0.064545	0.201180	-0.879441	-0.880761	0.046174	14.4767	-0.881833	-5.774328E+11	-7.996379E-14	NaN
170	1.000000	0.242519	7.3667e+06	-47139.1	955.819	-29767.3	0.000000	0.000000	6.242822	-0.003967	NaN	0.000000	0.001653	0.001601	28.0983	0.051162	0.001951	26.2259	115.761	-166.77	-0.041898	0.241171	-0.839423	-0.840770	-0.003967	26.2259	-0.839310	-1.534409E+11	2.585257E-14	NaN
170	1.000000	0.282524	7.3667e+06	-47139.1	955.818	-29767.3	0.000000	0.000000	6.282829	0.039335	NaN	0.000000	0.001626	0.001675	28.0963	0.040914	0.002046	19.9965	-1.667318	-166.275	0.058062	0.281246	-0.799418	-0.800696	0.039335	19.9965	-0.800893	-4.623617E+10	-8.507373E-13	NaN
170	1.000000	0.322581	7.3667e+06	-47139.1	955.818	-29767.3	0.000000	0.000000	6.322885	0.012287	NaN	0.000000	0.001654	0.001686	28.0975	0.045234	0.001965	23.0141	-128.064	-164.568	0.002938	0.321211	-0.759361	-0.760731	0.012287	23.0141	-0.759762	-1.276612E+10	-9.624916E-13	NaN
170	1.000000	0.362590	7.3667e+06	-47139.1	955.819	-29767.3	0.000000	0.000000	6.362894	0.004240	NaN	0.000000	0.001654	0.001630	28.0965	0.117539	0.002022	58.1195	33.3987	-165.674	-0.013107	0.361304	-0.719352	-0.720638	0.004240	58.1195	-0.719406	-3.600615E+9	-1.177448E-12	NaN
170	1.000000	0.402589	7.3667e+06	-47139.1	955.819	-29767.3	0.000000	0.000000	6.402893	0.026021	NaN	0.000000	0.001622	0.001632	28.0983	0.043505	0.001956	22.2467	129.793	-167.27	0.031557	0.401217	-0.679353	-0.680725	0.026021	22.2467	-0.680230	-1.050398E+9	-2.477280E-11	NaN
170	1.000000	0.442590	7.3667e+06	-47139.1	955.818	-29767.3	0.000000	0.000000	6.442894	0.021287	NaN	0.000000	0.001636	0.001669	28.0987	0.067399	0.002023	33.3188	82.8409	-166.117	-0.025754	0.441329	-0.639352	-0.640613	0.021287	33.3188	-0.639831	-2.937454E+8	-7.246781E-11	NaN
170	1.000000	0.482632	7.3667e+06	-47139.1	955.819	-29767.3	0.000000	0.000000	6.482934	-0.023441	NaN	0.000000	0.001633	0.001631	28.0988	0.053957	0.001870	28.8587	24.7654	-163.938	0.002108	0.481315	-0.599310	-0.600627	-0.023441	28.8587	-0.598701	-7.990354E+7	2.933670E-10	NaN
170	1.000000	0.522652	7.3667e+06	-47139.1	955.818	-29767.3	0.000000	0.000000	6.522955	-0.011427	NaN	0.000000	0.001644	0.001617	28.0985	0.079942	0.002137	37.4037	-62.3617	-163.055	-0.028846	0.521315	-0.559290	-0.560626	-0.011427	37.4037	-0.559061	-2.266654E+7	5.041175E-10	NaN
170	1.000000	0.562661	7.3667e+06	-47139.1	955.818	-29767.3	0.000000	0.000000	6.562966	0.015889	NaN	0.000000	0.001667	0.001703	28.0989	0.024666	0.001917	12.8639	-82.9315	-163.228	0.014163	0.561308	-0.519280	-0.520634	0.015889	12.8639	-0.520207	-6.55347e+06	-2.424527E-9	NaN
170	1.000000	0.602652	7.3667e+06	-47139.1	955.819	-29767.3	0.000000	0.000000	6.602958	0.070471	NaN	0.000000	0.001665	0.001686	28.0971	0.067169	0.001944	34.5503	-56.0488	-166.771	0.022124	0.601385	-0.479290	-0.480557	0.070471	34.5503	-0.480820	-1.84927e+06	-3.810765E-8	NaN
170	1.000000	0.642701	7.3667e+06	-47139.1	955.818	-29767.3	0.000000	0.000000	6.643007	0.051237	NaN	0.000000	0.001576	0.001650	28.0985	0.057976	0.001980	29.2809	-15.33	-164.649	0.084883	0.641375	-0.439241	-0.440567	0.051237	29.2809	-0.440553	-502539	-1.019556E-7	NaN
170	1.000000	0.682709	7.3667e+06	-47139.1	955.819	-29767.3	0.000000	0.000000	6.683012	-0.010167	NaN	0.000000	0.001749	0.001664	28.0984	0.081358	0.002028	40.1226	7.356237	-167.86	-0.050917	0.681469	-0.399232	-0.400473	-0.010167	40.1226	-0.399042	-129519	7.849720E-8	NaN
170	1.000000	0.722747	7.3667e+06	-47139.1	955.819	-29767.3	0.000000	0.000000	6.723052	0.037197	NaN	0.000000	0.001729	0.001663	28.0997	0.077428	0.002012	38.4886	108.55	-167.129	0.000107	0.721399	-0.359195	-0.360543	0.037197	38.4886	-0.359920	-35537.3	-1.046704E-6	NaN
170	1.000000	0.762717	7.3667e+06	-47139.1	955.818	-29767.3	0.000000	0.000000	6.763022	0.038592	NaN	0.000000	0.001719	0.001625	28.1002	0.074044	0.001860	39.8058	-10.9303	-165.39	-0.016622	0.761463	-0.319225	-0.320479	0.038592	39.8058	-0.319952	-9288.1	-4.154985E-6	NaN
170	1.000000	0.802745	7.3667e+06	-47139.1	955.818	-29767.3	0.000000	0.000000	6.803046	-0.066560	NaN	0.000000	0.001746	0.001678	28.1006	0.051719	0.001995	25.9287	-70.1573	-165.32	-0.067777	0.801500	-0.279197	-0.280441	-0.066560	25.9287	-0.277272	-2146.68	3.100581E-5	NaN
170	1.000000	0.842790	7.3667e+06	-47139.1	955.818	-29767.3	0.000000	0.000000	6.843095	0.034265	NaN	0.000000	0.001681	0.001708	28.099	0.026376	0.001936	13.6259	-26.8358	-169.241	0.001507	0.841453	-0.239151	-0.240489	0.034265	13.6259	-0.241037	-596.689	-5.742490E-5	NaN
170	1.000000	0.882766	7.3667e+06	-47139.1	955.819	-29767.3	0.000000	0.000000	6.883070	0.015085	NaN	0.000000	0.001675	0.001719	28.0997	0.063546	0.001934	32.8554	-71.2126	-169.487	-0.032254	0.881486	-0.199176	-0.200456	0.015085	32.8554	-0.199520	-129.363	-0.000117	NaN
170	1.000000	0.922806	7.3667e+06	-47139.1	955.818	-29767.3	0.000000	0.000000	6.923110	0.006459	NaN	0.000000	0.001683	0.001685	28.0991	0.156352	0.002062	75.8394	175.955	-166.434	-0.011088	0.921479	-0.159135	-0.160463	0.006459	75.8394	-0.159199	-26.5304	-0.000243	NaN
170	1.000000	0.962816	7.3667e+06	-47139.1	955.818	-29767.3	0.000000	0.000000	6.963120	0.011745	NaN	0.000000	0.001730	0.001710	28.1013	0.093773	0.002015	46.5306	-125.476	-165.015	-0.099075	0.961495	-0.119125	-0.120447	0.011745	46.5306	-0.119315	-4.679839	-0.002510	NaN
170	1.000000	1.002855	7.3667e+06	-47139.1	955.818	-29767.3	0.000000	0.000000	7.003162	0.072128	NaN	0.000000	0.001747	0.001707	28.1008	0.035908	0.001958	18.3351	-128.246	-167.839	-0.031446	1.001502	-0.079087	-0.080440	0.072128	18.3351	-0.082037	-0.695477	-0.103710	NaN
170	1.000000	1.042844	7.3667e+06	-47139.1	955.818	-29767.4	0.000000	0.000000	7.043147	-0.020634	NaN	0.000000	0.001670	0.001684	28.101	0.093101	0.001943	47.9076	16.2337	-163.821	-0.015441	1.041585	-0.039098	-0.040357	-0.020634	47.9076	-0.038775	-0.041517	0.497004	NaN
170	1.000000	1.082900	7.36671e+06	-47139.1	955.818	-29767.4	0.000000	0.000000	7.083205	0.038338	NaN	0.000000	0.001760	0.001704	28.1005	0.138665	0.002070	66.9725	15.845	-164.893	0.057838	1.081598	0.000958	-0.000344	0.038338	66.9725	0.000529	0.000399	96.0565	3062.81
170	2.000000	1.101501	7.36671e+06	-47139.1	955.818	-29767.4	0.000000	0.000000	7.102562	18.4168	NaN	0.000000	0.001727	0.001666	28.1005	16.2575	0.001685	9646.55	6.864082	-175.133	19.6372	1.101135	0.019560	0.019194	18.4168	9646.55	0.018128	0.019685	935.559	62816.5
170	2.000000	1.111384	7.36671e+06	-47139.1	955.818	-29767.4	0.000000	0.000000	7.113459	43.092	NaN	0.000000	0.001680	0.001674	28.1002	27.6634	0.001928	14346.4	4.466629	-176.841	41.3918	1.111084	0.029443	0.029142	43.092	14346.4	0.027190	0.035120	1226.99	69941.8
170	2.000000	1.121403	7.36671e+06	-47139.1	955.817	-29767.4	0.000000	0.000000	7.124932	78.4653	NaN	0.000000	0.001697	0.001715	28.1016	37.9055	0.001842	20578.4	7.180756	177.85	79.5448	1.121078	0.039461	0.039136	78.4653	20578.4	0.036601	0.055540	1412.77	79778
170	2.000000	1.131436	7.36671e+06	-47139.1	955.818	-29767.4	0.000000	0.000000	7.136545	116.895	NaN	0.000000	0.001691	0.001746	28.1021	46.5586	0.001800	25863.3	2.896230	178.545	117.794	1.131090	0.049494	0.049149	116.895	25863.3	0.046105	0.080754	1447.54	83152.3
170	2.000000	1.141354	7.36671e+06	-47139.1	955.818	-29767.4	0.000000	0.000000	7.148354	162.886	NaN	0.000000	0.001665	0.001708	28.1033	55.9156	0.001706	32781.8	2.815248	176.229	161.142	1.141115	0.059412	0.059173	162.886	32781.8	0.055685	0.110793	1470.19	89980.9
170	2.000000	1.151308	7.36671e+06	-47139.1	955.819	-29767.4	0.000000	0.000000	7.160607	218.815	NaN	0.000000	0.001664	0.001744	28.1026	65.278	0.001757	37150.2	1.466054	177.169	214.736	1.151113	0.069366	0.069171	218.815	37150.2	0.064949	0.144149	1517.98	89398.1
170	2.000000	1.161294	7.36671e+06	-47139.1	955.817	-29767.4	0.000000	0.000000	7.173271	283.936	NaN	0.000000	0.001705	0.001693	28.1041	75.9051	0.001900	39946.5	4.519114	173.759	281.757	1.161014	0.079353	0.079072	283.936	39946.5	0.074022	0.180831	1570.17	85825.2
170	2.000000	1.171326	7.36671e+06	-47139.1	955.818	-29767.4	0.000000	0.000000	7.186170	353.682	NaN	0.000000	0.001730	0.001711	28.102	84.9834	0.001815	46823.4	5.156888	172.604	353.138	1.171053	0.089384	0.089111	353.682	46823.4	0.083719	0.224330	1576.62	90321.9
170	2.000000	1.181354	7.36671e+06	-47139.1	955.817	-29767.4	0.000000	0.000000	7.199586	436.093	NaN	0.000000	0.001761	0.001696	28.1029	95.2221	0.001741	54691	4.443626	171.724	436.856	1.180960	0.099412	0.099018	436.093	54691	0.093432	0.272259	1601.75	95762.9
170	2.000000	1.191290	7.36671e+06	-47139.1	955.818	-29767.4	0.000000	0.000000	7.213042	521.693	NaN	0.000000	0.001679	0.001727	28.1019	104.799	0.001780	58884.4	3.571428	171.605	518.246	1.191123	0.109349	0.109182	521.693	58884.4	0.102704	0.322040	1619.96	94802.2
170	2.000000	1.192758	7.36671e+06	-47139.1	955.816	-29767.4	0.000000	0.000000	7.215545	546.893	NaN	0.000000	0.001703	0.001726	28.1317	104.718	0.001775	58994.3	5.017174	-8.975591	540.998	1.192431	0.110816	0.110490	546.893	58994.3	0.103863	0.328538	1664.62	94035.2