Folder: unikorn_login/remote_trans/data/nanoindenter/0828-1/data/Data_2025-08-06,11h17m57s (part 172)

File: 2025-07-22_16-23-58_1_361.txt
2025-07-22, 16:23:58, 1
Index	Phase	Displacement	Time	Pos X	Pos Y	Pos Z	Rot A	Rot B	Piezo Z	Force A	Force B	Gripper	Voltage A	Voltage B	Temperature	Amplitude force	Amplitude pos	Stiffness	Phase shift	Phase excitation	Force A raw	Displacement raw	HMax	HMax raw	Real Force	Real Stiffness	Contact Depth	Area	Hardness	Reduced Mod.
[#]	[#]	[um]	[s]	[um]	[um]	[um]	[m°]	[m°]	[um]	[uN]	[uN]	[V]	[V]	[V]	[°C]	[uN]	[um]	[N/m]	[°]	[°]	[uN]	[um]	[um]	[um]	[uN]	[N/m]	[um]	[um^2]	[MPa]	[MPa]
361	1.000000	0.002527	7.36859e+06	-56689.1	955.818	-29738.1	0.000000	0.000000	6.002797	0.000184	NaN	0.000000	0.001670	0.001752	28.0798	0.012655	0.000783	16.1562	-168.834	-163.935	-0.002142	0.001230	-1.714764	-1.716061	0.000184	16.1562	-1.714773	-7.992252E+22	-2.303828E-27	NaN
361	1.000000	0.060466	7.36859e+06	-56689.1	955.819	-29738	0.000000	0.000000	6.060734	-0.045973	NaN	0.000000	0.001551	0.001653	28.0793	0.106507	0.001995	53.3797	61.3421	13.4787	-0.000217	0.059111	-1.656826	-1.658180	-0.045973	53.3797	-1.656180	-1.330973E+22	3.454121E-24	NaN
361	1.000000	0.118492	7.36859e+06	-56689.1	955.819	-29738	0.000000	0.000000	6.118765	0.050836	NaN	0.000000	0.001556	0.001704	28.0784	0.100969	0.001944	51.9323	168.485	-165.71	-0.071962	0.117204	-1.598799	-1.600088	0.050836	51.9323	-1.599533	-2.349737E+21	-2.163490E-23	NaN
361	1.000000	0.176524	7.36859e+06	-56689.1	955.818	-29738	0.000000	0.000000	6.176794	-0.010858	NaN	0.000000	0.001595	0.001687	28.0782	0.059196	0.001943	30.463	81.4791	14.6879	-0.035499	0.175171	-1.540767	-1.542120	-0.010858	30.463	-1.540500	-3.850811E+20	2.819705E-23	NaN
361	1.000000	0.234530	7.36859e+06	-56689.1	955.819	-29738	0.000000	0.000000	6.234801	0.028438	NaN	0.000000	0.001605	0.001688	28.0796	0.045209	0.002024	22.3386	-145.1	-159.72	0.100963	0.233230	-1.482762	-1.484062	0.028438	22.3386	-1.483717	-6.751833E+19	-4.211887E-22	NaN
361	1.000000	0.292587	7.36859e+06	-56689.1	955.819	-29738	0.000000	0.000000	6.292857	0.012236	NaN	0.000000	0.001591	0.001691	28.0794	0.051190	0.001878	27.2629	175.476	17.7967	-0.029735	0.291214	-1.424705	-1.426077	0.012236	27.2629	-1.425041	-1.115388E+19	-1.097055E-21	NaN
361	1.000000	0.350586	7.36859e+06	-56689.1	955.819	-29738	0.000000	0.000000	6.350855	-0.023573	NaN	0.000000	0.001567	0.001708	28.0795	0.047699	0.001968	24.2324	75.9257	-164.367	-0.005314	0.349288	-1.366705	-1.368004	-0.023573	24.2324	-1.365976	-1.817542E+18	1.296958E-20	NaN
361	1.000000	0.408651	7.36859e+06	-56689.1	955.819	-29738	0.000000	0.000000	6.408922	0.006732	NaN	0.000000	0.001561	0.001714	28.0782	0.095122	0.001873	50.7852	58.9743	13.111	-0.070508	0.407297	-1.308640	-1.309995	0.006732	50.7852	-1.308740	-3.127355E+17	-2.152576E-20	NaN
361	1.000000	0.466665	7.36859e+06	-56689.1	955.818	-29738	0.000000	0.000000	6.466931	-0.107179	NaN	0.000000	0.001567	0.001733	28.0782	0.095127	0.002027	46.9385	60.9574	-162.295	-0.072298	0.465350	-1.250627	-1.251942	-0.107179	46.9385	-1.248914	-4.959043E+16	2.161275E-18	NaN
361	1.000000	0.524707	7.36859e+06	-56689.1	955.818	-29738	0.000000	0.000000	6.524977	0.003947	NaN	0.000000	0.001612	0.001707	28.0794	0.139496	0.002037	68.4979	-81.0452	16.4365	0.033199	0.523311	-1.192585	-1.193980	0.003947	68.4979	-1.192628	-8.750258E+15	-4.510674E-19	NaN
361	1.000000	0.582692	7.36859e+06	-56689.1	955.818	-29738	0.000000	0.000000	6.582963	0.024126	NaN	0.000000	0.001604	0.001752	28.0792	0.007355	0.002085	3.527486	168.248	-164.284	-0.005199	0.581385	-1.134600	-1.135906	0.024126	3.527486	-1.139729	-1.710449E+15	-1.410492E-17	NaN
361	1.000000	0.640745	7.36859e+06	-56689.1	955.818	-29738	0.000000	0.000000	6.641013	-0.051988	NaN	0.000000	0.001575	0.001709	28.0782	0.067032	0.002023	33.1301	-156.955	16.3307	0.020277	0.639404	-1.076547	-1.077887	-0.051988	33.1301	-1.075370	-2.340626E+14	2.221122E-16	NaN
361	1.000000	0.698756	7.36859e+06	-56689.1	955.819	-29738	0.000000	0.000000	6.699025	-0.049574	NaN	0.000000	0.001604	0.001714	28.0785	0.104408	0.001938	53.8677	50.2155	-164.024	0.032032	0.697454	-1.018535	-1.019838	-0.049574	53.8677	-1.017845	-3.944170E+13	1.256887E-15	NaN
361	1.000000	0.756812	7.36859e+06	-56689.1	955.819	-29738	0.000000	0.000000	6.757082	0.011252	NaN	0.000000	0.001651	0.001750	28.0786	0.084909	0.001973	43.0411	-121.743	13.7079	0.012449	0.755433	-0.960480	-0.961859	0.011252	43.0411	-0.960676	-6.698570E+12	-1.679828E-15	NaN
361	1.000000	0.814812	7.36859e+06	-56689.1	955.818	-29738	0.000000	0.000000	6.815080	-0.050474	NaN	0.000000	0.001627	0.001767	28.0798	0.082183	0.002065	39.8047	-81.5713	-167.977	-0.072136	0.813519	-0.902479	-0.903773	-0.050474	39.8047	-0.901528	-1.065898E+12	4.735327E-14	NaN
361	1.000000	0.872831	7.36859e+06	-56689.1	955.818	-29738	0.000000	0.000000	6.873102	0.025551	NaN	0.000000	0.001591	0.001690	28.0797	0.081118	0.001992	40.7131	-101.26	12.4018	0.006478	0.871448	-0.844461	-0.845843	0.025551	40.7131	-0.844931	-1.828488E+11	-1.397370E-13	NaN
361	1.000000	0.930833	7.36859e+06	-56689.1	955.817	-29738	0.000000	0.000000	6.931101	-0.031296	NaN	0.000000	0.001553	0.001745	28.0787	0.053555	0.001997	26.812	-7.559658	-164.202	-0.033943	0.929569	-0.786459	-0.787722	-0.031296	26.812	-0.785584	-2.864804E+10	1.092444E-12	NaN
361	1.000000	0.988873	7.3686e+06	-56689.1	955.819	-29738	0.000000	0.000000	6.989144	0.026951	NaN	0.000000	0.001598	0.001716	28.0786	0.092438	0.001942	47.6049	-163.9	14.9154	0.038749	0.987522	-0.728419	-0.729769	0.026951	47.6049	-0.728843	-4.842171E+9	-5.565900E-12	NaN
361	1.000000	1.046924	7.3686e+06	-56689.1	955.819	-29738	0.000000	0.000000	7.047192	-0.052977	NaN	0.000000	0.001689	0.001715	28.0795	0.010441	0.001878	5.560342	30.2735	-163.177	-0.092200	1.045559	-0.670367	-0.671733	-0.052977	5.560342	-0.663222	-6.146017E+8	8.619682E-11	NaN
361	1.000000	1.104918	7.3686e+06	-56689.1	955.82	-29738	0.000000	0.000000	7.105185	-0.064809	NaN	0.000000	0.001619	0.001730	28.0796	0.038618	0.002089	18.484	-170.38	13.3872	-0.041996	1.103558	-0.612374	-0.613734	-0.064809	18.484	-0.609744	-1.133956E+8	5.715333E-10	NaN
361	1.000000	1.162934	7.3686e+06	-56689.1	955.819	-29738	0.000000	0.000000	7.163205	0.005673	NaN	0.000000	0.001597	0.001718	28.0796	0.039311	0.002117	18.5701	163.028	-164.018	0.098595	1.161577	-0.554357	-0.555715	0.005673	18.5701	-0.554586	-1.965458E+7	-2.886586E-10	NaN
361	1.000000	1.220963	7.3686e+06	-56689.1	955.819	-29738	0.000000	0.000000	7.221236	0.055701	NaN	0.000000	0.001593	0.001702	28.0786	0.107471	0.002025	53.0668	169.814	16.3942	0.040856	1.219585	-0.496328	-0.497707	0.055701	53.0668	-0.497115	-3.1244e+06	-1.782779E-8	NaN
361	1.000000	1.278984	7.3686e+06	-56689.1	955.819	-29738	0.000000	0.000000	7.279254	-0.020526	NaN	0.000000	0.001600	0.001712	28.0788	0.165929	0.002031	81.7122	167.191	-163.916	-0.020578	1.277706	-0.438307	-0.439585	-0.020526	81.7122	-0.438119	-464311	4.420751E-8	NaN
361	1.000000	1.337054	7.3686e+06	-56689.1	955.82	-29738	0.000000	0.000000	7.337322	-0.048166	NaN	0.000000	0.001613	0.001726	28.0802	0.017202	0.002026	8.491379	103.958	15.8412	0.027673	1.335641	-0.380238	-0.381651	-0.048166	8.491379	-0.375984	-60563.5	7.953003E-7	NaN
361	1.000000	1.395077	7.3686e+06	-56689.1	955.819	-29738	0.000000	0.000000	7.395344	-0.058827	NaN	0.000000	0.001620	0.001706	28.0799	0.061838	0.001943	31.8248	-127.688	-167.426	-0.019612	1.393782	-0.322215	-0.323509	-0.058827	31.8248	-0.320829	-9568.22	6.148190E-6	NaN
361	1.000000	1.453091	7.3686e+06	-56689.1	955.82	-29738	0.000000	0.000000	7.453361	0.000585	NaN	0.000000	0.001542	0.001678	28.0797	0.057137	0.002027	28.1894	104.342	17.8601	-0.007707	1.451745	-0.264201	-0.265547	0.000585	28.1894	-0.264217	-1359.65	-4.300600E-7	NaN
361	1.000000	1.511066	7.3686e+06	-56689.1	955.82	-29738	0.000000	0.000000	7.511335	-0.011914	NaN	0.000000	0.001613	0.001715	28.0788	0.120884	0.001980	61.064	118.86	-164.926	-0.085425	1.509821	-0.206226	-0.207471	-0.011914	61.064	-0.206080	-165.636	7.192917E-5	NaN
361	1.000000	1.569118	7.3686e+06	-56689.1	955.821	-29738	0.000000	0.000000	7.569387	-0.037546	NaN	0.000000	0.001598	0.001713	28.0787	0.038257	0.002052	18.6455	-177.794	18.2528	-0.106219	1.567795	-0.148174	-0.149497	-0.037546	18.6455	-0.146663	-15.7349	0.002386	NaN
361	1.000000	1.627151	7.3686e+06	-56689.1	955.822	-29738	0.000000	0.000000	7.627420	-0.030757	NaN	0.000000	0.001602	0.001719	28.0799	0.058891	0.001981	29.7347	-1.172989	-166.721	0.001277	1.625849	-0.090141	-0.091443	-0.030757	29.7347	-0.089365	-1.044450	0.029448	NaN
361	1.000000	1.685167	7.3686e+06	-56689.1	955.821	-29738	0.000000	0.000000	7.685434	-0.071448	NaN	0.000000	0.001692	0.001742	28.0799	0.008493	0.002032	4.180059	167.139	11.8654	-0.106635	1.683765	-0.032125	-0.033527	-0.071448	4.180059	-0.019305	-0.012059	5.924807	NaN
361	2.000000	1.737740	7.3686e+06	-56689.1	955.821	-29738	0.000000	0.000000	7.738308	7.247548	NaN	0.000000	0.001604	0.001729	28.0786	9.119716	0.001737	5249.68	12.9717	-174.312	7.142464	1.737420	0.020448	0.020129	7.247548	5249.68	0.019412	0.021627	335.109	32614
361	2.000000	1.752171	7.3686e+06	-56689.1	955.821	-29738	0.000000	0.000000	7.753553	27.0412	NaN	0.000000	0.001618	0.001708	28.0785	24.7974	0.001807	13721.4	8.672938	1.000528	28.3698	1.751910	0.034879	0.034618	27.0412	13721.4	0.033401	0.048088	562.324	57167.9
361	2.000000	1.766594	7.3686e+06	-56689.1	955.821	-29738	0.000000	0.000000	7.769150	55.5774	NaN	0.000000	0.001604	0.001761	28.0785	37.4233	0.001794	20863.5	2.687475	-178.596	54.8092	1.766369	0.049302	0.049077	55.5774	20863.5	0.047304	0.084262	659.576	65666.5
361	2.000000	1.780999	7.3686e+06	-56689.1	955.824	-29738	0.000000	0.000000	7.785320	98.4636	NaN	0.000000	0.001596	0.001718	28.0797	49.4903	0.001690	29276	2.756218	-1.736134	93.9562	1.780684	0.063707	0.063393	98.4636	29276	0.061184	0.130090	756.89	74158.8
361	2.000000	1.795524	7.3686e+06	-56689.1	955.822	-29738	0.000000	0.000000	7.801921	148.913	NaN	0.000000	0.001570	0.001742	28.0807	64.0498	0.001716	37319.4	4.531195	174.653	147.064	1.795297	0.078232	0.078005	148.913	37319.4	0.075240	0.186053	800.377	79047.7
361	2.000000	1.810154	7.3686e+06	-56689.1	955.822	-29738	0.000000	0.000000	7.819491	220.378	NaN	0.000000	0.001602	0.001714	28.0791	77.2788	0.001743	44325.8	3.322870	-5.108009	222.879	1.809850	0.092863	0.092558	220.378	44325.8	0.089134	0.250515	879.7	80912
361	2.000000	1.824502	7.3686e+06	-56689.1	955.822	-29738	0.000000	0.000000	7.837646	312.917	NaN	0.000000	0.001627	0.001741	28.0785	89.9072	0.001859	48358.9	8.043921	170.397	312.152	1.824107	0.107210	0.106815	312.917	48358.9	0.102357	0.320106	977.54	78091.2
361	2.000000	1.834641	7.3686e+06	-56689.1	955.823	-29738	0.000000	0.000000	7.850088	368.884	NaN	0.000000	0.001578	0.001741	28.0785	99.3844	0.001861	53389.7	7.874653	170.694	372.922	1.834061	0.117350	0.116770	368.884	53389.7	0.112168	0.376875	978.795	79456.9

File: 2025-07-22_16-23-58_1_362.txt
2025-07-22, 16:23:58, 1
Index	Phase	Displacement	Time	Pos X	Pos Y	Pos Z	Rot A	Rot B	Piezo Z	Force A	Force B	Gripper	Voltage A	Voltage B	Temperature	Amplitude force	Amplitude pos	Stiffness	Phase shift	Phase excitation	Force A raw	Displacement raw	HMax	HMax raw	Real Force	Real Stiffness	Contact Depth	Area	Hardness	Reduced Mod.
[#]	[#]	[um]	[s]	[um]	[um]	[um]	[m°]	[m°]	[um]	[uN]	[uN]	[V]	[V]	[V]	[°C]	[uN]	[um]	[N/m]	[°]	[°]	[uN]	[um]	[um]	[um]	[uN]	[N/m]	[um]	[um^2]	[MPa]	[MPa]
362	1.000000	0.002455	7.3686e+06	-56739.1	955.819	-29738.5	0.000000	0.000000	6.002794	0.041340	NaN	0.000000	0.001559	0.001703	28.0808	0.073127	0.001024	71.428	104.05	-164.009	0.053892	0.001228	-1.040738	-1.041965	0.041340	71.428	-1.041173	-8.123322E+13	-5.089046E-16	NaN
362	1.000000	0.042429	7.3686e+06	-56739.1	955.818	-29738.5	0.000000	0.000000	6.042766	0.005519	NaN	0.000000	0.001560	0.001704	28.0803	0.095458	0.002090	45.6748	143.089	-162.913	0.051982	0.041078	-1.000765	-1.002116	0.005519	45.6748	-1.000855	-2.329603E+13	-2.368965E-16	NaN
362	1.000000	0.082435	7.3686e+06	-56739.1	955.819	-29738.5	0.000000	0.000000	6.082773	0.014207	NaN	0.000000	0.001618	0.001706	28.0801	0.086091	0.001930	44.5996	94.3902	-160.655	0.070372	0.081069	-0.960758	-0.962125	0.014207	44.5996	-0.960997	-6.765720E+12	-2.099876E-15	NaN
362	1.000000	0.122413	7.3686e+06	-56739.1	955.818	-29738.5	0.000000	0.000000	6.122753	0.061161	NaN	0.000000	0.001598	0.001731	28.0804	0.044745	0.001917	23.3359	-167.544	-163.705	-0.045364	0.121139	-0.920781	-0.922055	0.061161	23.3359	-0.922746	-2.061978E+12	-2.966144E-14	NaN
362	1.000000	0.162459	7.3686e+06	-56739.1	955.82	-29738.5	0.000000	0.000000	6.162801	0.107950	NaN	0.000000	0.001589	0.001739	28.0815	0.059903	0.002198	27.2554	125.941	-161.932	0.147860	0.161157	-0.880735	-0.882036	0.107950	27.2554	-0.883705	-6.120845E+11	-1.763640E-13	NaN
362	1.000000	0.202492	7.3686e+06	-56739.1	955.819	-29738.5	0.000000	0.000000	6.202830	0.028403	NaN	0.000000	0.001579	0.001714	28.0817	0.055218	0.002038	27.0896	-99.1073	-167.819	-0.009880	0.201135	-0.840702	-0.842059	0.028403	27.0896	-0.841488	-1.642309E+11	-1.729456E-13	NaN
362	1.000000	0.242479	7.3686e+06	-56739.1	955.819	-29738.5	0.000000	0.000000	6.242817	0.029747	NaN	0.000000	0.001578	0.001711	28.0815	0.013111	0.001814	7.227392	-164.715	-165.376	0.047128	0.241211	-0.800715	-0.801982	0.029747	7.227392	-0.803802	-5.063643E+10	-5.874606E-13	NaN
362	1.000000	0.282526	7.3686e+06	-56739.1	955.819	-29738.5	0.000000	0.000000	6.282866	0.081646	NaN	0.000000	0.001635	0.001701	28.0803	0.004224	0.001970	2.144607	-168.831	-165.212	0.048768	0.281202	-0.760668	-0.761992	0.081646	2.144607	-0.789221	-3.209980E+10	-2.543503E-12	NaN
362	1.000000	0.322538	7.3686e+06	-56739.1	955.819	-29738.5	0.000000	0.000000	6.322874	-0.024723	NaN	0.000000	0.001617	0.001718	28.0803	0.144165	0.002025	71.2035	-120.456	-163.571	0.060986	0.321263	-0.720656	-0.721931	-0.024723	71.2035	-0.720396	-3.714234E+9	6.656420E-12	NaN
362	1.000000	0.362542	7.3686e+06	-56739.1	955.819	-29738.5	0.000000	0.000000	6.362881	0.055972	NaN	0.000000	0.001584	0.001702	28.0803	0.073169	0.002074	35.2762	45.4784	-165.439	0.042932	0.361183	-0.680652	-0.682010	0.055972	35.2762	-0.681842	-1.105089E+9	-5.064957E-11	NaN
362	1.000000	0.402571	7.3686e+06	-56739.1	955.818	-29738.5	0.000000	0.000000	6.402911	0.053963	NaN	0.000000	0.001623	0.001722	28.08	0.047397	0.002009	23.5947	-172.989	-164.029	0.025324	0.401225	-0.640622	-0.641968	0.053963	23.5947	-0.642338	-3.179515E+8	-1.697215E-10	NaN
362	1.000000	0.442586	7.36861e+06	-56739.1	955.819	-29738.5	0.000000	0.000000	6.442924	0.041199	NaN	0.000000	0.001494	0.001753	28.0811	0.043797	0.002084	21.0187	125.445	-168.447	0.069376	0.441315	-0.600608	-0.601879	0.041199	21.0187	-0.602078	-8.893611E+7	-4.632411E-10	NaN
362	1.000000	0.482596	7.36861e+06	-56739.1	955.817	-29738.5	0.000000	0.000000	6.482936	0.063190	NaN	0.000000	0.001586	0.001747	28.0812	0.072462	0.002087	34.7201	-3.449632	-164.101	0.000155	0.481317	-0.560597	-0.561876	0.063190	34.7201	-0.561962	-2.486117E+7	-2.541724E-9	NaN
362	1.000000	0.522621	7.36861e+06	-56739.1	955.819	-29738.5	0.000000	0.000000	6.522958	0.012385	NaN	0.000000	0.001529	0.001737	28.0813	0.040918	0.001947	21.0181	-120.663	-164.3	0.057015	0.521275	-0.520573	-0.521919	0.012385	21.0181	-0.521015	-6.72527e+06	-1.841609E-9	NaN
362	1.000000	0.562640	7.36861e+06	-56739.1	955.818	-29738.5	0.000000	0.000000	6.562979	0.045552	NaN	0.000000	0.001561	0.001770	28.0799	0.063197	0.001838	34.383	4.965715	-165.488	0.031012	0.561272	-0.480554	-0.481922	0.045552	34.383	-0.481547	-1.89315e+06	-2.406173E-8	NaN
362	1.000000	0.602646	7.36861e+06	-56739.1	955.818	-29738.5	0.000000	0.000000	6.602982	-0.016818	NaN	0.000000	0.001558	0.001750	28.0799	0.098255	0.001871	52.5148	71.631	-166.941	-0.018045	0.601344	-0.440548	-0.441850	-0.016818	52.5148	-0.440308	-498546	3.373469E-8	NaN
362	1.000000	0.642641	7.36861e+06	-56739.1	955.819	-29738.5	0.000000	0.000000	6.642979	0.022456	NaN	0.000000	0.001574	0.001721	28.0801	0.026524	0.001954	13.5745	93.7362	-166.027	-0.006980	0.641338	-0.400552	-0.401856	0.022456	13.5745	-0.401793	-141762	-1.584047E-7	NaN
362	1.000000	0.682702	7.36861e+06	-56739.1	955.819	-29738.5	0.000000	0.000000	6.683036	-0.056860	NaN	0.000000	0.001633	0.001741	28.0805	0.023665	0.002096	11.2926	-173.322	-163.177	-0.046725	0.681360	-0.360492	-0.361833	-0.056860	11.2926	-0.356716	-31940.1	1.780190E-6	NaN
362	1.000000	0.722681	7.36861e+06	-56739.1	955.818	-29738.5	0.000000	0.000000	6.723019	0.030918	NaN	0.000000	0.001546	0.001764	28.0827	0.036062	0.002047	17.6157	157.906	-165.63	0.061825	0.721324	-0.320513	-0.321870	0.030918	17.6157	-0.321829	-9898.06	-3.123594E-6	NaN
362	1.000000	0.762702	7.36861e+06	-56739.1	955.818	-29738.5	0.000000	0.000000	6.763042	0.056147	NaN	0.000000	0.001557	0.001734	28.0814	0.142837	0.002013	70.9579	77.5889	-166.664	0.015463	0.761417	-0.280491	-0.281776	0.056147	70.9579	-0.281085	-2450.92	-2.290844E-5	NaN
362	1.000000	0.802734	7.36861e+06	-56739.1	955.82	-29738.5	0.000000	0.000000	6.803074	0.057379	NaN	0.000000	0.001576	0.001728	28.0816	0.049924	0.001979	25.2253	95.1467	-164.58	0.088827	0.801390	-0.240460	-0.241804	0.057379	25.2253	-0.242166	-621.355	-9.234542E-5	NaN
362	1.000000	0.842772	7.36861e+06	-56739.1	955.818	-29738.5	0.000000	0.000000	6.843109	0.016905	NaN	0.000000	0.001567	0.001734	28.0804	0.014194	0.001992	7.126402	30.6023	-164.282	-0.023586	0.841473	-0.200422	-0.201721	0.016905	7.126402	-0.202201	-143.157	-0.000118	NaN
362	1.000000	0.882765	7.36861e+06	-56739.1	955.818	-29738.5	0.000000	0.000000	6.883105	0.066414	NaN	0.000000	0.001581	0.001737	28.0801	0.056217	0.001965	28.6111	-88.5646	-167.927	-0.075267	0.881444	-0.160429	-0.161750	0.066414	28.6111	-0.162170	-29.9528	-0.002217	NaN
362	1.000000	0.922792	7.36861e+06	-56739.1	955.818	-29738.5	0.000000	0.000000	6.923130	0.025190	NaN	0.000000	0.001541	0.001715	28.0801	0.100761	0.001974	51.0546	-9.512723	-165.87	-0.063375	0.921468	-0.120402	-0.121726	0.025190	51.0546	-0.120772	-5.007770	-0.005030	NaN
362	1.000000	0.962813	7.36861e+06	-56739.1	955.818	-29738.5	0.000000	0.000000	6.963152	0.038862	NaN	0.000000	0.001576	0.001736	28.0815	0.083008	0.001907	43.5336	58.3576	-165.346	0.014821	0.961438	-0.080381	-0.081756	0.038862	43.5336	-0.081050	-0.657433	-0.059111	NaN
362	1.000000	1.002811	7.36861e+06	-56739.1	955.818	-29738.5	0.000000	0.000000	7.003147	-0.010548	NaN	0.000000	0.001659	0.001703	28.0814	0.118047	0.001979	59.6487	-141.028	-165.001	0.013594	1.001471	-0.040383	-0.041723	-0.010548	59.6487	-0.040250	-0.046021	0.229199	NaN
362	1.000000	1.042833	7.36861e+06	-56739.1	955.817	-29738.5	0.000000	0.000000	7.043169	-0.026155	NaN	0.000000	0.001625	0.001703	28.0813	0.161058	0.002036	79.0908	-25.2698	-162.235	-0.065370	1.041541	-0.000361	-0.001653	-0.026155	79.0908	-0.000113	-8.410794E-5	310.972	NaN
362	2.000000	1.059457	7.36861e+06	-56739.1	955.819	-29738.6	0.000000	0.000000	7.060652	20.8674	NaN	0.000000	0.001583	0.001678	28.0813	17.7698	0.001825	9735.74	9.240041	179.301	19.376	1.059152	0.016263	0.015958	20.8674	9735.74	0.014655	0.014829	1407.25	73045.5
362	2.000000	1.069390	7.36861e+06	-56739.1	955.818	-29738.6	0.000000	0.000000	7.071556	44.4577	NaN	0.000000	0.001610	0.001715	28.0798	27.8479	0.001896	14686.3	4.788138	-177.386	42.1953	1.069034	0.026196	0.025841	44.4577	14686.3	0.023926	0.029090	1528.29	78670.8
362	2.000000	1.079396	7.36861e+06	-56739.1	955.818	-29738.6	0.000000	0.000000	7.082882	76.5295	NaN	0.000000	0.001593	0.001749	28.08	37.0402	0.001700	21793.2	5.125780	177.626	75.1299	1.079078	0.036202	0.035884	76.5295	21793.2	0.033569	0.048466	1579.04	90443.1
362	2.000000	1.089374	7.36861e+06	-56739.1	955.818	-29738.6	0.000000	0.000000	7.094623	119.379	NaN	0.000000	0.001670	0.001748	28.0801	47.6448	0.001769	26928.1	4.480117	176.76	117.915	1.089093	0.046180	0.045899	119.379	26928.1	0.042855	0.071616	1666.94	91933.6
362	2.000000	1.099348	7.36861e+06	-56739.1	955.819	-29738.6	0.000000	0.000000	7.106700	170.494	NaN	0.000000	0.001653	0.001712	28.0815	56.608	0.001800	31440.8	4.441238	176.184	169.412	1.099021	0.056154	0.055827	170.494	31440.8	0.052087	0.098974	1722.61	91307.2
362	2.000000	1.109313	7.36861e+06	-56739.1	955.818	-29738.6	0.000000	0.000000	7.118956	226.204	NaN	0.000000	0.001623	0.001703	28.0818	67.3927	0.001754	38423	4.427339	174.319	222.703	1.108950	0.066119	0.065756	226.204	38423	0.061704	0.131988	1713.82	96626.7
362	2.000000	1.119366	7.36861e+06	-56739.1	955.818	-29738.6	0.000000	0.000000	7.131440	285.277	NaN	0.000000	0.001607	0.001705	28.0818	77.3268	0.001817	42555.5	5.258471	172.304	283.185	1.118971	0.076172	0.075777	285.277	42555.5	0.071144	0.168774	1690.29	94640.2
362	2.000000	1.129320	7.36861e+06	-56739.1	955.818	-29738.6	0.000000	0.000000	7.143954	347.502	NaN	0.000000	0.001602	0.001738	28.0816	85.9179	0.001745	49244.5	-0.015971	175.811	344.951	1.129040	0.086126	0.085846	347.502	49244.5	0.080833	0.210928	1647.5	97963.4
362	2.000000	1.139375	7.36861e+06	-56739.1	955.818	-29738.6	0.000000	0.000000	7.157188	424.769	NaN	0.000000	0.001593	0.001731	28.0803	96.988	0.001784	54367	1.688732	173.571	426.809	1.139210	0.096181	0.096016	424.769	54367	0.090321	0.256438	1656.42	98088.3
362	2.000000	1.149305	7.36861e+06	-56739.1	955.818	-29738.6	0.000000	0.000000	7.170798	514.206	NaN	0.000000	0.001619	0.001754	28.0803	106.354	0.001799	59115	4.083383	170.671	513.434	1.149083	0.106112	0.105889	514.206	59115	0.099588	0.304874	1686.62	97816.2
362	2.000000	1.150221	7.36861e+06	-56739.1	955.817	-29738.6	0.000000	0.000000	7.172606	535.906	NaN	0.000000	0.001627	0.001740	28.0806	106.873	0.001886	56669.1	3.748580	171.854	529.574	1.149839	0.107027	0.106645	535.906	56669.1	0.099934	0.306761	1746.98	93480.1