Folder: unikorn_login/remote_trans/data/nanoindenter/0828-1/data/Data_2025-08-06,11h17m57s (part 23)

File: 2025-07-22_16-23-58_1_44.txt
2025-07-22, 16:23:58, 1
Index	Phase	Displacement	Time	Pos X	Pos Y	Pos Z	Rot A	Rot B	Piezo Z	Force A	Force B	Gripper	Voltage A	Voltage B	Temperature	Amplitude force	Amplitude pos	Stiffness	Phase shift	Phase excitation	Force A raw	Displacement raw	HMax	HMax raw	Real Force	Real Stiffness	Contact Depth	Area	Hardness	Reduced Mod.
[#]	[#]	[um]	[s]	[um]	[um]	[um]	[m°]	[m°]	[um]	[uN]	[uN]	[V]	[V]	[V]	[°C]	[uN]	[um]	[N/m]	[°]	[°]	[uN]	[um]	[um]	[um]	[uN]	[N/m]	[um]	[um^2]	[MPa]	[MPa]
44	1.000000	0.002324	7.36547e+06	-40839.1	955.818	-29789.1	0.000000	0.000000	6.002817	-0.017280	NaN	0.000000	0.001592	0.001671	28.079	0.098929	0.000925	106.984	26.7951	-175.649	-0.069534	0.001085	-1.097381	-1.098621	-0.017280	106.984	-1.097260	-4.605632E+14	3.751834E-17	NaN
44	1.000000	0.044257	7.36547e+06	-40839.1	955.818	-29789.1	0.000000	0.000000	6.044748	-0.058654	NaN	0.000000	0.001602	0.001727	28.0964	0.133058	0.001845	72.1276	41.7725	12.7043	0.011086	0.042945	-1.055448	-1.056761	-0.058654	72.1276	-1.054838	-1.240083E+14	4.729839E-16	NaN
44	1.000000	0.086290	7.36547e+06	-40839.1	955.817	-29789.1	0.000000	0.000000	6.086781	-0.044983	NaN	0.000000	0.001582	0.001700	28.1318	0.123667	0.002056	60.1613	-66.9023	-164.524	-0.108459	0.084963	-1.013416	-1.014742	-0.044983	60.1613	-1.012855	-3.379112E+13	1.331200E-15	NaN
44	1.000000	0.128301	7.36547e+06	-40839.1	955.817	-29789.1	0.000000	0.000000	6.128796	0.041358	NaN	0.000000	0.001605	0.001748	28.1022	0.024461	0.002075	11.7893	-48.5385	16.3604	0.026971	0.126953	-0.971404	-0.972753	0.041358	11.7893	-0.974035	-1.014017E+13	-4.078663E-15	NaN
44	1.000000	0.170306	7.36547e+06	-40839.1	955.818	-29789.1	0.000000	0.000000	6.170800	0.022230	NaN	0.000000	0.001573	0.001699	28.0803	0.093409	0.002084	44.8293	154.363	-166.151	0.014606	0.168992	-0.929400	-0.930714	0.022230	44.8293	-0.929771	-2.565149E+12	-8.666355E-15	NaN
44	1.000000	0.212335	7.36547e+06	-40839.1	955.818	-29789.1	0.000000	0.000000	6.212826	-0.053803	NaN	0.000000	0.001596	0.001696	28.094	0.064947	0.001944	33.4049	-126.126	17.7622	-0.088791	0.211043	-0.887371	-0.888662	-0.053803	33.4049	-0.886163	-6.607495E+11	8.142756E-14	NaN
44	1.000000	0.254355	7.36547e+06	-40839.1	955.819	-29789.1	0.000000	0.000000	6.254847	-0.003792	NaN	0.000000	0.001623	0.001733	28.131	0.097044	0.001890	51.3408	-36.9199	-162.081	-0.060981	0.253080	-0.845351	-0.846626	-0.003792	51.3408	-0.845296	-1.849391E+11	2.050349E-14	NaN
44	1.000000	0.296365	7.36547e+06	-40839.1	955.818	-29789.1	0.000000	0.000000	6.296858	-0.002160	NaN	0.000000	0.001623	0.001706	28.1051	0.094535	0.002007	47.0934	15.8451	13.0462	-0.011186	0.295017	-0.803340	-0.804689	-0.002160	47.0934	-0.803306	-4.985777E+10	4.332269E-14	NaN
44	1.000000	0.338376	7.36547e+06	-40839.1	955.818	-29789.1	0.000000	0.000000	6.338869	-0.017653	NaN	0.000000	0.001623	0.001729	28.0805	0.037627	0.002053	18.3241	27.8172	-167.984	-0.010363	0.337023	-0.761329	-0.762683	-0.017653	18.3241	-0.760607	-1.310865E+10	1.346667E-12	NaN
44	1.000000	0.380393	7.36547e+06	-40839.1	955.818	-29789.1	0.000000	0.000000	6.380885	-0.028186	NaN	0.000000	0.001626	0.001757	28.0934	0.033384	0.001982	16.8414	97.5386	10.9331	-0.014879	0.379040	-0.719313	-0.720665	-0.028186	16.8414	-0.718057	-3.451275E+9	8.166923E-12	NaN
44	1.000000	0.422420	7.36548e+06	-40839.1	955.818	-29789.1	0.000000	0.000000	6.422913	0.004893	NaN	0.000000	0.001554	0.001715	28.1301	0.030250	0.002032	14.8884	159.531	-169.028	-0.001654	0.421127	-0.677286	-0.678578	0.004893	14.8884	-0.677533	-9.648431E+8	-5.071237E-12	NaN
44	1.000000	0.464432	7.36548e+06	-40839.1	955.819	-29789.1	0.000000	0.000000	6.464924	-0.035997	NaN	0.000000	0.001579	0.001706	28.1032	0.061630	0.001912	32.2296	-61.3463	13.2981	-0.027379	0.463119	-0.635273	-0.636587	-0.035997	32.2296	-0.634435	-2.476982E+8	1.453259E-10	NaN
44	1.000000	0.506451	7.36548e+06	-40839.1	955.819	-29789.1	0.000000	0.000000	6.506941	-0.072256	NaN	0.000000	0.001622	0.001730	28.0812	0.036499	0.001803	20.247	-58.047	-167.41	-0.016420	0.505141	-0.593255	-0.594565	-0.072256	20.247	-0.590578	-6.174977E+7	1.170147E-9	NaN
44	1.000000	0.548461	7.36548e+06	-40839.1	955.818	-29789.1	0.000000	0.000000	6.548955	0.029837	NaN	0.000000	0.001630	0.001701	28.0921	0.108638	0.001948	55.7628	-82.8677	15.3624	0.012817	0.547129	-0.551245	-0.552577	0.029837	55.7628	-0.551646	-1.789600E+7	-1.667243E-9	NaN
44	1.000000	0.590486	7.36548e+06	-40839.1	955.819	-29789.1	0.000000	0.000000	6.590981	0.028428	NaN	0.000000	0.001597	0.001721	28.1311	0.080746	0.002032	39.7414	17.3936	-165.957	0.026370	0.589187	-0.509219	-0.510519	0.028428	39.7414	-0.509756	-4.6883e+06	-6.063515E-9	NaN
44	1.000000	0.632525	7.36548e+06	-40839.1	955.818	-29789.1	0.000000	0.000000	6.633016	-0.054299	NaN	0.000000	0.001580	0.001726	28.1057	0.027897	0.002077	13.4306	-76.8422	13.642	-0.053494	0.631152	-0.467180	-0.468554	-0.054299	13.4306	-0.464148	-1.07966e+06	5.029253E-8	NaN
44	1.000000	0.674550	7.36548e+06	-40839.1	955.819	-29789.1	0.000000	0.000000	6.675042	-0.021209	NaN	0.000000	0.001583	0.001724	28.0797	0.065417	0.001943	33.6629	133.436	-165.302	-0.028441	0.673241	-0.425155	-0.426465	-0.021209	33.6629	-0.424683	-299772	7.074944E-8	NaN
44	1.000000	0.716530	7.36548e+06	-40839.1	955.817	-29789.1	0.000000	0.000000	6.717022	-0.040021	NaN	0.000000	0.001596	0.001750	28.0909	0.120992	0.002092	57.8279	-83.3942	12.2669	-0.072344	0.715193	-0.383175	-0.384513	-0.040021	57.8279	-0.382656	-75508	5.300284E-7	NaN
44	1.000000	0.758551	7.36548e+06	-40839.1	955.818	-29789.1	0.000000	0.000000	6.759044	-0.007215	NaN	0.000000	0.001599	0.001727	28.1308	0.104172	0.002064	50.471	97.6568	-166.7	-0.021836	0.757216	-0.341154	-0.342489	-0.007215	50.471	-0.341047	-18915.3	3.814241E-7	NaN
44	1.000000	0.800591	7.36548e+06	-40839.1	955.818	-29789.1	0.000000	0.000000	6.801085	0.018219	NaN	0.000000	0.001570	0.001705	28.1058	0.036874	0.002055	17.9467	-157.589	15.1813	0.017242	0.799168	-0.299114	-0.300538	0.018219	17.9467	-0.299876	-4685.83	-3.888051E-6	NaN
44	1.000000	0.842591	7.36548e+06	-40839.1	955.818	-29789.1	0.000000	0.000000	6.843083	-0.049139	NaN	0.000000	0.001619	0.001752	28.0825	0.028661	0.001885	15.2028	135.864	-165.049	-0.048330	0.841293	-0.257114	-0.258413	-0.049139	15.2028	-0.254690	-971.275	5.059228E-5	NaN
44	1.000000	0.884631	7.36548e+06	-40839.1	955.82	-29789.1	0.000000	0.000000	6.885122	-0.037130	NaN	0.000000	0.001650	0.001721	28.0913	0.057883	0.002015	28.7325	-0.332817	14.5886	-0.003102	0.883253	-0.215075	-0.216453	-0.037130	28.7325	-0.214106	-223.419	0.000166	NaN
44	1.000000	0.926620	7.36548e+06	-40839.1	955.818	-29789.1	0.000000	0.000000	6.927113	0.007524	NaN	0.000000	0.001656	0.001719	28.1311	0.209405	0.002050	102.166	-23.988	-164.564	-0.051863	0.925269	-0.173086	-0.174436	0.007524	102.166	-0.173141	-46.5566	-0.000162	NaN
44	1.000000	0.968632	7.36548e+06	-40839.1	955.818	-29789.1	0.000000	0.000000	6.969123	-0.038219	NaN	0.000000	0.001569	0.001677	28.1065	0.087161	0.001937	44.9956	-81.3236	13.7246	-0.094130	0.967295	-0.131074	-0.132411	-0.038219	44.9956	-0.130437	-7.771299	0.004918	NaN
44	1.000000	1.010670	7.36548e+06	-40839.1	955.818	-29789.1	0.000000	0.000000	7.011163	-0.017018	NaN	0.000000	0.001583	0.001683	28.0816	0.131785	0.001953	67.4861	113.166	-167.475	-0.049661	1.009319	-0.089035	-0.090387	-0.017018	67.4861	-0.088846	-1.015435	0.016759	NaN
44	1.000000	1.052685	7.36548e+06	-40839.1	955.819	-29789.1	0.000000	0.000000	7.053177	-0.033433	NaN	0.000000	0.001596	0.001686	28.0901	0.051841	0.001968	26.3374	-1.776846	12.8655	0.010041	1.051343	-0.047021	-0.048363	-0.033433	26.3374	-0.046069	-0.069289	0.482515	NaN
44	1.000000	1.094704	7.36548e+06	-40839.1	955.818	-29789.1	0.000000	0.000000	7.095198	0.017780	NaN	0.000000	0.001669	0.001665	28.131	0.043400	0.001952	22.2379	38.6688	-163.809	-0.077059	1.093404	-0.005002	-0.006302	0.017780	22.2379	-0.005601	-0.003791	-4.689617	NaN
44	2.000000	1.116720	7.36548e+06	-40839.1	955.819	-29789.1	0.000000	0.000000	7.117971	18.4498	NaN	0.000000	0.001652	0.001636	28.1073	16.4538	0.001826	9008.7	3.938663	6.458525	17.9664	1.116426	0.017014	0.016720	18.4498	9008.7	0.015478	0.015928	1158.3	65215.5
44	2.000000	1.127168	7.36548e+06	-40839.1	955.819	-29789.1	0.000000	0.000000	7.129483	44.3244	NaN	0.000000	0.001654	0.001628	28.082	27.2913	0.001799	15171.1	4.232732	-179.067	43.9132	1.126851	0.027463	0.027145	44.3244	15171.1	0.025272	0.031512	1406.61	78082.8
44	2.000000	1.137612	7.36548e+06	-40839.1	955.819	-29789.1	0.000000	0.000000	7.141387	79.8633	NaN	0.000000	0.001665	0.001658	28.0886	37.9322	0.001851	20492.9	4.690026	-1.836155	77.535	1.137323	0.037906	0.037618	79.8633	20492.9	0.034983	0.051707	1544.54	82338.5
44	2.000000	1.148073	7.36548e+06	-40839.1	955.819	-29789.1	0.000000	0.000000	7.153581	122.046	NaN	0.000000	0.001653	0.001699	28.1278	47.2481	0.001761	26831.1	4.807611	175.375	120.559	1.147867	0.048367	0.048161	122.046	26831.1	0.044955	0.077461	1575.58	88078.7
44	2.000000	1.158594	7.36548e+06	-40839.1	955.818	-29789.1	0.000000	0.000000	7.166420	178.437	NaN	0.000000	0.001602	0.001670	28.1093	57.2479	0.001770	32347.3	4.700501	-4.803958	177.028	1.158153	0.058888	0.058448	178.437	32347.3	0.054751	0.107661	1657.4	90070.3
44	2.000000	1.169045	7.36548e+06	-40839.1	955.818	-29789.1	0.000000	0.000000	7.179569	244.075	NaN	0.000000	0.001577	0.001687	28.0804	66.6291	0.001785	37331.7	2.134706	176.442	241.572	1.168732	0.069340	0.069026	244.075	37331.7	0.064436	0.142195	1716.49	90450.2
44	2.000000	1.179631	7.36548e+06	-40839.1	955.819	-29789.1	0.000000	0.000000	7.192515	301.516	NaN	0.000000	0.001610	0.001719	28.0903	78.5071	0.001808	43424.2	3.412421	-6.831770	302.105	1.179328	0.079925	0.079622	301.516	43424.2	0.074717	0.183806	1640.41	92539.1
44	2.000000	1.190129	7.36548e+06	-40839.1	955.819	-29789.1	0.000000	0.000000	7.206106	376.776	NaN	0.000000	0.001597	0.001647	28.1286	87.8546	0.001782	49307.3	4.235940	171.877	380.014	1.189726	0.090423	0.090020	376.776	49307.3	0.084692	0.228934	1645.78	94151.9
44	2.000000	1.200453	7.36548e+06	-40839.1	955.819	-29789.1	0.000000	0.000000	7.219931	461.976	NaN	0.000000	0.001615	0.001646	28.1114	97.3819	0.001849	52673.1	6.460805	-10.9585	453.547	1.200014	0.100747	0.100309	461.976	52673.1	0.094169	0.276074	1673.38	91590.2
44	2.000000	1.208458	7.36548e+06	-40839.1	955.818	-29789.1	0.000000	0.000000	7.230717	529.618	NaN	0.000000	0.001581	0.001654	28.1082	101.811	0.001784	57078.7	3.837510	-8.735681	522.128	1.208225	0.108753	0.108519	529.618	57078.7	0.101794	0.316979	1670.83	92625.8

File: 2025-07-22_16-23-58_1_45.txt
2025-07-22, 16:23:58, 1
Index	Phase	Displacement	Time	Pos X	Pos Y	Pos Z	Rot A	Rot B	Piezo Z	Force A	Force B	Gripper	Voltage A	Voltage B	Temperature	Amplitude force	Amplitude pos	Stiffness	Phase shift	Phase excitation	Force A raw	Displacement raw	HMax	HMax raw	Real Force	Real Stiffness	Contact Depth	Area	Hardness	Reduced Mod.
[#]	[#]	[um]	[s]	[um]	[um]	[um]	[m°]	[m°]	[um]	[uN]	[uN]	[V]	[V]	[V]	[°C]	[uN]	[um]	[N/m]	[°]	[°]	[uN]	[um]	[um]	[um]	[uN]	[N/m]	[um]	[um^2]	[MPa]	[MPa]
45	1.000000	0.002126	7.36548e+06	-40889.1	955.818	-29789	0.000000	0.000000	6.002835	0.090082	NaN	0.000000	0.001611	0.001700	28.083	0.106746	0.000966	110.529	134.013	-163.279	0.022044	0.000824	-0.947451	-0.948753	0.090082	110.529	-0.948063	-4.527925E+12	-1.989476E-14	NaN
45	1.000000	0.038087	7.36548e+06	-40889.1	955.818	-29789	0.000000	0.000000	6.038794	0.046102	NaN	0.000000	0.001686	0.001679	28.1247	0.033810	0.002041	16.5685	59.1847	-165.654	0.103792	0.036777	-0.911490	-0.912800	0.046102	16.5685	-0.913577	-1.550514E+12	-2.973360E-14	NaN
45	1.000000	0.074066	7.36548e+06	-40889.1	955.818	-29789	0.000000	0.000000	6.074774	0.085902	NaN	0.000000	0.001663	0.001666	28.0811	0.042547	0.002015	21.1172	136.672	-165.199	-0.021358	0.072712	-0.875511	-0.876865	0.085902	21.1172	-0.878562	-5.215112E+11	-1.647170E-13	NaN
45	1.000000	0.110060	7.36548e+06	-40889.1	955.818	-29789	0.000000	0.000000	6.110768	0.058829	NaN	0.000000	0.001620	0.001710	28.1241	0.078141	0.001825	42.8184	-9.252781	-166.8	0.049494	0.108759	-0.839517	-0.840818	0.058829	42.8184	-0.840548	-1.594819E+11	-3.688756E-13	NaN
45	1.000000	0.146094	7.36548e+06	-40889.1	955.818	-29789	0.000000	0.000000	6.146801	0.035607	NaN	0.000000	0.001590	0.001716	28.0791	0.096663	0.001805	53.5518	-43.1567	-164.585	0.103564	0.144787	-0.803483	-0.804791	0.035607	53.5518	-0.803982	-5.092228E+10	-6.992381E-13	NaN
45	1.000000	0.182094	7.36548e+06	-40889.1	955.819	-29789	0.000000	0.000000	6.182801	0.057060	NaN	0.000000	0.001582	0.001717	28.124	0.122881	0.001970	62.3726	83.543	-165.687	0.041226	0.180754	-0.767484	-0.768823	0.057060	62.3726	-0.768170	-1.661186E+10	-3.434870E-12	NaN
45	1.000000	0.218117	7.36548e+06	-40889.1	955.817	-29789	0.000000	0.000000	6.218823	0.007513	NaN	0.000000	0.001597	0.001709	28.0796	0.072427	0.002000	36.2123	158.574	-166.783	-0.024723	0.216834	-0.731460	-0.732744	0.007513	36.2123	-0.731616	-5.282330E+9	-1.422210E-12	NaN
45	1.000000	0.254132	7.36548e+06	-40889.1	955.818	-29789	0.000000	0.000000	6.254837	-0.001126	NaN	0.000000	0.001581	0.001698	28.1241	0.053316	0.001986	26.84	123.824	-167.461	0.037118	0.252789	-0.695445	-0.696789	-0.001126	26.84	-0.695414	-1.693895E+9	6.650163E-13	NaN
45	1.000000	0.290164	7.36548e+06	-40889.1	955.818	-29789	0.000000	0.000000	6.290870	0.024026	NaN	0.000000	0.001575	0.001667	28.0799	0.091652	0.001926	47.5753	109.607	-166.53	0.005858	0.288852	-0.659414	-0.660725	0.024026	47.5753	-0.659792	-5.516026E+8	-4.355703E-11	NaN
45	1.000000	0.326151	7.36548e+06	-40889.1	955.818	-29789	0.000000	0.000000	6.326854	-0.053510	NaN	0.000000	0.001592	0.001615	28.1243	0.048554	0.001950	24.8951	-67.5276	-168.38	-0.021609	0.324844	-0.623426	-0.624733	-0.053510	24.8951	-0.621814	-1.661768E+8	3.220054E-10	NaN
45	1.000000	0.362177	7.36548e+06	-40889.1	955.817	-29789	0.000000	0.000000	6.362884	0.052835	NaN	0.000000	0.001580	0.001715	28.0793	0.091572	0.002069	44.2567	148.719	-165.317	0.029359	0.360859	-0.587401	-0.588718	0.052835	44.2567	-0.588296	-5.743439E+7	-9.199276E-10	NaN
45	1.000000	0.398203	7.36548e+06	-40889.1	955.818	-29789	0.000000	0.000000	6.398912	0.106077	NaN	0.000000	0.001579	0.001665	28.1219	0.038880	0.001990	19.5376	53.1873	-163.83	0.119568	0.396875	-0.551375	-0.552702	0.106077	19.5376	-0.555447	-2.020094E+7	-5.251088E-9	NaN
45	1.000000	0.434192	7.36548e+06	-40889.1	955.818	-29789	0.000000	0.000000	6.434899	0.038040	NaN	0.000000	0.001597	0.001706	28.0808	0.114566	0.001802	63.5928	93.8169	-167.993	0.020089	0.432928	-0.515385	-0.516649	0.038040	63.5928	-0.515834	-5.69684e+06	-6.677443E-9	NaN
45	1.000000	0.470235	7.36549e+06	-40889.1	955.817	-29789	0.000000	0.000000	6.470939	-0.027894	NaN	0.000000	0.001552	0.001719	28.1205	0.087438	0.002090	41.8461	169.061	-162.381	-0.041903	0.468933	-0.479343	-0.480644	-0.027894	41.8461	-0.478843	-1.7351e+06	1.607627E-8	NaN
45	1.000000	0.506243	7.36549e+06	-40889.1	955.818	-29789	0.000000	0.000000	6.506950	0.031379	NaN	0.000000	0.001562	0.001667	28.0819	0.063051	0.001916	32.9122	141.093	-165.469	0.079552	0.504924	-0.443334	-0.444653	0.031379	32.9122	-0.444049	-562967	-5.573897E-8	NaN
45	1.000000	0.542269	7.36549e+06	-40889.1	955.818	-29789	0.000000	0.000000	6.542977	0.075533	NaN	0.000000	0.001561	0.001643	28.1215	0.063430	0.001932	32.8235	76.1544	-169.191	0.076231	0.540936	-0.407308	-0.408642	0.075533	32.8235	-0.409034	-179748	-4.202143E-7	NaN
45	1.000000	0.578268	7.36549e+06	-40889.1	955.819	-29789	0.000000	0.000000	6.578970	-0.065650	NaN	0.000000	0.001608	0.001659	28.0809	0.017114	0.002001	8.552843	117.947	-165.75	-0.007981	0.576990	-0.371309	-0.372588	-0.065650	8.552843	-0.365553	-42857.3	1.531830E-6	NaN
45	1.000000	0.614289	7.36549e+06	-40889.1	955.817	-29789	0.000000	0.000000	6.614997	0.079740	NaN	0.000000	0.001617	0.001669	28.1213	0.097540	0.002020	48.2833	-86.0235	-165.097	0.066443	0.612966	-0.335289	-0.336611	0.079740	48.2833	-0.336527	-16251.4	-4.906670E-6	NaN
45	1.000000	0.650301	7.36549e+06	-40889.1	955.817	-29789	0.000000	0.000000	6.651009	0.073394	NaN	0.000000	0.001618	0.001769	28.0804	0.034779	0.002026	17.1656	130.117	-166.837	0.107109	0.648998	-0.299277	-0.300580	0.073394	17.1656	-0.302483	-5123.59	-1.432465E-5	NaN
45	1.000000	0.686299	7.36549e+06	-40889.1	955.817	-29789	0.000000	0.000000	6.687006	0.063055	NaN	0.000000	0.001577	0.001711	28.1198	0.093460	0.001983	47.1399	-20.7064	-165.896	0.008157	0.685055	-0.263279	-0.264522	0.063055	47.1399	-0.264282	-1362.78	-4.626934E-5	NaN
45	1.000000	0.722333	7.36549e+06	-40889.1	955.819	-29789	0.000000	0.000000	6.723038	-0.003334	NaN	0.000000	0.001628	0.001728	28.0805	0.051472	0.002059	24.9939	-5.937468	-168.391	0.008158	0.721003	-0.227244	-0.228574	-0.003334	24.9939	-0.227144	-360.868	9.238007E-6	NaN
45	1.000000	0.758338	7.36549e+06	-40889.1	955.818	-29789	0.000000	0.000000	6.759043	-0.000783	NaN	0.000000	0.001601	0.001672	28.12	0.087162	0.001988	43.8414	95.7018	-167.6	0.017364	0.757055	-0.191239	-0.192522	-0.000783	43.8414	-0.191226	-94.2931	8.304251E-6	NaN
45	1.000000	0.794350	7.36549e+06	-40889.1	955.818	-29789	0.000000	0.000000	6.795056	0.029282	NaN	0.000000	0.001622	0.001729	28.082	0.013647	0.002076	6.573681	-53.622	-165.738	0.006654	0.793069	-0.155227	-0.156508	0.029282	6.573681	-0.158568	-25.8521	-0.001133	NaN
45	1.000000	0.830376	7.36549e+06	-40889.1	955.819	-29789	0.000000	0.000000	6.831084	0.063148	NaN	0.000000	0.001604	0.001718	28.1215	0.026693	0.001824	14.6344	135.546	-166.689	0.061595	0.829065	-0.119201	-0.120512	0.063148	14.6344	-0.122438	-5.408023	-0.011677	NaN
45	1.000000	0.866410	7.36549e+06	-40889.1	955.818	-29789	0.000000	0.000000	6.867114	-0.043268	NaN	0.000000	0.001624	0.001675	28.0811	0.019020	0.002094	9.084840	134.574	-165.873	-0.007427	0.865073	-0.083167	-0.084504	-0.043268	9.084840	-0.079595	-0.604700	0.071553	NaN
45	1.000000	0.902369	7.36549e+06	-40889.1	955.818	-29789	0.000000	0.000000	6.903075	0.034085	NaN	0.000000	0.001599	0.001716	28.1213	0.099171	0.002103	47.1621	61.7714	-167.362	0.050209	0.901074	-0.047208	-0.048503	0.034085	47.1621	-0.047750	-0.077975	-0.437131	NaN
45	1.000000	0.938412	7.36549e+06	-40889.1	955.819	-29789	0.000000	0.000000	6.939117	0.007512	NaN	0.000000	0.001588	0.001690	28.0803	0.062276	0.001975	31.5249	-163.206	-169.07	0.010452	0.937169	-0.011165	-0.012409	0.007512	31.5249	-0.011344	-0.007154	-1.050011	NaN
45	2.000000	0.967014	7.36549e+06	-40889.1	955.818	-29789	0.000000	0.000000	6.968257	13.0939	NaN	0.000000	0.001588	0.001719	28.1197	12.8048	0.001737	7371.94	7.409321	-173.688	12.7789	0.966821	0.017437	0.017244	13.0939	7371.94	0.016105	0.016787	780.003	51983.9
45	2.000000	0.975963	7.36549e+06	-40889.1	955.819	-29789	0.000000	0.000000	6.978262	38.7788	NaN	0.000000	0.001635	0.001666	28.0803	21.925	0.001743	12577.5	4.724960	-177.757	39.2583	0.975691	0.026386	0.026114	38.7788	12577.5	0.024074	0.029352	1321.15	67072.9
45	2.000000	0.984943	7.36549e+06	-40889.1	955.818	-29789	0.000000	0.000000	6.988147	60.8048	NaN	0.000000	0.001651	0.001675	28.1202	29.5668	0.001744	16954	6.702058	178.825	61.811	0.984565	0.035366	0.034987	60.8048	16954	0.032676	0.046474	1308.37	71852.6
45	2.000000	0.993863	7.36549e+06	-40889.1	955.819	-29789	0.000000	0.000000	6.997830	79.3694	NaN	0.000000	0.001546	0.001734	28.0806	39.12	0.001834	21332.4	4.738266	177.143	77.6846	0.993655	0.044286	0.044077	79.3694	21332.4	0.041495	0.067949	1168.06	74768.6
45	2.000000	1.002897	7.36549e+06	-40889.1	955.818	-29789	0.000000	0.000000	7.008134	110.285	NaN	0.000000	0.001578	0.001734	28.1199	47.0946	0.001820	25883.2	4.957811	175.69	110.733	1.002565	0.053320	0.052988	110.285	25883.2	0.050124	0.092796	1188.46	77629.2
45	2.000000	1.011861	7.36549e+06	-40889.1	955.819	-29789	0.000000	0.000000	7.018836	152.563	NaN	0.000000	0.001617	0.001668	28.0823	54.7587	0.001823	30035.8	5.127700	174.825	151.979	1.011598	0.062284	0.062021	152.563	30035.8	0.058474	0.120393	1267.21	79088.1
45	2.000000	1.020798	7.36549e+06	-40889.1	955.82	-29789	0.000000	0.000000	7.029866	203.498	NaN	0.000000	0.001559	0.001725	28.1176	64.1475	0.001690	37961.3	2.422378	173.071	199.678	1.020513	0.071221	0.070935	203.498	37961.3	0.067200	0.152886	1331.04	88701.2
45	2.000000	1.029816	7.36549e+06	-40889.1	955.82	-29789	0.000000	0.000000	7.041225	260.463	NaN	0.000000	0.001595	0.001692	28.0818	72.6635	0.001675	43391	4.369782	171.943	257.017	1.029615	0.080238	0.080038	260.463	43391	0.075736	0.188202	1383.95	91382
45	2.000000	1.038920	7.36549e+06	-40889.1	955.819	-29789	0.000000	0.000000	7.052554	314.601	NaN	0.000000	0.001623	0.001714	28.1181	79.2944	0.001675	47353.8	5.294640	172.269	315.601	1.038409	0.089343	0.088832	314.601	47353.8	0.084360	0.227360	1383.71	90734.2
45	2.000000	1.047758	7.36549e+06	-40889.1	955.819	-29789	0.000000	0.000000	7.063706	370.921	NaN	0.000000	0.001630	0.001692	28.0818	89.7385	0.001781	50393.4	3.145079	172.282	366.044	1.047544	0.098180	0.097967	370.921	50393.4	0.092660	0.268292	1382.53	88888
45	2.000000	1.056815	7.36549e+06	-40889.1	955.819	-29789	0.000000	0.000000	7.075612	440.237	NaN	0.000000	0.001615	0.001684	28.1178	97.7962	0.001906	51300.3	4.754397	170.889	438.704	1.056483	0.107238	0.106906	440.237	51300.3	0.100802	0.311508	1413.24	83976.5
45	2.000000	1.062762	7.36549e+06	-40889.1	955.82	-29789	0.000000	0.000000	7.083374	484.413	NaN	0.000000	0.001589	0.001695	28.1187	101.023	0.001769	57091.5	4.275265	170.414	480.578	1.062431	0.113185	0.112854	484.413	57091.5	0.106821	0.345396	1402.49	88753.6