Folder: unikorn_login/remote_trans/data/nanoindenter/0828-1/data/Data_2025-08-06,11h17m57s (part 22)

File: 2025-07-22_16-23-58_1_42.txt
2025-07-22, 16:23:58, 1
Index	Phase	Displacement	Time	Pos X	Pos Y	Pos Z	Rot A	Rot B	Piezo Z	Force A	Force B	Gripper	Voltage A	Voltage B	Temperature	Amplitude force	Amplitude pos	Stiffness	Phase shift	Phase excitation	Force A raw	Displacement raw	HMax	HMax raw	Real Force	Real Stiffness	Contact Depth	Area	Hardness	Reduced Mod.
[#]	[#]	[um]	[s]	[um]	[um]	[um]	[m°]	[m°]	[um]	[uN]	[uN]	[V]	[V]	[V]	[°C]	[uN]	[um]	[N/m]	[°]	[°]	[uN]	[um]	[um]	[um]	[uN]	[N/m]	[um]	[um^2]	[MPa]	[MPa]
42	1.000000	0.002464	7.36545e+06	-40739.1	955.819	-29789.4	0.000000	0.000000	6.002789	-0.015282	NaN	0.000000	0.001616	0.001789	28.082	0.057115	0.000843	67.7616	-17.2849	-163.079	-0.034859	0.001223	-1.118797	-1.120038	-0.015282	67.7616	-1.118628	-8.913707E+14	1.714469E-17	NaN
42	1.000000	0.044429	7.36545e+06	-40739.1	955.819	-29789.4	0.000000	0.000000	6.044751	-0.090169	NaN	0.000000	0.001629	0.001770	28.1163	0.065840	0.001891	34.814	158.295	15.8674	-0.086068	0.043025	-1.076831	-1.078235	-0.090169	34.814	-1.074889	-2.306015E+14	3.910173E-16	NaN
42	1.000000	0.086435	7.36545e+06	-40739.1	955.819	-29789.4	0.000000	0.000000	6.086760	-0.005381	NaN	0.000000	0.001659	0.001761	28.1267	0.057801	0.002031	28.4598	162.149	-167.468	-0.057877	0.085148	-1.034825	-1.036113	-0.005381	28.4598	-1.034684	-6.644689E+13	8.097901E-17	NaN
42	1.000000	0.128469	7.36545e+06	-40739.1	955.819	-29789.5	0.000000	0.000000	6.128795	0.018441	NaN	0.000000	0.001645	0.001786	28.0891	0.036130	0.002000	18.0649	107.056	18.3596	-0.056269	0.127081	-0.992791	-0.994179	0.018441	18.0649	-0.993557	-1.857874E+13	-9.926012E-16	NaN
42	1.000000	0.170458	7.36545e+06	-40739.1	955.819	-29789.5	0.000000	0.000000	6.170783	-0.027434	NaN	0.000000	0.001634	0.001759	28.0831	0.088025	0.001924	45.7511	-31.1045	-167.016	-0.036023	0.169153	-0.950802	-0.952107	-0.027434	45.7511	-0.950352	-4.861624E+12	5.642978E-15	NaN
42	1.000000	0.212513	7.36545e+06	-40739.1	955.818	-29789.5	0.000000	0.000000	6.212835	-0.094916	NaN	0.000000	0.001608	0.001755	28.1156	0.153056	0.001908	80.2134	168.758	15.5316	-0.021073	0.211118	-0.908747	-0.910143	-0.094916	80.2134	-0.907859	-1.297926E+12	7.312896E-14	NaN
42	1.000000	0.254513	7.36545e+06	-40739.1	955.818	-29789.5	0.000000	0.000000	6.254840	0.022562	NaN	0.000000	0.001631	0.001838	28.1265	0.088447	0.002035	43.4666	61.8974	-167.576	0.071331	0.253177	-0.866747	-0.868084	0.022562	43.4666	-0.867136	-3.653389E+11	-6.175645E-14	NaN
42	1.000000	0.296538	7.36545e+06	-40739.1	955.818	-29789.5	0.000000	0.000000	6.296868	0.089746	NaN	0.000000	0.001595	0.001774	28.0869	0.070108	0.001958	35.8002	83.9163	13.6656	0.043953	0.295177	-0.824722	-0.826083	0.089746	35.8002	-0.826602	-1.032116E+11	-8.695309E-13	NaN
42	1.000000	0.338583	7.36546e+06	-40739.1	955.819	-29789.5	0.000000	0.000000	6.338908	-0.035423	NaN	0.000000	0.001587	0.001794	28.0823	0.055714	0.002214	25.169	130.458	-164.224	-0.066366	0.337259	-0.782677	-0.784001	-0.035423	25.169	-0.781621	-2.530824E+10	1.399656E-12	NaN
42	1.000000	0.380563	7.36546e+06	-40739.1	955.819	-29789.5	0.000000	0.000000	6.380884	-0.123090	NaN	0.000000	0.001630	0.001793	28.1147	0.047095	0.002047	23.0088	179.408	13.034	-0.056025	0.379211	-0.740697	-0.742049	-0.123090	23.0088	-0.736685	-6.192941E+9	1.987585E-11	NaN
42	1.000000	0.422579	7.36546e+06	-40739.1	955.818	-29789.5	0.000000	0.000000	6.422905	-0.002831	NaN	0.000000	0.001626	0.001770	28.1283	0.060897	0.002086	29.1874	-134.631	-163.171	-0.088298	0.421274	-0.698681	-0.699987	-0.002831	29.1874	-0.698608	-1.872953E+9	1.511490E-12	NaN
42	1.000000	0.464588	7.36546e+06	-40739.1	955.819	-29789.5	0.000000	0.000000	6.464913	-0.031198	NaN	0.000000	0.001620	0.001807	28.0869	0.101498	0.002084	48.7072	5.047577	16.8816	0.008444	0.463245	-0.656672	-0.658016	-0.031198	48.7072	-0.656192	-4.923738E+8	6.336268E-11	NaN
42	1.000000	0.506623	7.36546e+06	-40739.1	955.818	-29789.5	0.000000	0.000000	6.506947	-0.028058	NaN	0.000000	0.001631	0.001802	28.0825	0.082319	0.001910	43.0946	-27.2175	-167.678	-0.004656	0.505310	-0.614638	-0.615950	-0.028058	43.0946	-0.614149	-1.303737E+8	2.152118E-10	NaN
42	1.000000	0.548642	7.36546e+06	-40739.1	955.819	-29789.5	0.000000	0.000000	6.548967	-0.019700	NaN	0.000000	0.001629	0.001798	28.1114	0.026962	0.001951	13.8181	6.615825	17.3823	0.018900	0.547268	-0.572618	-0.573993	-0.019700	13.8181	-0.571549	-3.373150E+7	5.840310E-10	NaN
42	1.000000	0.590669	7.36546e+06	-40739.1	955.817	-29789.5	0.000000	0.000000	6.590995	-0.010976	NaN	0.000000	0.001614	0.001822	28.1285	0.008326	0.001931	4.312282	-65.0951	-163.955	-0.006373	0.589323	-0.530591	-0.531938	-0.010976	4.312282	-0.528682	-8.59548e+06	1.276947E-9	NaN
42	1.000000	0.632659	7.36546e+06	-40739.1	955.817	-29789.5	0.000000	0.000000	6.632983	-0.044891	NaN	0.000000	0.001637	0.001790	28.0883	0.049013	0.002012	24.3654	-179.051	16.9275	-0.088880	0.631316	-0.488601	-0.489945	-0.044891	24.3654	-0.487219	-2.27261e+06	1.975308E-8	NaN
42	1.000000	0.674696	7.36546e+06	-40739.1	955.818	-29789.5	0.000000	0.000000	6.675019	-0.060567	NaN	0.000000	0.001610	0.001785	28.0818	0.090573	0.001959	46.227	119.742	-165.273	-0.001324	0.673386	-0.446565	-0.447875	-0.060567	46.227	-0.445582	-591692	1.023629E-7	NaN
42	1.000000	0.716730	7.36546e+06	-40739.1	955.818	-29789.5	0.000000	0.000000	6.717054	-0.043870	NaN	0.000000	0.001593	0.001829	28.1121	0.093244	0.001989	46.8805	-128.074	17.3809	-0.018118	0.715402	-0.404530	-0.405858	-0.043870	46.8805	-0.403829	-151553	2.894703E-7	NaN
42	1.000000	0.758715	7.36546e+06	-40739.1	955.818	-29789.5	0.000000	0.000000	6.759038	-0.061985	NaN	0.000000	0.001589	0.001833	28.1298	0.076031	0.001928	39.4424	133.401	-162.26	-0.096577	0.757419	-0.362545	-0.363841	-0.061985	39.4424	-0.361367	-37290.4	1.662226E-6	NaN
42	1.000000	0.800768	7.36546e+06	-40739.1	955.818	-29789.5	0.000000	0.000000	6.801093	-0.036073	NaN	0.000000	0.001605	0.001790	28.088	0.049328	0.002023	24.382	172.933	14.8653	-0.034565	0.799402	-0.320492	-0.321858	-0.036073	24.382	-0.319382	-9110.55	3.959438E-6	NaN
42	1.000000	0.842755	7.36546e+06	-40739.1	955.818	-29789.5	0.000000	0.000000	6.843078	-0.078484	NaN	0.000000	0.001625	0.001766	28.0814	0.023640	0.002083	11.3463	178.036	-162.834	-0.082241	0.841428	-0.278505	-0.279832	-0.078484	11.3463	-0.273317	-1870.27	4.196399E-5	NaN
42	1.000000	0.884770	7.36546e+06	-40739.1	955.818	-29789.5	0.000000	0.000000	6.885091	-0.108423	NaN	0.000000	0.001656	0.001783	28.1093	0.124552	0.002015	61.8104	-129.484	13.6783	-0.066252	0.883402	-0.236491	-0.237858	-0.108423	61.8104	-0.235175	-483.056	0.000224	NaN
42	1.000000	0.926833	7.36546e+06	-40739.1	955.819	-29789.5	0.000000	0.000000	6.927155	-0.111078	NaN	0.000000	0.001628	0.001826	28.1301	0.019442	0.001962	9.910291	20.3465	-167.112	-0.121007	0.925478	-0.194427	-0.195782	-0.111078	9.910291	-0.186021	-77.1467	0.001440	NaN
42	1.000000	0.968803	7.36546e+06	-40739.1	955.819	-29789.5	0.000000	0.000000	6.969125	-0.094209	NaN	0.000000	0.001607	0.001786	28.0895	0.068132	0.002095	32.5166	-85.6933	14.4829	-0.120257	0.967452	-0.152457	-0.153808	-0.094209	32.5166	-0.150284	-18.3311	0.005139	NaN
42	1.000000	1.010849	7.36546e+06	-40739.1	955.82	-29789.5	0.000000	0.000000	7.011171	-0.079175	NaN	0.000000	0.001580	0.001813	28.0827	0.031989	0.002007	15.941	-18.2602	-166.267	-0.109578	1.009480	-0.110412	-0.111780	-0.079175	15.941	-0.106687	-2.555385	0.030984	NaN
42	1.000000	1.052836	7.36546e+06	-40739.1	955.819	-29789.5	0.000000	0.000000	7.053158	-0.077455	NaN	0.000000	0.001554	0.001818	28.1091	0.162657	0.002172	74.8835	-128.315	13.0452	-0.037771	1.051507	-0.068425	-0.069753	-0.077455	74.8835	-0.067649	-0.294703	0.262824	NaN
42	1.000000	1.094865	7.36546e+06	-40739.1	955.819	-29789.5	0.000000	0.000000	7.095189	-0.054019	NaN	0.000000	0.001609	0.001759	28.1294	0.062681	0.002124	29.5167	105.969	-164.954	-0.010393	1.093555	-0.026395	-0.027705	-0.054019	29.5167	-0.025023	-0.016893	3.197624	NaN
42	2.000000	1.130025	7.36546e+06	-40739.1	955.82	-29789.5	0.000000	0.000000	7.130790	10.6837	NaN	0.000000	0.001566	0.001796	28.0901	11.142	0.001679	6636.43	6.583478	6.647467	10.096	1.129726	0.008764	0.008466	10.6837	6636.43	0.007557	0.006591	1621.05	74686.9
42	2.000000	1.140440	7.36546e+06	-40739.1	955.82	-29789.5	0.000000	0.000000	7.142012	30.3104	NaN	0.000000	0.001572	0.001773	28.0833	22.8238	0.001825	12505.9	9.096653	-178.673	29.5478	1.140046	0.019180	0.018785	30.3104	12505.9	0.017362	0.018565	1632.63	83856.2
42	2.000000	1.150902	7.36546e+06	-40739.1	955.82	-29789.5	0.000000	0.000000	7.153555	56.6239	NaN	0.000000	0.001635	0.001756	28.1083	33.1334	0.001786	18547.3	5.395135	0.158920	54.4708	1.150477	0.029641	0.029217	56.6239	18547.3	0.027352	0.035433	1598.04	90021.6
42	2.000000	1.161335	7.36546e+06	-40739.1	955.82	-29789.5	0.000000	0.000000	7.165750	99.5028	NaN	0.000000	0.001629	0.001748	28.13	43.3113	0.001809	23947.5	4.762181	177.774	96.4441	1.161054	0.040075	0.039793	99.5028	23947.5	0.036958	0.056404	1764.11	92125.4
42	2.000000	1.171906	7.36546e+06	-40739.1	955.82	-29789.5	0.000000	0.000000	7.178075	142.186	NaN	0.000000	0.001666	0.001689	28.0907	53.0871	0.001720	30871.4	5.787498	-5.094602	142.392	1.171543	0.050646	0.050283	142.186	30871.4	0.047192	0.083930	1694.1	97357.6
42	2.000000	1.182401	7.36546e+06	-40739.1	955.82	-29789.5	0.000000	0.000000	7.191053	202.608	NaN	0.000000	0.001574	0.001713	28.0801	64.216	0.001834	35020.4	5.431669	174.566	200.962	1.181995	0.061140	0.060735	202.608	35020.4	0.056801	0.114588	1768.14	94520.2
42	2.000000	1.192908	7.36546e+06	-40739.1	955.82	-29789.5	0.000000	0.000000	7.204210	267.082	NaN	0.000000	0.001605	0.001698	28.1077	75.8312	0.001833	41365.6	6.889570	-8.677582	268.456	1.192606	0.071648	0.071346	267.082	41365.6	0.066805	0.151335	1764.84	97149.9
42	2.000000	1.203213	7.36546e+06	-40739.1	955.819	-29789.5	0.000000	0.000000	7.217202	332.467	NaN	0.000000	0.001573	0.001713	28.1293	84.3522	0.001754	48101.2	3.276626	173.72	326.588	1.203006	0.081953	0.081746	332.467	48101.2	0.076769	0.192709	1725.23	100110
42	2.000000	1.213775	7.36546e+06	-40739.1	955.819	-29789.5	0.000000	0.000000	7.231139	414.599	NaN	0.000000	0.001590	0.001705	28.0927	93.4143	0.001819	51359.2	3.427442	-6.233854	409.535	1.213523	0.092514	0.092262	414.599	51359.2	0.086460	0.237416	1746.3	96302.2
42	2.000000	1.224400	7.36546e+06	-40739.1	955.821	-29789.5	0.000000	0.000000	7.245135	496.61	NaN	0.000000	0.001582	0.001727	28.0804	104.699	0.001863	56194.7	6.407744	169.682	500.692	1.223967	0.103140	0.102707	496.61	56194.7	0.096512	0.288362	1722.17	95609.1
42	2.000000	1.226326	7.36546e+06	-40739.1	955.82	-29789.5	0.000000	0.000000	7.247860	516.066	NaN	0.000000	0.001585	0.001699	28.0808	106.19	0.001608	66021.8	2.855759	172.108	513.272	1.225989	0.105065	0.104728	516.066	66021.8	0.099203	0.302784	1704.4	109621

File: 2025-07-22_16-23-58_1_43.txt
2025-07-22, 16:23:58, 1
Index	Phase	Displacement	Time	Pos X	Pos Y	Pos Z	Rot A	Rot B	Piezo Z	Force A	Force B	Gripper	Voltage A	Voltage B	Temperature	Amplitude force	Amplitude pos	Stiffness	Phase shift	Phase excitation	Force A raw	Displacement raw	HMax	HMax raw	Real Force	Real Stiffness	Contact Depth	Area	Hardness	Reduced Mod.
[#]	[#]	[um]	[s]	[um]	[um]	[um]	[m°]	[m°]	[um]	[uN]	[uN]	[V]	[V]	[V]	[°C]	[uN]	[um]	[N/m]	[°]	[°]	[uN]	[um]	[um]	[um]	[uN]	[N/m]	[um]	[um^2]	[MPa]	[MPa]
43	1.000000	0.002580	7.36546e+06	-40789.1	955.818	-29789.2	0.000000	0.000000	6.002805	-0.018875	NaN	0.000000	0.001606	0.001713	28.1042	0.063153	0.000948	66.5926	54.6149	-158.036	-0.062461	0.001374	-1.135789	-1.136995	-0.018875	66.5926	-1.135577	-1.504584E+15	1.254488E-17	NaN
43	1.000000	0.044522	7.36546e+06	-40789.1	955.818	-29789.2	0.000000	0.000000	6.044746	-0.027567	NaN	0.000000	0.001626	0.001699	28.1306	0.135072	0.001993	67.7705	87.1762	16.1865	0.032303	0.043160	-1.093847	-1.095209	-0.027567	67.7705	-1.093542	-4.105517E+14	6.714691E-17	NaN
43	1.000000	0.086559	7.36546e+06	-40789.1	955.819	-29789.2	0.000000	0.000000	6.086783	-0.054993	NaN	0.000000	0.001595	0.001677	28.0946	0.146085	0.001975	73.9688	-178.977	-164.401	-0.058481	0.085191	-1.051810	-1.053178	-0.054993	73.9688	-1.051252	-1.109801E+14	4.955234E-16	NaN
43	1.000000	0.128548	7.36546e+06	-40789.1	955.818	-29789.2	0.000000	0.000000	6.128771	-0.069605	NaN	0.000000	0.001548	0.001704	28.0805	0.097171	0.002050	47.4099	34.752	16.7504	-0.043621	0.127226	-1.009821	-1.011143	-0.069605	47.4099	-1.008720	-2.972714E+13	2.341477E-15	NaN
43	1.000000	0.170566	7.36546e+06	-40789.1	955.819	-29789.2	0.000000	0.000000	6.170787	-0.090453	NaN	0.000000	0.001642	0.001672	28.1043	0.051693	0.001877	27.5455	28.6562	-167.371	-0.133857	0.169203	-0.967803	-0.969166	-0.090453	27.5455	-0.965341	-7.742188E+12	1.168310E-14	NaN
43	1.000000	0.212566	7.36546e+06	-40789.1	955.818	-29789.2	0.000000	0.000000	6.212790	-0.030427	NaN	0.000000	0.001626	0.001670	28.1297	0.036312	0.002100	17.2907	35.5697	14.3003	-0.026938	0.211251	-0.925803	-0.927118	-0.030427	17.2907	-0.924483	-2.176379E+12	1.398067E-14	NaN
43	1.000000	0.254595	7.36546e+06	-40789.1	955.818	-29789.2	0.000000	0.000000	6.254821	0.021954	NaN	0.000000	0.001673	0.001688	28.0932	0.067499	0.001896	35.5926	-159.364	-165.486	0.012775	0.253323	-0.883774	-0.885046	0.021954	35.5926	-0.884237	-6.223038E+11	-3.527807E-14	NaN
43	1.000000	0.296650	7.36546e+06	-40789.1	955.819	-29789.2	0.000000	0.000000	6.296873	-0.058655	NaN	0.000000	0.001584	0.001701	28.0799	0.057519	0.001922	29.9248	-57.2104	13.0133	-0.035770	0.295280	-0.841719	-0.843089	-0.058655	29.9248	-0.840249	-1.580023E+11	3.712282E-13	NaN
43	1.000000	0.338665	7.36546e+06	-40789.1	955.818	-29789.2	0.000000	0.000000	6.338889	-0.037565	NaN	0.000000	0.001602	0.001727	28.1036	0.020676	0.002022	10.2275	95.0411	-163.288	0.043780	0.337349	-0.799704	-0.801020	-0.037565	10.2275	-0.796949	-4.087385E+10	9.190358E-13	NaN
43	1.000000	0.380685	7.36547e+06	-40789.1	955.817	-29789.2	0.000000	0.000000	6.380913	0.044550	NaN	0.000000	0.001619	0.001720	28.131	0.097883	0.002011	48.6857	-4.702834	17.071	0.062232	0.379330	-0.757684	-0.759039	0.044550	48.6857	-0.758370	-1.222150E+10	-3.645254E-12	NaN
43	1.000000	0.422676	7.36547e+06	-40789.1	955.818	-29789.2	0.000000	0.000000	6.422903	0.034931	NaN	0.000000	0.001573	0.001719	28.0947	0.128563	0.002070	62.1189	108.958	-168.024	-0.051604	0.421414	-0.715693	-0.716955	0.034931	62.1189	-0.716115	-3.247007E+9	-1.075801E-11	NaN
43	1.000000	0.464699	7.36547e+06	-40789.1	955.818	-29789.2	0.000000	0.000000	6.464926	0.035795	NaN	0.000000	0.001615	0.001702	28.0779	0.037659	0.001982	18.9977	173.115	15.4608	0.113681	0.463321	-0.673670	-0.675048	0.035795	18.9977	-0.675083	-8.931911E+8	-4.007503E-11	NaN
43	1.000000	0.506720	7.36547e+06	-40789.1	955.818	-29789.2	0.000000	0.000000	6.506946	-0.000948	NaN	0.000000	0.001588	0.001677	28.1019	0.054751	0.001973	27.7509	-145.609	-169.176	-0.048086	0.505436	-0.631649	-0.632933	-0.000948	27.7509	-0.631623	-2.266263E+8	4.185220E-12	NaN
43	1.000000	0.548709	7.36547e+06	-40789.1	955.817	-29789.2	0.000000	0.000000	6.548934	-0.011488	NaN	0.000000	0.001581	0.001739	28.1313	0.046983	0.001933	24.3032	-149.664	15.6101	0.005724	0.547356	-0.589660	-0.591013	-0.011488	24.3032	-0.589305	-5.930424E+7	1.937206E-10	NaN
43	1.000000	0.590743	7.36547e+06	-40789.1	955.818	-29789.2	0.000000	0.000000	6.590969	0.011669	NaN	0.000000	0.001666	0.001724	28.0952	0.040701	0.001973	20.6336	113.068	-166.354	-0.035955	0.589452	-0.547626	-0.548917	0.011669	20.6336	-0.548050	-1.595689E+7	-7.312603E-10	NaN
43	1.000000	0.632762	7.36547e+06	-40789.1	955.818	-29789.2	0.000000	0.000000	6.632989	0.038917	NaN	0.000000	0.001690	0.001689	28.0818	0.131082	0.002027	64.659	-163.683	14.5024	0.038396	0.631417	-0.505607	-0.506952	0.038917	64.659	-0.506058	-4.16384e+06	-9.346400E-9	NaN
43	1.000000	0.674789	7.36547e+06	-40789.1	955.819	-29789.2	0.000000	0.000000	6.675015	-0.002519	NaN	0.000000	0.001624	0.001681	28.102	0.137148	0.002046	67.0475	-171.822	-165.831	-0.001559	0.673425	-0.463579	-0.464944	-0.002519	67.0475	-0.463551	-1.05903e+06	2.378511E-9	NaN
43	1.000000	0.716829	7.36547e+06	-40789.1	955.818	-29789.2	0.000000	0.000000	6.717053	-0.031248	NaN	0.000000	0.001621	0.001715	28.1325	0.087052	0.002024	43.0165	66.669	14.2552	0.040697	0.715500	-0.421540	-0.422869	-0.031248	43.0165	-0.420995	-265785	1.175673E-7	NaN
43	1.000000	0.758839	7.36547e+06	-40789.1	955.818	-29789.2	0.000000	0.000000	6.759065	-0.001428	NaN	0.000000	0.001628	0.001774	28.095	0.102589	0.002116	48.4937	-173.666	-165.301	-0.060149	0.757544	-0.379530	-0.380825	-0.001428	48.4937	-0.379508	-68049.2	2.098916E-8	NaN
43	1.000000	0.800842	7.36547e+06	-40789.1	955.818	-29789.2	0.000000	0.000000	6.801066	-0.035993	NaN	0.000000	0.001618	0.001768	28.0795	0.096419	0.001930	49.9593	-3.487966	13.7327	-0.035002	0.799482	-0.337527	-0.338887	-0.035993	49.9593	-0.336987	-16504.5	2.180833E-6	NaN
43	1.000000	0.842850	7.36547e+06	-40789.1	955.819	-29789.2	0.000000	0.000000	6.843074	-0.013472	NaN	0.000000	0.001594	0.001768	28.098	0.026314	0.001843	14.2789	25.0529	-166.825	0.075164	0.841559	-0.295519	-0.296810	-0.013472	14.2789	-0.294812	-3938.03	3.420911E-6	NaN
43	1.000000	0.884863	7.36547e+06	-40789.1	955.818	-29789.2	0.000000	0.000000	6.885089	0.019496	NaN	0.000000	0.001572	0.001681	28.1324	0.087326	0.001989	43.9017	21.9969	13.6041	-0.029113	0.883463	-0.253506	-0.254906	0.019496	43.9017	-0.253839	-942.408	-2.068739E-5	NaN
43	1.000000	0.926880	7.36547e+06	-40789.1	955.819	-29789.2	0.000000	0.000000	6.927106	0.011511	NaN	0.000000	0.001613	0.001767	28.0966	0.087163	0.001963	44.392	90.846	-163.81	0.051339	0.925604	-0.211489	-0.212765	0.011511	44.392	-0.211683	-204.194	-5.637151E-5	NaN
43	1.000000	0.968885	7.36547e+06	-40789.1	955.817	-29789.2	0.000000	0.000000	6.969109	-0.053125	NaN	0.000000	0.001594	0.001698	28.0814	0.010600	0.001938	5.469587	-150.609	13.1163	-0.007387	0.967566	-0.169484	-0.170803	-0.053125	5.469587	-0.162199	-29.9889	0.001771	NaN
43	1.000000	1.010925	7.36547e+06	-40789.1	955.817	-29789.2	0.000000	0.000000	7.011152	0.045417	NaN	0.000000	0.001630	0.001743	28.0978	0.074713	0.001919	38.9323	-72.968	-168.379	0.042970	1.009677	-0.127444	-0.128692	0.045417	38.9323	-0.128319	-7.067388	-0.006426	NaN
43	1.000000	1.052913	7.36547e+06	-40789.1	955.817	-29789.2	0.000000	0.000000	7.053139	0.028388	NaN	0.000000	0.001629	0.001723	28.1315	0.160279	0.001950	82.1943	-60.4809	9.667091	-0.012168	1.051512	-0.085456	-0.086857	0.028388	82.1943	-0.085715	-0.854972	-0.033204	NaN
43	1.000000	1.094971	7.36547e+06	-40789.1	955.817	-29789.2	0.000000	0.000000	7.095196	-0.031983	NaN	0.000000	0.001638	0.001696	28.0959	0.069487	0.001957	35.5147	-168.173	-164.764	0.054821	1.093627	-0.043398	-0.044742	-0.031983	35.5147	-0.042722	-0.054744	0.584236	NaN
43	1.000000	1.136992	7.36547e+06	-40789.1	955.817	-29789.2	0.000000	0.000000	7.137227	0.229143	NaN	0.000000	0.001626	0.001761	28.0818	0.343953	0.001984	173.346	23.0453	11.2232	0.273666	1.135560	-0.001377	-0.002809	0.229143	173.346	-0.002369	-0.001693	-135.332	NaN
43	2.000000	1.155384	7.36547e+06	-40789.1	955.818	-29789.2	0.000000	0.000000	7.156574	23.479	NaN	0.000000	0.001639	0.001734	28.098	18.5686	0.001690	10987.1	3.771232	-174.952	22.8804	1.155126	0.017015	0.016757	23.479	10987.1	0.015412	0.015839	1482.36	79761.7
43	2.000000	1.165862	7.36547e+06	-40789.1	955.818	-29789.2	0.000000	0.000000	7.168347	54.9709	NaN	0.000000	0.001662	0.001761	28.133	30.1798	0.001700	17752.4	5.667497	-2.173837	52.3349	1.165478	0.027493	0.027109	54.9709	17752.4	0.025171	0.031327	1754.74	91636.7
43	2.000000	1.176286	7.36547e+06	-40789.1	955.818	-29789.2	0.000000	0.000000	7.180178	89.2213	NaN	0.000000	0.001607	0.001750	28.097	39.9619	0.001863	21452.7	3.590074	179.437	86.1906	1.175993	0.037917	0.037624	89.2213	21452.7	0.034797	0.051275	1740.04	86556.8
43	2.000000	1.186748	7.36547e+06	-40789.1	955.818	-29789.2	0.000000	0.000000	7.192507	134.666	NaN	0.000000	0.001588	0.001762	28.082	49.1668	0.001709	28761	3.695932	-3.940135	128.979	1.186557	0.048379	0.048188	134.666	28761	0.044867	0.077210	1744.14	94566.9
43	2.000000	1.197310	7.36547e+06	-40789.1	955.817	-29789.2	0.000000	0.000000	7.205283	188.524	NaN	0.000000	0.001589	0.001776	28.0957	59.1511	0.001801	32842.1	1.622386	178.719	185.047	1.196997	0.058941	0.058628	188.524	32842.1	0.054636	0.107278	1757.34	91611.1
43	2.000000	1.207786	7.36547e+06	-40789.1	955.817	-29789.2	0.000000	0.000000	7.217894	240.474	NaN	0.000000	0.001599	0.001816	28.1306	69.3279	0.001724	40221.5	2.034853	-4.655987	238.576	1.207561	0.069417	0.069192	240.474	40221.5	0.064933	0.144089	1668.93	96809.2
43	2.000000	1.218221	7.36547e+06	-40789.1	955.818	-29789.2	0.000000	0.000000	7.231110	308.137	NaN	0.000000	0.001621	0.001763	28.1006	78.4206	0.001760	44548.1	1.992874	174.837	302.52	1.217977	0.079852	0.079608	308.137	44548.1	0.074664	0.183578	1678.51	94993.3
43	2.000000	1.228770	7.36547e+06	-40789.1	955.818	-29789.2	0.000000	0.000000	7.244293	372.236	NaN	0.000000	0.001584	0.001755	28.0807	88.7212	0.001852	47910.2	0.651239	-4.162817	368.456	1.228482	0.090401	0.090113	372.236	47910.2	0.084574	0.228375	1629.93	91596
43	2.000000	1.239222	7.36547e+06	-40789.1	955.818	-29789.2	0.000000	0.000000	7.258514	463.941	NaN	0.000000	0.001587	0.001758	28.0977	97.4499	0.001814	53717.8	5.171272	170.864	460.136	1.238866	0.100853	0.100497	463.941	53717.8	0.094375	0.277147	1673.99	93225.8
43	2.000000	1.246177	7.36547e+06	-40789.1	955.818	-29789.2	0.000000	0.000000	7.267282	508.069	NaN	0.000000	0.001581	0.001752	28.0988	103.15	0.001778	58023.3	3.667579	171.78	501.582	1.245877	0.107808	0.107508	508.069	58023.3	0.101241	0.313924	1618.45	94615.7