Folder: unikorn_login/remote_trans/data/nanoindenter/0828-1/data/Data_2025-08-06,11h17m57s (part 45)

File: 2025-07-22_16-23-58_1_107.txt
2025-07-22, 16:23:58, 1
Index	Phase	Displacement	Time	Pos X	Pos Y	Pos Z	Rot A	Rot B	Piezo Z	Force A	Force B	Gripper	Voltage A	Voltage B	Temperature	Amplitude force	Amplitude pos	Stiffness	Phase shift	Phase excitation	Force A raw	Displacement raw	HMax	HMax raw	Real Force	Real Stiffness	Contact Depth	Area	Hardness	Reduced Mod.
[#]	[#]	[um]	[s]	[um]	[um]	[um]	[m°]	[m°]	[um]	[uN]	[uN]	[V]	[V]	[V]	[°C]	[uN]	[um]	[N/m]	[°]	[°]	[uN]	[um]	[um]	[um]	[uN]	[N/m]	[um]	[um^2]	[MPa]	[MPa]
107	1.000000	0.002622	7.36609e+06	-43989.1	955.818	-29777.7	0.000000	0.000000	6.002816	0.031493	NaN	0.000000	0.001703	0.001768	28.1206	0.051356	0.000995	51.6306	52.4091	-165.673	-0.042872	0.001355	-1.126502	-1.127769	0.031493	51.6306	-1.126959	-1.153013E+15	-2.731403E-17	NaN
107	1.000000	0.044548	7.36609e+06	-43989.1	955.818	-29777.7	0.000000	0.000000	6.044741	0.032006	NaN	0.000000	0.001671	0.001761	28.121	0.095966	0.002081	46.1071	127.581	12.8352	-0.020633	0.043206	-1.084577	-1.085919	0.032006	46.1071	-1.085097	-3.162106E+14	-1.012181E-16	NaN
107	1.000000	0.086560	7.36609e+06	-43989.1	955.819	-29777.7	0.000000	0.000000	6.086752	0.002858	NaN	0.000000	0.001609	0.001715	28.0848	0.044471	0.002043	21.7684	136.264	-166.597	0.021261	0.085318	-1.042564	-1.043806	0.002858	21.7684	-1.042663	-8.506914E+13	-3.359981E-17	NaN
107	1.000000	0.128589	7.36609e+06	-43989.1	955.818	-29777.7	0.000000	0.000000	6.128779	-0.035517	NaN	0.000000	0.001557	0.001747	28.0868	0.103513	0.002005	51.6351	41.0908	13.3736	-0.007398	0.127234	-1.000536	-1.001890	-0.035517	51.6351	-1.000020	-2.270043E+13	1.564576E-15	NaN
107	1.000000	0.170617	7.36609e+06	-43989.1	955.819	-29777.7	0.000000	0.000000	6.170809	0.013080	NaN	0.000000	0.001638	0.001745	28.121	0.084058	0.001995	42.1369	-97.4848	-166.762	0.013869	0.169331	-0.958508	-0.959793	0.013080	42.1369	-0.958740	-6.307938E+12	-2.073549E-15	NaN
107	1.000000	0.212618	7.36609e+06	-43989.1	955.818	-29777.7	0.000000	0.000000	6.212808	-0.055557	NaN	0.000000	0.001686	0.001766	28.1216	0.062949	0.002070	30.4066	-103.117	12.7953	-0.062944	0.211245	-0.916506	-0.917879	-0.055557	30.4066	-0.915136	-1.627508E+12	3.413654E-14	NaN
107	1.000000	0.254643	7.36609e+06	-43989.1	955.818	-29777.7	0.000000	0.000000	6.254836	0.037381	NaN	0.000000	0.001603	0.001742	28.0843	0.039536	0.001987	19.8965	83.7119	-162.577	0.001868	0.253343	-0.874481	-0.875781	0.037381	19.8965	-0.875890	-4.798730E+11	-7.789796E-14	NaN
107	1.000000	0.296675	7.36609e+06	-43989.1	955.818	-29777.7	0.000000	0.000000	6.296868	0.024903	NaN	0.000000	0.001631	0.001782	28.0824	0.080112	0.001995	40.1478	-124.022	13.6586	0.028865	0.295298	-0.832450	-0.833826	0.024903	40.1478	-0.832915	-1.256869E+11	-1.981380E-13	NaN
107	1.000000	0.338679	7.36609e+06	-43989.1	955.818	-29777.7	0.000000	0.000000	6.338874	0.066952	NaN	0.000000	0.001663	0.001713	28.12	0.067776	0.002102	32.2382	-131.783	-164.463	0.024574	0.337346	-0.790445	-0.791778	0.066952	32.2382	-0.792003	-3.501723E+10	-1.911981E-12	NaN
107	1.000000	0.380714	7.36609e+06	-43989.1	955.818	-29777.7	0.000000	0.000000	6.380906	0.014215	NaN	0.000000	0.001666	0.001753	28.1216	0.074133	0.001938	38.2492	-85.2491	15.7327	-0.016047	0.379310	-0.748410	-0.749814	0.014215	38.2492	-0.748689	-9.023528E+9	-1.575318E-12	NaN
107	1.000000	0.422727	7.36609e+06	-43989.1	955.818	-29777.7	0.000000	0.000000	6.422915	-0.101327	NaN	0.000000	0.001653	0.001717	28.086	0.135496	0.001907	71.0628	-172.384	-166.695	-0.052699	0.421406	-0.706397	-0.707718	-0.101327	71.0628	-0.705328	-2.313546E+9	4.379728E-11	NaN
107	1.000000	0.464745	7.36609e+06	-43989.1	955.818	-29777.7	0.000000	0.000000	6.464936	-0.011326	NaN	0.000000	0.001651	0.001687	28.0823	0.072703	0.002007	36.2178	-169.418	15.5813	-0.019883	0.463367	-0.664379	-0.665757	-0.011326	36.2178	-0.664145	-6.327524E+8	1.790008E-11	NaN
107	1.000000	0.506769	7.36609e+06	-43989.1	955.818	-29777.7	0.000000	0.000000	6.506959	-0.045060	NaN	0.000000	0.001685	0.001727	28.1205	0.096502	0.001947	49.5562	24.3067	-160.714	-0.005341	0.505466	-0.622356	-0.623659	-0.045060	49.5562	-0.621674	-1.654386E+8	2.723661E-10	NaN
107	1.000000	0.548801	7.36609e+06	-43989.1	955.819	-29777.7	0.000000	0.000000	6.548989	-0.090280	NaN	0.000000	0.001681	0.001709	28.1209	0.052228	0.002004	26.0641	-47.0524	13.283	-0.070925	0.547401	-0.580323	-0.581723	-0.090280	26.0641	-0.577725	-4.105126E+7	2.199209E-9	NaN
107	1.000000	0.590814	7.36609e+06	-43989.1	955.818	-29777.7	0.000000	0.000000	6.591007	0.033256	NaN	0.000000	0.001667	0.001709	28.0847	0.087000	0.002058	42.2773	168.479	-164.707	0.028704	0.589482	-0.538310	-0.539642	0.033256	42.2773	-0.538900	-1.191536E+7	-2.790985E-9	NaN
107	1.000000	0.632826	7.36609e+06	-43989.1	955.818	-29777.7	0.000000	0.000000	6.633018	-0.009636	NaN	0.000000	0.001671	0.001679	28.0821	0.026965	0.002084	12.9419	-168.674	13.5308	-0.019703	0.631448	-0.496298	-0.497676	-0.009636	12.9419	-0.495740	-2.98924e+06	3.223535E-9	NaN
107	1.000000	0.674820	7.36609e+06	-43989.1	955.819	-29777.7	0.000000	0.000000	6.675011	-0.019163	NaN	0.000000	0.001674	0.001710	28.12	0.140602	0.001993	70.5332	-48.3394	-167.455	0.018334	0.673514	-0.454305	-0.455610	-0.019163	70.5332	-0.454101	-779951	2.457009E-8	NaN
107	1.000000	0.716818	7.36609e+06	-43989.1	955.818	-29777.7	0.000000	0.000000	6.717010	-0.012274	NaN	0.000000	0.001698	0.001719	28.1229	0.032309	0.001999	16.1638	103.185	12.4928	-0.028724	0.715490	-0.412306	-0.413634	-0.012274	16.1638	-0.411736	-196375	6.250226E-8	NaN
107	1.000000	0.758856	7.36609e+06	-43989.1	955.818	-29777.7	0.000000	0.000000	6.759046	-0.033272	NaN	0.000000	0.001661	0.001739	28.0851	0.077513	0.001996	38.8407	130.292	-166.451	-0.039230	0.757549	-0.370268	-0.371575	-0.033272	38.8407	-0.369626	-49061.3	6.781773E-7	NaN
107	1.000000	0.800854	7.36609e+06	-43989.1	955.818	-29777.7	0.000000	0.000000	6.801045	-0.005000	NaN	0.000000	0.001640	0.001730	28.082	0.109135	0.001878	58.1168	125.751	13.6671	-0.061635	0.799502	-0.328271	-0.329622	-0.005000	58.1168	-0.328206	-12279.1	4.072147E-7	NaN
107	1.000000	0.842876	7.36609e+06	-43989.1	955.818	-29777.7	0.000000	0.000000	6.843066	-0.057547	NaN	0.000000	0.001648	0.001707	28.1182	0.103328	0.001974	52.3489	-90.6985	-165.905	0.010336	0.841585	-0.286248	-0.287540	-0.057547	52.3489	-0.285424	-2848.62	2.020173E-5	NaN
107	1.000000	0.884882	7.36609e+06	-43989.1	955.819	-29777.7	0.000000	0.000000	6.885074	0.006311	NaN	0.000000	0.001579	0.001758	28.1224	0.088922	0.001941	45.8064	-94.7373	12.7651	-0.037615	0.883479	-0.244242	-0.245645	0.006311	45.8064	-0.244346	-671.859	-9.393439E-6	NaN
107	1.000000	0.926940	7.36609e+06	-43989.1	955.818	-29777.7	0.000000	0.000000	6.927130	-0.056633	NaN	0.000000	0.001550	0.001713	28.0869	0.062985	0.001990	31.6574	-49.8607	-162.796	-0.010064	0.925611	-0.202184	-0.203513	-0.056633	31.6574	-0.200842	-135.998	0.000416	NaN
107	1.000000	0.968943	7.36609e+06	-43989.1	955.818	-29777.7	0.000000	0.000000	6.969135	-0.004144	NaN	0.000000	0.001500	0.001681	28.0834	0.038094	0.002009	18.9651	-157.178	13.546	0.000882	0.967607	-0.160181	-0.161517	-0.004144	18.9651	-0.160017	-27.4337	0.000151	NaN
107	1.000000	1.010964	7.36609e+06	-43989.1	955.816	-29777.7	0.000000	0.000000	7.011152	-0.091681	NaN	0.000000	0.001569	0.001713	28.1172	0.122161	0.002014	60.6586	-108.621	-166.237	-0.017319	1.009624	-0.118160	-0.119500	-0.091681	60.6586	-0.117027	-4.204342	0.021806	NaN
107	1.000000	1.052970	7.36609e+06	-43989.1	955.817	-29777.7	0.000000	0.000000	7.053161	-0.015252	NaN	0.000000	0.001545	0.001732	28.1241	0.107209	0.002044	52.4505	100.585	14.2917	-0.009096	1.051595	-0.076154	-0.077529	-0.015252	52.4505	-0.075936	-0.488266	0.031236	NaN
107	1.000000	1.094989	7.36609e+06	-43989.1	955.817	-29777.7	0.000000	0.000000	7.095181	-4.108484E-5	NaN	0.000000	0.001612	0.001705	28.0856	0.092331	0.001991	46.3698	117.278	-166.127	-0.061524	1.093731	-0.034135	-0.035393	-4.108484E-5	46.3698	-0.034135	-0.030206	0.001360	NaN
107	2.000000	1.136740	7.36609e+06	-43989.1	955.818	-29777.7	0.000000	0.000000	7.137280	8.476852	NaN	0.000000	0.001546	0.001732	28.0812	7.276996	0.001606	4532.05	5.049160	11.3081	6.502459	1.135644	0.007616	0.006519	8.476852	4532.05	0.006213	0.005268	1609.16	57049.2
107	2.000000	1.147560	7.36609e+06	-43989.1	955.817	-29777.7	0.000000	0.000000	7.148927	28.5767	NaN	0.000000	0.001564	0.001688	28.1142	19.945	0.001907	10456.7	6.695542	-177.875	27.3181	1.147347	0.018436	0.018223	28.5767	10456.7	0.016386	0.017179	1663.49	72891
107	2.000000	1.158115	7.36609e+06	-43989.1	955.816	-29777.7	0.000000	0.000000	7.160619	56.2514	NaN	0.000000	0.001571	0.001737	28.1264	29.5376	0.001762	16765.9	5.398541	-1.511875	57.5561	1.157791	0.028991	0.028667	56.2514	16765.9	0.026475	0.033753	1666.55	83376.4
107	2.000000	1.168539	7.36609e+06	-43989.1	955.817	-29777.7	0.000000	0.000000	7.172487	91.3935	NaN	0.000000	0.001586	0.001709	28.0862	38.1381	0.001814	21022.5	6.432023	176.265	89.0118	1.168164	0.039415	0.039040	91.3935	21022.5	0.036154	0.054467	1677.95	82298.1
107	2.000000	1.179068	7.36609e+06	-43989.1	955.817	-29777.7	0.000000	0.000000	7.184198	120.14	NaN	0.000000	0.001556	0.001712	28.0848	46.7668	0.001716	27255.1	5.519308	-4.852672	121.749	1.178761	0.049944	0.049636	120.14	27255.1	0.046638	0.082305	1459.69	86797.5
107	2.000000	1.189467	7.36609e+06	-43989.1	955.817	-29777.7	0.000000	0.000000	7.196850	174.937	NaN	0.000000	0.001569	0.001737	28.114	56.4957	0.001772	31885.1	4.514383	175.798	172.078	1.189046	0.060343	0.059922	174.937	31885.1	0.056228	0.112632	1553.18	86802.1
107	2.000000	1.199972	7.36609e+06	-43989.1	955.817	-29777.7	0.000000	0.000000	7.209614	229.894	NaN	0.000000	0.001597	0.001716	28.1258	66.488	0.001874	35486.5	4.307758	-6.059365	228.318	1.199759	0.070848	0.070635	229.894	35486.5	0.065989	0.148157	1551.7	84231.8
107	2.000000	1.210433	7.36609e+06	-43989.1	955.817	-29777.7	0.000000	0.000000	7.222525	289.525	NaN	0.000000	0.001601	0.001692	28.0857	78.1632	0.001805	43294.2	5.917561	171.111	285.395	1.210239	0.081309	0.081115	289.525	43294.2	0.076293	0.190626	1518.82	90596.7
107	2.000000	1.220967	7.36609e+06	-43989.1	955.817	-29777.7	0.000000	0.000000	7.236158	364.918	NaN	0.000000	0.001601	0.001682	28.0839	87.0574	0.001813	48024.6	4.018995	-7.232276	363.149	1.220501	0.091843	0.091377	364.918	48024.6	0.086144	0.235888	1547	90340.9
107	2.000000	1.231345	7.36609e+06	-43989.1	955.817	-29777.7	0.000000	0.000000	7.249790	444.095	NaN	0.000000	0.001566	0.001706	28.1141	95.3766	0.001714	55658.3	3.982104	171.658	437.943	1.231062	0.102220	0.101938	444.095	55658.3	0.096236	0.286903	1547.89	94937
107	2.000000	1.235400	7.36609e+06	-43989.1	955.817	-29777.7	0.000000	0.000000	7.254984	471.772	NaN	0.000000	0.001573	0.001671	28.1142	97.21	0.001831	53098.1	1.940333	174.033	468.186	1.234948	0.106276	0.105824	471.772	53098.1	0.099613	0.305009	1546.75	87840.7

File: 2025-07-22_16-23-58_1_108.txt
2025-07-22, 16:23:58, 1
Index	Phase	Displacement	Time	Pos X	Pos Y	Pos Z	Rot A	Rot B	Piezo Z	Force A	Force B	Gripper	Voltage A	Voltage B	Temperature	Amplitude force	Amplitude pos	Stiffness	Phase shift	Phase excitation	Force A raw	Displacement raw	HMax	HMax raw	Real Force	Real Stiffness	Contact Depth	Area	Hardness	Reduced Mod.
[#]	[#]	[um]	[s]	[um]	[um]	[um]	[m°]	[m°]	[um]	[uN]	[uN]	[V]	[V]	[V]	[°C]	[uN]	[um]	[N/m]	[°]	[°]	[uN]	[um]	[um]	[um]	[uN]	[N/m]	[um]	[um^2]	[MPa]	[MPa]
108	1.000000	0.002884	7.3661e+06	-44039.1	955.819	-29777.6	0.000000	0.000000	6.002808	-0.017394	NaN	0.000000	0.001562	0.001623	28.1089	0.084624	0.000897	94.3774	-94.5415	-172.614	-0.039621	0.001630	-0.995453	-0.996707	-0.017394	94.3774	-0.995314	-1.961916E+13	8.866027E-16	NaN
108	1.000000	0.040848	7.3661e+06	-44039.1	955.819	-29777.6	0.000000	0.000000	6.040770	-0.040387	NaN	0.000000	0.001534	0.001669	28.0828	0.078674	0.001990	39.5361	-152.324	13.7011	-0.027309	0.039492	-0.957489	-0.958845	-0.040387	39.5361	-0.956723	-5.925009E+12	6.816400E-15	NaN
108	1.000000	0.078820	7.3661e+06	-44039.1	955.818	-29777.6	0.000000	0.000000	6.078741	-0.089037	NaN	0.000000	0.001537	0.001711	28.0889	0.078640	0.001906	41.2646	-105.172	-165.571	-0.099235	0.077533	-0.919517	-0.920803	-0.089037	41.2646	-0.917898	-1.773496E+12	5.020423E-14	NaN
108	1.000000	0.116870	7.3661e+06	-44039.1	955.819	-29777.6	0.000000	0.000000	6.116791	-0.068423	NaN	0.000000	0.001544	0.001693	28.13	0.124582	0.002056	60.5895	-89.6961	17.4054	-0.116473	0.115499	-0.881467	-0.882838	-0.068423	60.5895	-0.880620	-5.560252E+11	1.230573E-13	NaN
108	1.000000	0.154855	7.3661e+06	-44039.1	955.819	-29777.6	0.000000	0.000000	6.154782	0.050323	NaN	0.000000	0.001560	0.001616	28.1089	0.046988	0.002050	22.9205	171.883	-163.537	0.051600	0.153593	-0.843482	-0.844743	0.050323	22.9205	-0.845128	-1.839754E+11	-2.735301E-13	NaN
108	1.000000	0.192874	7.3661e+06	-44039.1	955.819	-29777.6	0.000000	0.000000	6.192798	-0.013736	NaN	0.000000	0.001623	0.001658	28.0801	0.061675	0.001942	31.7605	148.927	14.1033	-0.025383	0.191521	-0.805462	-0.806816	-0.013736	31.7605	-0.805138	-5.279571E+10	2.601811E-13	NaN
108	1.000000	0.230923	7.3661e+06	-44039.1	955.817	-29777.6	0.000000	0.000000	6.230847	-0.013910	NaN	0.000000	0.001583	0.001675	28.0893	0.099437	0.002108	47.1726	-80.0338	-165.581	0.040796	0.229599	-0.767414	-0.768737	-0.013910	47.1726	-0.767192	-1.611126E+10	8.633678E-13	NaN
108	1.000000	0.268931	7.3661e+06	-44039.1	955.818	-29777.6	0.000000	0.000000	6.268857	0.044604	NaN	0.000000	0.001609	0.001644	28.1274	0.059209	0.002105	28.1289	147.056	17.1364	0.060484	0.267528	-0.729406	-0.730809	0.044604	28.1289	-0.730595	-5.115914E+9	-8.718671E-12	NaN
108	1.000000	0.306923	7.3661e+06	-44039.1	955.818	-29777.6	0.000000	0.000000	6.306846	-0.028487	NaN	0.000000	0.001567	0.001638	28.1079	0.049594	0.001913	25.9296	-32.9528	-168.038	0.051580	0.305622	-0.691414	-0.692715	-0.028487	25.9296	-0.690590	-1.455410E+9	1.957308E-11	NaN
108	1.000000	0.344918	7.3661e+06	-44039.1	955.819	-29777.6	0.000000	0.000000	6.344841	-0.025547	NaN	0.000000	0.001577	0.001676	28.0812	0.061013	0.001971	30.9612	-175.154	13.8991	-0.024277	0.343567	-0.653419	-0.654769	-0.025547	30.9612	-0.652800	-4.424004E+8	5.774631E-11	NaN
108	1.000000	0.382964	7.3661e+06	-44039.1	955.818	-29777.6	0.000000	0.000000	6.382886	-0.046301	NaN	0.000000	0.001595	0.001641	28.0909	0.128779	0.001944	66.2465	-58.829	-166.238	-0.023527	0.381585	-0.615373	-0.616752	-0.046301	66.2465	-0.614849	-1.332933E+8	3.473639E-10	NaN
108	1.000000	0.420935	7.3661e+06	-44039.1	955.818	-29777.6	0.000000	0.000000	6.420858	-0.044947	NaN	0.000000	0.001618	0.001687	28.1284	0.025133	0.001994	12.6035	-100.895	15.4848	-0.060193	0.419613	-0.577402	-0.578723	-0.044947	12.6035	-0.574727	-3.731885E+7	1.204394E-9	NaN
108	1.000000	0.458986	7.3661e+06	-44039.1	955.818	-29777.6	0.000000	0.000000	6.458909	-0.026467	NaN	0.000000	0.001519	0.001604	28.1055	0.039007	0.002045	19.0728	159.376	-164.308	-0.049998	0.457681	-0.539351	-0.540655	-0.026467	19.0728	-0.538310	-1.169293E+7	2.263509E-9	NaN
108	1.000000	0.497021	7.3661e+06	-44039.1	955.819	-29777.6	0.000000	0.000000	6.496948	0.063624	NaN	0.000000	0.001552	0.001646	28.0802	0.097647	0.002031	48.0804	-114.243	13.1139	0.030816	0.495667	-0.501316	-0.502670	0.063624	48.0804	-0.502308	-3.6916e+06	-1.723482E-8	NaN
108	1.000000	0.535031	7.3661e+06	-44039.1	955.817	-29777.6	0.000000	0.000000	6.534957	0.055849	NaN	0.000000	0.001544	0.001657	28.0892	0.116684	0.001921	60.7366	142.626	-170.505	0.044245	0.533730	-0.463306	-0.464607	0.055849	60.7366	-0.463996	-1.07436e+06	-5.198334E-8	NaN
108	1.000000	0.573044	7.3661e+06	-44039.1	955.818	-29777.6	0.000000	0.000000	6.572967	-0.047340	NaN	0.000000	0.001576	0.001656	28.1277	0.069017	0.002059	33.5181	-25.3944	14.0581	-0.033991	0.571690	-0.425293	-0.426647	-0.047340	33.5181	-0.424233	-295407	1.602545E-7	NaN
108	1.000000	0.611034	7.3661e+06	-44039.1	955.818	-29777.6	0.000000	0.000000	6.610955	-0.074650	NaN	0.000000	0.001569	0.001652	28.1056	0.020492	0.002090	9.802995	-59.3285	-163.604	0.029633	0.609716	-0.387303	-0.388621	-0.074650	9.802995	-0.381591	-72899.1	1.024020E-6	NaN
108	1.000000	0.649100	7.3661e+06	-44039.1	955.818	-29777.6	0.000000	0.000000	6.649021	-0.075992	NaN	0.000000	0.001634	0.001664	28.0802	0.079968	0.001991	40.1662	-55.9409	14.9319	-0.083811	0.647747	-0.349237	-0.350590	-0.075992	40.1662	-0.347818	-23731.4	3.202157E-6	NaN
108	1.000000	0.687126	7.3661e+06	-44039.1	955.819	-29777.6	0.000000	0.000000	6.687052	0.043805	NaN	0.000000	0.001655	0.001671	28.0917	0.017076	0.002078	8.219349	-60.3727	-167.09	0.039811	0.685799	-0.311211	-0.312537	0.043805	8.219349	-0.315208	-7907.13	-5.539877E-6	NaN
108	1.000000	0.725125	7.3661e+06	-44039.1	955.818	-29777.6	0.000000	0.000000	6.725049	-0.029761	NaN	0.000000	0.001545	0.001672	28.1277	0.157155	0.002018	77.8668	-130.619	16.0394	-0.073446	0.723744	-0.273211	-0.274592	-0.029761	77.8668	-0.272925	-1844.81	1.613215E-5	NaN
108	1.000000	0.763113	7.3661e+06	-44039.1	955.817	-29777.6	0.000000	0.000000	6.763036	-0.036008	NaN	0.000000	0.001569	0.001630	28.1044	0.062998	0.001971	31.9669	-26.3102	-167.847	-0.042918	0.761784	-0.235224	-0.236553	-0.036008	31.9669	-0.234379	-469.343	7.671994E-5	NaN
108	1.000000	0.801180	7.3661e+06	-44039.1	955.818	-29777.6	0.000000	0.000000	6.801102	-0.047108	NaN	0.000000	0.001508	0.001636	28.0795	0.040806	0.002035	20.0492	-84.0419	14.121	0.008876	0.799776	-0.197157	-0.198561	-0.047108	20.0492	-0.195395	-110.597	0.000426	NaN
108	1.000000	0.839122	7.3661e+06	-44039.1	955.818	-29777.6	0.000000	0.000000	6.839045	-0.028951	NaN	0.000000	0.001624	0.001634	28.0917	0.159689	0.002177	73.3636	-37.3885	-165.132	0.001296	0.837840	-0.159215	-0.160496	-0.028951	73.3636	-0.158919	-26.2274	0.001104	NaN
108	1.000000	0.877170	7.3661e+06	-44039.1	955.818	-29777.6	0.000000	0.000000	6.877095	0.013952	NaN	0.000000	0.001599	0.001642	28.1296	0.083934	0.002020	41.5468	-129.773	14.0966	-0.038827	0.875808	-0.121167	-0.122529	0.013952	41.5468	-0.121419	-5.159887	-0.002704	NaN
108	1.000000	0.915202	7.3661e+06	-44039.1	955.818	-29777.6	0.000000	0.000000	6.915126	-0.004099	NaN	0.000000	0.001612	0.001635	28.1052	0.084134	0.002190	38.4138	29.5996	-166.932	-0.003202	0.913869	-0.083135	-0.084468	-0.004099	38.4138	-0.083055	-0.736728	0.005564	NaN
108	1.000000	0.953208	7.3661e+06	-44039.1	955.818	-29777.6	0.000000	0.000000	6.953131	-0.043130	NaN	0.000000	0.001552	0.001619	28.0804	0.102305	0.002014	50.7984	66.9977	14.4075	-0.040586	0.951775	-0.045128	-0.046562	-0.043130	50.7984	-0.044492	-0.062008	0.695549	NaN
108	1.000000	0.991211	7.3661e+06	-44039.1	955.819	-29777.6	0.000000	0.000000	6.991132	-0.086402	NaN	0.000000	0.001520	0.001636	28.0908	0.090912	0.002061	44.1075	-34.5692	-166.126	-0.043868	0.989961	-0.007125	-0.008376	-0.086402	44.1075	-0.005656	-0.003825	22.5875	NaN
108	2.000000	1.014236	7.3661e+06	-44039.1	955.82	-29777.6	0.000000	0.000000	7.014766	14.7297	NaN	0.000000	0.001539	0.001613	28.1298	14.6473	0.001815	8069.79	8.657474	2.718517	14.169	1.013995	0.015899	0.015658	14.7297	8069.79	0.014530	0.014664	1004.49	60885.1
108	2.000000	1.023690	7.3661e+06	-44039.1	955.818	-29777.6	0.000000	0.000000	7.025051	34.9449	NaN	0.000000	0.001555	0.001607	28.1017	23.7291	0.001768	13421.3	6.298956	-178.855	34.6886	1.023361	0.025353	0.025024	34.9449	13421.3	0.023400	0.028170	1240.51	73059.1
108	2.000000	1.033163	7.3661e+06	-44039.1	955.82	-29777.6	0.000000	0.000000	7.035714	63.8934	NaN	0.000000	0.001575	0.001606	28.0802	32.7387	0.001880	17412.4	5.453809	-0.743559	62.359	1.032769	0.034826	0.034432	63.8934	17412.4	0.032074	0.045153	1415.04	74866.5
108	2.000000	1.042616	7.3661e+06	-44039.1	955.819	-29777.6	0.000000	0.000000	7.046445	95.003	NaN	0.000000	0.001577	0.001650	28.0926	42.0038	0.001937	21680.3	6.559805	175.96	93.4093	1.042323	0.044279	0.043986	95.003	21680.3	0.040992	0.066618	1426.08	76743.5
108	2.000000	1.052156	7.3661e+06	-44039.1	955.82	-29777.6	0.000000	0.000000	7.057394	129.267	NaN	0.000000	0.001541	0.001650	28.1305	50.3889	0.001912	26360.3	4.122604	-3.049882	130.128	1.051692	0.053819	0.053356	129.267	26360.3	0.050141	0.092850	1392.21	79037.3
108	2.000000	1.061601	7.3661e+06	-44039.1	955.82	-29777.6	0.000000	0.000000	7.068420	167.738	NaN	0.000000	0.001539	0.001594	28.1021	59.298	0.001890	31371.6	7.721971	170.909	165.909	1.061424	0.063264	0.063087	167.738	31371.6	0.059254	0.123147	1362.09	81676.4
108	2.000000	1.071070	7.3661e+06	-44039.1	955.82	-29777.6	0.000000	0.000000	7.079880	216.17	NaN	0.000000	0.001530	0.001647	28.0797	67.5786	0.001837	36794.8	7.953728	-10.0703	211.416	1.070680	0.072733	0.072344	216.17	36794.8	0.068327	0.157348	1373.84	84748
108	2.000000	1.080616	7.3661e+06	-44039.1	955.82	-29777.6	0.000000	0.000000	7.091465	265.789	NaN	0.000000	0.001551	0.001648	28.091	76.1421	0.001805	42191.7	5.491192	171.412	265.611	1.080239	0.082279	0.081902	265.789	42191.7	0.077554	0.196169	1354.9	87033.1
108	2.000000	1.090071	7.3661e+06	-44039.1	955.821	-29777.6	0.000000	0.000000	7.103349	324.873	NaN	0.000000	0.001573	0.001644	28.1298	84.2532	0.001964	42904.1	5.162556	-7.605166	322.824	1.089664	0.091734	0.091328	324.873	42904.1	0.086055	0.235461	1379.73	80781.6
108	2.000000	1.099516	7.3661e+06	-44039.1	955.82	-29777.6	0.000000	0.000000	7.115327	386.52	NaN	0.000000	0.001583	0.001648	28.0999	92.4868	0.001863	49647.7	3.159332	172.454	382.726	1.099260	0.101179	0.100923	386.52	49647.7	0.095340	0.282183	1369.75	85389.9
108	2.000000	1.107453	7.3661e+06	-44039.1	955.821	-29777.6	0.000000	0.000000	7.125703	445.859	NaN	0.000000	0.001595	0.001661	28.1021	102.515	0.001756	58391.1	7.015655	167.321	439.789	1.107049	0.109116	0.108712	445.859	58391.1	0.103389	0.325873	1368.2	93453.6