Folder: unikorn_login/remote_trans/data/nanoindenter/0828-1/data/Data_2025-08-06,11h17m57s (part 68)

File: 2025-07-22_16-23-58_1_153.txt
2025-07-22, 16:23:58, 1
Index	Phase	Displacement	Time	Pos X	Pos Y	Pos Z	Rot A	Rot B	Piezo Z	Force A	Force B	Gripper	Voltage A	Voltage B	Temperature	Amplitude force	Amplitude pos	Stiffness	Phase shift	Phase excitation	Force A raw	Displacement raw	HMax	HMax raw	Real Force	Real Stiffness	Contact Depth	Area	Hardness	Reduced Mod.
[#]	[#]	[um]	[s]	[um]	[um]	[um]	[m°]	[m°]	[um]	[uN]	[uN]	[V]	[V]	[V]	[°C]	[uN]	[um]	[N/m]	[°]	[°]	[uN]	[um]	[um]	[um]	[uN]	[N/m]	[um]	[um^2]	[MPa]	[MPa]
153	1.000000	0.002282	7.36653e+06	-46289.1	955.819	-29769.5	0.000000	0.000000	6.002784	-0.066476	NaN	0.000000	0.001625	0.001723	28.1306	0.114533	0.000950	120.52	-99.1629	-160.315	-0.165115	0.001041	-1.763075	-1.764316	-0.066476	120.52	-1.762661	-3.455911E+23	1.923555E-25	NaN
153	1.000000	0.062255	7.36653e+06	-46289.1	955.819	-29769.4	0.000000	0.000000	6.062758	-0.010642	NaN	0.000000	0.001626	0.001676	28.0783	0.121438	0.001852	65.5576	67.1258	-162.95	0.039922	0.060925	-1.703103	-1.704433	-0.010642	65.5576	-1.702981	-5.572343E+22	1.909834E-25	NaN
153	1.000000	0.122245	7.36653e+06	-46289.1	955.819	-29769.4	0.000000	0.000000	6.122749	-0.005969	NaN	0.000000	0.001677	0.001678	28.1305	0.102680	0.001934	53.097	134.573	-162.178	-0.070073	0.120984	-1.643113	-1.644373	-0.005969	53.097	-1.643028	-8.899399E+21	6.707507E-25	NaN
153	1.000000	0.182300	7.36653e+06	-46289.1	955.819	-29769.4	0.000000	0.000000	6.182803	-0.037553	NaN	0.000000	0.001637	0.001675	28.0814	0.062741	0.001920	32.6836	-78.4077	-164.055	-0.038027	0.181040	-1.583057	-1.584318	-0.037553	32.6836	-1.582196	-1.381645E+21	2.717994E-23	NaN
153	1.000000	0.242333	7.36653e+06	-46289.1	955.818	-29769.4	0.000000	0.000000	6.242838	0.008997	NaN	0.000000	0.001623	0.001661	28.1304	0.032364	0.002052	15.7681	-141.499	-165.046	0.060477	0.241047	-1.523024	-1.524310	0.008997	15.7681	-1.523452	-2.283526E+20	-3.939851E-23	NaN
153	1.000000	0.302356	7.36653e+06	-46289.1	955.819	-29769.4	0.000000	0.000000	6.302859	-0.054458	NaN	0.000000	0.001656	0.001709	28.0792	0.025245	0.001854	13.6187	79.4322	-161.369	-0.062279	0.301064	-1.463001	-1.464294	-0.054458	13.6187	-1.460002	-3.261704E+19	1.669620E-21	NaN
153	1.000000	0.362376	7.36653e+06	-46289.1	955.819	-29769.4	0.000000	0.000000	6.362880	-0.028485	NaN	0.000000	0.001653	0.001671	28.1294	0.013073	0.001922	6.802404	14.8443	-163.942	-0.057166	0.361052	-1.402981	-1.404306	-0.028485	6.802404	-1.399840	-5.144404E+18	5.537017E-21	NaN
153	1.000000	0.422412	7.36654e+06	-46289.1	955.82	-29769.4	0.000000	0.000000	6.422916	-0.008418	NaN	0.000000	0.001640	0.001688	28.0807	0.129284	0.002073	62.3653	-104.069	-169.442	0.000773	0.421087	-1.342945	-1.344271	-0.008418	62.3653	-1.342844	-8.926639E+17	9.429666E-21	NaN
153	1.000000	0.482418	7.36654e+06	-46289.1	955.819	-29769.4	0.000000	0.000000	6.482921	-0.031137	NaN	0.000000	0.001583	0.001682	28.1303	0.081913	0.001875	43.6769	-83.4611	-164.467	0.016145	0.481112	-1.282940	-1.284245	-0.031137	43.6769	-1.282405	-1.390710E+17	2.238905E-19	NaN
153	1.000000	0.542411	7.36654e+06	-46289.1	955.819	-29769.4	0.000000	0.000000	6.542914	-0.042862	NaN	0.000000	0.001626	0.001702	28.0793	0.147555	0.001946	75.8086	-41.6829	-166.863	-0.020138	0.541134	-1.222946	-1.224223	-0.042862	75.8086	-1.222522	-2.199162E+16	1.949034E-18	NaN
153	1.000000	0.602473	7.36654e+06	-46289.1	955.819	-29769.4	0.000000	0.000000	6.602976	-0.012718	NaN	0.000000	0.001655	0.001718	28.1312	0.133037	0.001948	68.2881	83.9248	-161.251	-0.091807	0.601192	-1.162885	-1.164166	-0.012718	68.2881	-1.162745	-3.480638E+15	3.653902E-18	NaN
153	1.000000	0.662530	7.36654e+06	-46289.1	955.819	-29769.4	0.000000	0.000000	6.663035	0.005867	NaN	0.000000	0.001687	0.001690	28.0792	0.097382	0.002171	44.8474	-1.799793	-165.384	0.012530	0.661142	-1.102827	-1.104215	0.005867	44.8474	-1.102925	-5.486998E+14	-1.069324E-17	NaN
153	1.000000	0.722526	7.36654e+06	-46289.1	955.818	-29769.4	0.000000	0.000000	6.723029	-0.032299	NaN	0.000000	0.001618	0.001683	28.1298	0.025531	0.002069	12.3419	124.972	-164.899	-0.046155	0.721250	-1.042832	-1.044108	-0.032299	12.3419	-1.040869	-8.047303E+13	4.013642E-16	NaN
153	1.000000	0.782584	7.36654e+06	-46289.1	955.819	-29769.4	0.000000	0.000000	6.783085	-0.084587	NaN	0.000000	0.001663	0.001649	28.0791	0.065774	0.002042	32.2156	124.781	-163.665	-0.043648	0.781244	-0.982773	-0.984113	-0.084587	32.2156	-0.980804	-1.250965E+13	6.761721E-15	NaN
153	1.000000	0.842580	7.36654e+06	-46289.1	955.82	-29769.4	0.000000	0.000000	6.843083	-0.048525	NaN	0.000000	0.001662	0.001639	28.1299	0.084027	0.001970	42.6625	-146.161	-162.707	-0.070314	0.841268	-0.922777	-0.924089	-0.048525	42.6625	-0.921924	-2.009926E+12	2.414292E-14	NaN
153	1.000000	0.902607	7.36654e+06	-46289.1	955.819	-29769.4	0.000000	0.000000	6.903111	-0.016028	NaN	0.000000	0.001594	0.001652	28.0785	0.101562	0.002021	50.2464	163.895	-165.554	0.047238	0.901318	-0.862750	-0.864040	-0.016028	50.2464	-0.862511	-3.163025E+11	5.067394E-14	NaN
153	1.000000	0.962635	7.36654e+06	-46289.1	955.819	-29769.4	0.000000	0.000000	6.963140	0.003214	NaN	0.000000	0.001584	0.001687	28.1297	0.042295	0.002009	21.0504	-166.453	-162.57	0.000570	0.961313	-0.802722	-0.804044	0.003214	21.0504	-0.802836	-4.913179E+10	-6.540979E-14	NaN
153	1.000000	1.022672	7.36654e+06	-46289.1	955.82	-29769.4	0.000000	0.000000	7.023175	-0.031416	NaN	0.000000	0.001625	0.001691	28.0804	0.034094	0.001963	17.3687	41.8914	-161.99	-0.053883	1.021321	-0.742685	-0.744037	-0.031416	17.3687	-0.741328	-7.163901E+9	4.385316E-12	NaN
153	1.000000	1.082660	7.36654e+06	-46289.1	955.819	-29769.4	0.000000	0.000000	7.083161	-0.083372	NaN	0.000000	0.001626	0.001663	28.1304	0.124843	0.001978	63.1194	111.033	-163.835	-0.064568	1.081400	-0.682697	-0.683957	-0.083372	63.1194	-0.681706	-1.100371E+9	7.576690E-11	NaN
153	1.000000	1.142705	7.36654e+06	-46289.1	955.819	-29769.4	0.000000	0.000000	7.143209	0.012366	NaN	0.000000	0.001633	0.001677	28.0802	0.051627	0.001969	26.2187	136.603	-167.586	0.030022	1.141451	-0.622653	-0.623906	0.012366	26.2187	-0.623007	-1.725652E+8	-7.165912E-11	NaN
153	1.000000	1.202699	7.36654e+06	-46289.1	955.821	-29769.4	0.000000	0.000000	7.203205	0.041897	NaN	0.000000	0.001577	0.001658	28.1276	0.056865	0.002023	28.1131	-177.338	-166.471	0.013792	1.201400	-0.562659	-0.563957	0.041897	28.1131	-0.563776	-2.633948E+7	-1.590650E-9	NaN
153	1.000000	1.262770	7.36654e+06	-46289.1	955.82	-29769.4	0.000000	0.000000	7.263271	-0.071349	NaN	0.000000	0.001615	0.001678	28.0799	0.087764	0.001896	46.2935	25.4596	-166.439	-0.081329	1.261440	-0.502588	-0.503918	-0.071349	46.2935	-0.501432	-3.58914e+06	1.987912E-8	NaN
153	1.000000	1.322777	7.36654e+06	-46289.1	955.82	-29769.4	0.000000	0.000000	7.323281	-0.000717	NaN	0.000000	0.001591	0.001637	28.1298	0.054948	0.002079	26.4321	179.496	-164.676	-0.035393	1.321493	-0.442581	-0.443864	-0.000717	26.4321	-0.442560	-536399	1.336096E-9	NaN
153	1.000000	1.382814	7.36654e+06	-46289.1	955.819	-29769.4	0.000000	0.000000	7.383316	-0.056370	NaN	0.000000	0.001586	0.001649	28.08	0.140079	0.001985	70.5669	-20.7409	-165.39	0.009190	1.381479	-0.382543	-0.383878	-0.056370	70.5669	-0.381944	-73753.3	7.643080E-7	NaN
153	1.000000	1.442803	7.36654e+06	-46289.1	955.819	-29769.4	0.000000	0.000000	7.443307	-0.002551	NaN	0.000000	0.001617	0.001651	28.1271	0.054978	0.002044	26.8948	6.274761	-165.584	-0.014252	1.441527	-0.322554	-0.323830	-0.002551	26.8948	-0.322483	-10119.5	2.520410E-7	NaN
153	1.000000	1.502848	7.36654e+06	-46289.1	955.821	-29769.4	0.000000	0.000000	7.503351	-0.025808	NaN	0.000000	0.001643	0.001661	28.0779	0.039364	0.002113	18.6314	-124.331	-166.201	0.014213	1.501609	-0.262509	-0.263748	-0.025808	18.6314	-0.261471	-1234.36	2.090836E-5	NaN
153	1.000000	1.562880	7.36654e+06	-46289.1	955.82	-29769.4	0.000000	0.000000	7.563381	-0.080506	NaN	0.000000	0.001638	0.001699	28.1292	0.050376	0.001993	25.2785	-173.592	-166.267	-0.035502	1.561620	-0.202478	-0.203737	-0.080506	25.2785	-0.200089	-132.179	0.000609	NaN
153	1.000000	1.622928	7.36654e+06	-46289.1	955.821	-29769.4	0.000000	0.000000	7.623429	-0.087925	NaN	0.000000	0.001647	0.001695	28.081	0.026982	0.002089	12.9133	71.5286	-164.316	-0.009851	1.621653	-0.142429	-0.143704	-0.087925	12.9133	-0.137322	-10.5306	0.008349	NaN
153	1.000000	1.682937	7.36654e+06	-46289.1	955.821	-29769.4	0.000000	0.000000	7.683440	-0.023032	NaN	0.000000	0.001630	0.001720	28.1265	0.053503	0.001973	27.1118	-93.221	-165.766	0.018323	1.681633	-0.082420	-0.083724	-0.023032	27.1118	-0.081783	-0.685505	0.033598	NaN
153	1.000000	1.743001	7.36654e+06	-46289.1	955.819	-29769.4	0.000000	0.000000	7.743505	-0.009099	NaN	0.000000	0.001601	0.001735	28.0783	0.070201	0.002030	34.5894	-36.3194	-166.891	-0.042366	1.741663	-0.022357	-0.023695	-0.009099	34.5894	-0.022159	-0.014254	0.638370	NaN
153	2.000000	1.780433	7.36654e+06	-46289.1	955.821	-29769.4	0.000000	0.000000	7.781567	15.2999	NaN	0.000000	0.001665	0.001720	28.1287	15.5153	0.001825	8499.27	9.356658	179.69	15.4117	1.780202	0.015076	0.014845	15.2999	8499.27	0.013726	0.013624	1123.03	66528.3
153	2.000000	1.795392	7.36654e+06	-46289.1	955.82	-29769.4	0.000000	0.000000	7.797862	47.7984	NaN	0.000000	0.001628	0.001733	28.0814	28.9472	0.001827	15843.2	7.422947	177.814	47.0278	1.795110	0.030035	0.029752	47.7984	15843.2	0.027772	0.036253	1318.48	76023.1
153	2.000000	1.810398	7.36654e+06	-46289.1	955.819	-29769.4	0.000000	0.000000	7.814753	93.6871	NaN	0.000000	0.001654	0.001710	28.1274	42.4063	0.001857	22840	7.123940	175.708	93.9086	1.810012	0.045040	0.044655	93.6871	22840	0.041964	0.069202	1353.82	79325.1
153	2.000000	1.825304	7.36654e+06	-46289.1	955.822	-29769.4	0.000000	0.000000	7.832113	153.37	NaN	0.000000	0.001616	0.001741	28.08	54.1036	0.001763	30680.1	3.145555	175.827	149.843	1.824996	0.059946	0.059638	153.37	30680.1	0.056197	0.112526	1362.97	83561
153	2.000000	1.840391	7.36654e+06	-46289.1	955.823	-29769.4	0.000000	0.000000	7.850090	223.66	NaN	0.000000	0.001661	0.001760	28.1279	69.2538	0.001808	38299	6.854309	170.734	226.046	1.840090	0.075034	0.074732	223.66	38299	0.070654	0.166759	1341.22	85687.2
153	2.000000	1.855352	7.36654e+06	-46289.1	955.821	-29769.4	0.000000	0.000000	7.868240	301.226	NaN	0.000000	0.001652	0.001788	28.0826	81.3674	0.001696	47979.4	1.504224	174.024	301.901	1.855162	0.089995	0.089804	301.226	47979.4	0.085286	0.231768	1299.69	91054.5
153	2.000000	1.870390	7.36654e+06	-46289.1	955.822	-29769.4	0.000000	0.000000	7.887337	399.968	NaN	0.000000	0.001608	0.001794	28.1273	96.9178	0.001857	52190.4	6.753836	168.521	403.991	1.870126	0.105032	0.104769	399.968	52190.4	0.099285	0.303228	1319.03	86592.3
153	2.000000	1.871180	7.36654e+06	-46289.1	955.822	-29769.4	0.000000	0.000000	7.888821	416.868	NaN	0.000000	0.001633	0.001832	28.0813	95.991	0.001719	55838.2	6.070663	169.173	410.265	1.870825	0.105823	0.105468	416.868	55838.2	0.100223	0.308340	1351.98	91873.5

File: 2025-07-22_16-23-58_1_154.txt
2025-07-22, 16:23:58, 1
Index	Phase	Displacement	Time	Pos X	Pos Y	Pos Z	Rot A	Rot B	Piezo Z	Force A	Force B	Gripper	Voltage A	Voltage B	Temperature	Amplitude force	Amplitude pos	Stiffness	Phase shift	Phase excitation	Force A raw	Displacement raw	HMax	HMax raw	Real Force	Real Stiffness	Contact Depth	Area	Hardness	Reduced Mod.
[#]	[#]	[um]	[s]	[um]	[um]	[um]	[m°]	[m°]	[um]	[uN]	[uN]	[V]	[V]	[V]	[°C]	[uN]	[um]	[N/m]	[°]	[°]	[uN]	[um]	[um]	[um]	[uN]	[N/m]	[um]	[um^2]	[MPa]	[MPa]
154	1.000000	0.002843	7.36655e+06	-46339.1	955.819	-29769.9	0.000000	0.000000	6.002789	-0.025970	NaN	0.000000	0.001604	0.001766	28.0864	0.067466	0.001000	67.4641	-122.372	-162.118	0.018186	0.001628	-1.051390	-1.052605	-0.025970	67.4641	-1.051101	-1.104639E+14	2.351025E-16	NaN
154	1.000000	0.042799	7.36655e+06	-46339.1	955.818	-29769.9	0.000000	0.000000	6.042746	0.019683	NaN	0.000000	0.001599	0.001716	28.0879	0.053431	0.001936	27.6036	-23.7162	-167.423	0.045665	0.041481	-1.011435	-1.012752	0.019683	27.6036	-1.011969	-3.287665E+13	-5.986931E-16	NaN
154	1.000000	0.082798	7.36655e+06	-46339.1	955.817	-29770	0.000000	0.000000	6.082743	-0.043631	NaN	0.000000	0.001593	0.001754	28.0865	0.185164	0.002092	88.5273	-24.0036	-165.564	-0.006792	0.081510	-0.971435	-0.972723	-0.043631	88.5273	-0.971066	-9.247551E+12	4.718102E-15	NaN
154	1.000000	0.122801	7.36655e+06	-46339.1	955.819	-29770	0.000000	0.000000	6.122747	-0.002054	NaN	0.000000	0.001633	0.001747	28.086	0.026375	0.001947	13.5478	89.4687	-165.98	0.023626	0.121535	-0.931433	-0.932699	-0.002054	13.5478	-0.931319	-2.691533E+12	7.630895E-16	NaN
154	1.000000	0.162852	7.36655e+06	-46339.1	955.819	-29770	0.000000	0.000000	6.162797	-0.038902	NaN	0.000000	0.001629	0.001761	28.0845	0.114660	0.001957	58.5865	65.5886	-165.723	-0.094160	0.161513	-0.891381	-0.892720	-0.038902	58.5865	-0.890883	-7.653447E+11	5.082886E-14	NaN
154	1.000000	0.202862	7.36655e+06	-46339.1	955.819	-29770	0.000000	0.000000	6.202806	-0.069568	NaN	0.000000	0.001658	0.001733	28.0855	0.074391	0.001944	38.2665	-155.714	-165.598	0.005618	0.201591	-0.851371	-0.852642	-0.069568	38.2665	-0.850008	-2.142125E+11	3.247606E-13	NaN
154	1.000000	0.242877	7.36655e+06	-46339.1	955.817	-29770	0.000000	0.000000	6.242822	-0.029203	NaN	0.000000	0.001700	0.001743	28.0836	0.100189	0.002065	48.5124	66.1511	-166.046	-0.025631	0.241544	-0.811357	-0.812690	-0.029203	48.5124	-0.810905	-6.321965E+10	4.619233E-13	NaN
154	1.000000	0.282907	7.36655e+06	-46339.1	955.818	-29770	0.000000	0.000000	6.282852	-0.033531	NaN	0.000000	0.001680	0.001736	28.087	0.060141	0.001979	30.3852	143.042	-165.99	0.045969	0.281615	-0.771327	-0.772619	-0.033531	30.3852	-0.770499	-1.786867E+10	1.876529E-12	NaN
154	1.000000	0.322914	7.36655e+06	-46339.1	955.818	-29770	0.000000	0.000000	6.322862	0.022119	NaN	0.000000	0.001661	0.001710	28.0859	0.082473	0.001889	43.6632	-130.665	-164.038	-0.016663	0.321590	-0.731319	-0.732644	0.022119	43.6632	-0.731699	-5.296232E+9	-4.176452E-12	NaN
154	1.000000	0.362944	7.36655e+06	-46339.1	955.818	-29770	0.000000	0.000000	6.362889	-0.039031	NaN	0.000000	0.001644	0.001742	28.0873	0.090202	0.001923	46.8973	37.5671	-165.589	-0.035924	0.361642	-0.691290	-0.692592	-0.039031	46.8973	-0.690665	-1.458856E+9	2.675463E-11	NaN
154	1.000000	0.402940	7.36655e+06	-46339.1	955.819	-29770	0.000000	0.000000	6.402885	-0.024488	NaN	0.000000	0.001648	0.001718	28.085	0.136020	0.001951	69.7191	-8.952217	-169.351	-0.062795	0.401655	-0.651294	-0.652579	-0.024488	69.7191	-0.651031	-4.183732E+8	5.853036E-11	NaN
154	1.000000	0.442973	7.36655e+06	-46339.1	955.818	-29770	0.000000	0.000000	6.442914	-0.128104	NaN	0.000000	0.001599	0.001716	28.0865	0.068961	0.001945	35.4537	86.8631	-163.786	-0.083936	0.441626	-0.611261	-0.612608	-0.128104	35.4537	-0.608551	-1.091874E+8	1.173251E-9	NaN
154	1.000000	0.482997	7.36655e+06	-46339.1	955.819	-29770	0.000000	0.000000	6.482944	0.006215	NaN	0.000000	0.001611	0.001726	28.084	0.064017	0.001972	32.4653	-63.5891	-166.1	0.059833	0.481648	-0.571237	-0.572585	0.006215	32.4653	-0.571380	-3.355095E+7	-1.852552E-10	NaN
154	1.000000	0.523016	7.36655e+06	-46339.1	955.818	-29770	0.000000	0.000000	6.522965	0.064646	NaN	0.000000	0.001638	0.001769	28.0849	0.050612	0.002033	24.8901	121.761	-166.654	0.009055	0.521690	-0.531218	-0.532544	0.064646	24.8901	-0.533166	-9.92039e+06	-6.516490E-9	NaN
154	1.000000	0.562994	7.36655e+06	-46339.1	955.818	-29770	0.000000	0.000000	6.562942	0.037182	NaN	0.000000	0.001673	0.001759	28.0851	0.097369	0.002054	47.408	-9.415530	-168.88	0.004446	0.561674	-0.491239	-0.492560	0.037182	47.408	-0.491828	-2.6359e+06	-1.410600E-8	NaN
154	1.000000	0.603019	7.36655e+06	-46339.1	955.818	-29770	0.000000	0.000000	6.602963	-0.058801	NaN	0.000000	0.001735	0.001685	28.0855	0.018072	0.001962	9.209373	-38.6729	-165.378	-0.078088	0.601699	-0.451215	-0.452535	-0.058801	9.209373	-0.446426	-608127	9.669226E-8	NaN
154	1.000000	0.643046	7.36655e+06	-46339.1	955.818	-29770	0.000000	0.000000	6.642994	0.013424	NaN	0.000000	0.001601	0.001743	28.0847	0.096413	0.001995	48.3157	-155.864	-165.242	-0.059676	0.641706	-0.411187	-0.412528	0.013424	48.3157	-0.411396	-194197	-6.912538E-8	NaN
154	1.000000	0.683057	7.36655e+06	-46339.1	955.818	-29770	0.000000	0.000000	6.683004	-0.000340	NaN	0.000000	0.001605	0.001719	28.086	0.048831	0.001984	24.6104	-87.8176	-166.43	-0.073218	0.681747	-0.371176	-0.372486	-0.000340	24.6104	-0.371166	-51631.8	6.591254E-9	NaN
154	1.000000	0.723069	7.36655e+06	-46339.1	955.819	-29770	0.000000	0.000000	6.723014	-0.027365	NaN	0.000000	0.001758	0.001756	28.0838	0.085020	0.001915	44.4054	171.136	-167.732	-0.030676	0.721816	-0.331165	-0.332417	-0.027365	44.4054	-0.330703	-13358	2.048574E-6	NaN
154	1.000000	0.763110	7.36655e+06	-46339.1	955.818	-29770	0.000000	0.000000	6.763055	-0.041641	NaN	0.000000	0.001681	0.001768	28.0845	0.176126	0.002032	86.6897	-62.3591	-163.095	-0.061549	0.761852	-0.291124	-0.292382	-0.041641	86.6897	-0.290764	-3425.63	1.215576E-5	NaN
154	1.000000	0.803113	7.36655e+06	-46339.1	955.82	-29770	0.000000	0.000000	6.803059	-0.007626	NaN	0.000000	0.001689	0.001780	28.0847	0.058000	0.002052	28.2602	162.819	-164.989	0.063637	0.801792	-0.251121	-0.252442	-0.007626	28.2602	-0.250918	-849.502	8.976695E-6	NaN
154	1.000000	0.843148	7.36655e+06	-46339.1	955.817	-29770	0.000000	0.000000	6.843094	-0.002222	NaN	0.000000	0.001737	0.001766	28.085	0.058773	0.002098	28.0115	177.716	-162.649	-0.009965	0.841807	-0.211086	-0.212427	-0.002222	28.0115	-0.211026	-199.263	1.115152E-5	NaN
154	1.000000	0.883150	7.36655e+06	-46339.1	955.817	-29770	0.000000	0.000000	6.883095	-0.031686	NaN	0.000000	0.001753	0.001724	28.086	0.030087	0.001997	15.0674	81.3812	-163.79	0.007386	0.881777	-0.171084	-0.172456	-0.031686	15.0674	-0.169506	-40.2751	0.000787	NaN
154	1.000000	0.923188	7.36655e+06	-46339.1	955.818	-29770	0.000000	0.000000	6.923133	-0.048555	NaN	0.000000	0.001724	0.001764	28.0856	0.043383	0.001973	21.9857	-34.2448	-167.26	-0.083819	0.921844	-0.131045	-0.132389	-0.048555	21.9857	-0.129389	-7.415318	0.006548	NaN
154	1.000000	0.963186	7.36655e+06	-46339.1	955.818	-29770	0.000000	0.000000	6.963130	-0.059809	NaN	0.000000	0.001667	0.001786	28.0834	0.052577	0.002038	25.8023	164.528	-165.964	-0.022792	0.961881	-0.091048	-0.092353	-0.059809	25.8023	-0.089309	-1.041307	0.057437	NaN
154	1.000000	1.003204	7.36655e+06	-46339.1	955.819	-29770	0.000000	0.000000	7.003148	-0.057717	NaN	0.000000	0.001651	0.001750	28.0842	0.090227	0.002064	43.7209	170.582	-162.117	-0.058513	1.001869	-0.051030	-0.052364	-0.057717	43.7209	-0.050040	-0.091503	0.630759	NaN
154	1.000000	1.043194	7.36655e+06	-46339.1	955.818	-29770	0.000000	0.000000	7.043140	-0.001529	NaN	0.000000	0.001677	0.001743	28.0837	0.015446	0.002188	7.058937	-20.9617	-161.989	-0.036628	1.041923	-0.011040	-0.012311	-0.001529	7.058937	-0.010878	-0.006888	0.221983	NaN
154	2.000000	1.066821	7.36655e+06	-46339.1	955.82	-29770	0.000000	0.000000	7.067554	19.1458	NaN	0.000000	0.001655	0.001712	28.0844	14.6791	0.001667	8806.4	5.477845	-175.894	18.2572	1.066520	0.012587	0.012286	19.1458	8806.4	0.010957	0.010264	1865.32	79416.8
154	2.000000	1.076843	7.36655e+06	-46339.1	955.82	-29770	0.000000	0.000000	7.078507	41.7719	NaN	0.000000	0.001594	0.001725	28.0845	23.4951	0.001801	13048.4	4.968481	-175.915	43.5299	1.076422	0.022609	0.022188	41.7719	13048.4	0.020208	0.022871	1826.43	78829.9
154	2.000000	1.086775	7.36655e+06	-46339.1	955.82	-29770	0.000000	0.000000	7.089938	78.242	NaN	0.000000	0.001602	0.001749	28.0852	33.5797	0.001831	18340	5.993399	179.042	79.7872	1.086435	0.032542	0.032202	78.242	18340	0.029342	0.039391	1986.31	84425.9
154	2.000000	1.096773	7.36655e+06	-46339.1	955.82	-29770	0.000000	0.000000	7.101518	116.718	NaN	0.000000	0.001559	0.001691	28.0845	43.2601	0.001827	23675.7	7.775778	175.26	118.399	1.096512	0.042540	0.042279	116.718	23675.7	0.038842	0.061071	1911.18	87530.2
154	2.000000	1.106734	7.36655e+06	-46339.1	955.819	-29770	0.000000	0.000000	7.113641	169.309	NaN	0.000000	0.001632	0.001693	28.0839	52.2931	0.001839	28432.2	6.483359	174.887	169.471	1.106407	0.052500	0.052174	169.309	28432.2	0.048034	0.086433	1958.83	88357.3
154	2.000000	1.116620	7.36655e+06	-46339.1	955.82	-29770	0.000000	0.000000	7.126209	234.539	NaN	0.000000	0.001596	0.001655	28.0835	62.7392	0.001835	34185.8	4.707324	175.471	230.152	1.116389	0.062387	0.062156	234.539	34185.8	0.057241	0.116102	2020.12	91664.2
154	2.000000	1.126622	7.36655e+06	-46339.1	955.82	-29770	0.000000	0.000000	7.139569	316.235	NaN	0.000000	0.001614	0.001712	28.0831	71.9643	0.001717	41903	1.720473	176.853	311.931	1.126396	0.072389	0.072162	316.235	41903	0.066729	0.151036	2093.78	98509.5
154	2.000000	1.136636	7.36655e+06	-46339.1	955.819	-29770	0.000000	0.000000	7.152901	396.952	NaN	0.000000	0.001638	0.001733	28.084	83.2275	0.001959	42493.2	1.987288	176.724	392.508	1.136381	0.082402	0.082147	396.952	42493.2	0.075396	0.186730	2125.81	89843.5
154	2.000000	1.146677	7.36655e+06	-46339.1	955.817	-29770	0.000000	0.000000	7.166551	484.741	NaN	0.000000	0.001621	0.001641	28.0828	91.4317	0.001765	51814.5	6.836484	170.38	485.137	1.146370	0.092444	0.092136	484.741	51814.5	0.085427	0.232443	2085.42	98189.7
154	2.000000	1.156478	7.36655e+06	-46339.1	955.819	-29770	0.000000	0.000000	7.180578	587.547	NaN	0.000000	0.001659	0.001692	28.0838	101.036	0.001768	57149.6	6.083487	170.31	576.005	1.156181	0.102244	0.101948	587.547	57149.6	0.094533	0.277969	2113.72	99035
154	2.000000	1.159757	7.36655e+06	-46339.1	955.819	-29770	0.000000	0.000000	7.185191	619.977	NaN	0.000000	0.001679	0.001648	28.1204	103.564	0.001742	59441.7	4.033657	172.687	624.66	1.159376	0.105523	0.105142	619.977	59441.7	0.097701	0.294693	2103.81	100041