Folder: unikorn_login/remote_trans/data/nanoindenter/0828-1/data/Data_2025-08-06,11h17m57s (part 101)

File: 2025-07-22_16-23-58_1_219.txt
2025-07-22, 16:23:58, 1
Index	Phase	Displacement	Time	Pos X	Pos Y	Pos Z	Rot A	Rot B	Piezo Z	Force A	Force B	Gripper	Voltage A	Voltage B	Temperature	Amplitude force	Amplitude pos	Stiffness	Phase shift	Phase excitation	Force A raw	Displacement raw	HMax	HMax raw	Real Force	Real Stiffness	Contact Depth	Area	Hardness	Reduced Mod.
[#]	[#]	[um]	[s]	[um]	[um]	[um]	[m°]	[m°]	[um]	[uN]	[uN]	[V]	[V]	[V]	[°C]	[uN]	[um]	[N/m]	[°]	[°]	[uN]	[um]	[um]	[um]	[uN]	[N/m]	[um]	[um^2]	[MPa]	[MPa]
219	1.000000	0.002244	7.36719e+06	-49589.1	955.818	-29758.8	0.000000	0.000000	6.002768	-0.049975	NaN	0.000000	0.001583	0.001719	28.078	0.107240	0.000945	113.445	137.542	-160.64	-0.120455	0.001033	-1.142415	-1.143626	-0.049975	113.445	-1.142085	-1.839491E+15	2.716781E-17	NaN
219	1.000000	0.044205	7.36719e+06	-49589.1	955.819	-29758.8	0.000000	0.000000	6.044730	-0.029432	NaN	0.000000	0.001590	0.001686	28.078	0.057247	0.001953	29.3097	-96.5173	15.0373	-0.068018	0.042861	-1.100454	-1.101798	-0.029432	29.3097	-1.099701	-4.966559E+14	5.925991E-17	NaN
219	1.000000	0.086224	7.36719e+06	-49589.1	955.818	-29758.8	0.000000	0.000000	6.086750	-0.009435	NaN	0.000000	0.001605	0.001680	28.0781	0.112132	0.001911	58.6838	102.223	-169.119	-0.005527	0.084935	-1.058436	-1.059724	-0.009435	58.6838	-1.058315	-1.380947E+14	6.832083E-17	NaN
219	1.000000	0.128243	7.36719e+06	-49589.1	955.819	-29758.8	0.000000	0.000000	6.128767	-0.042739	NaN	0.000000	0.001620	0.001705	28.0791	0.117776	0.001998	58.9608	-125.369	11.977	-0.010429	0.126915	-1.016417	-1.017745	-0.042739	58.9608	-1.015873	-3.710381E+13	1.151879E-15	NaN
219	1.000000	0.170260	7.36719e+06	-49589.1	955.818	-29758.8	0.000000	0.000000	6.170785	-0.047231	NaN	0.000000	0.001570	0.001709	28.0796	0.054371	0.001871	29.0609	179.376	-163.933	-0.042964	0.168933	-0.974399	-0.975726	-0.047231	29.0609	-0.973180	-9.874626E+12	4.783086E-15	NaN
219	1.000000	0.212316	7.36719e+06	-49589.1	955.818	-29758.8	0.000000	0.000000	6.212842	-0.016882	NaN	0.000000	0.001683	0.001685	28.0795	0.120269	0.001896	63.4469	36.0889	14.2392	-0.018728	0.210950	-0.932343	-0.933709	-0.016882	63.4469	-0.932144	-2.761383E+12	6.113443E-15	NaN
219	1.000000	0.254307	7.36719e+06	-49589.1	955.818	-29758.8	0.000000	0.000000	6.254835	0.032374	NaN	0.000000	0.001643	0.001709	28.0786	0.026816	0.001992	13.4605	-62.2944	-165.069	-0.013675	0.253049	-0.890353	-0.891610	0.032374	13.4605	-0.892156	-7.962751E+11	-4.065640E-14	NaN
219	1.000000	0.296304	7.36719e+06	-49589.1	955.817	-29758.8	0.000000	0.000000	6.296830	-0.014286	NaN	0.000000	0.001567	0.001650	28.0784	0.018797	0.001934	9.717488	-109.286	15.8997	-0.110554	0.294972	-0.848355	-0.849687	-0.014286	9.717488	-0.847253	-1.965777E+11	7.267432E-14	NaN
219	1.000000	0.338318	7.36719e+06	-49589.1	955.818	-29758.8	0.000000	0.000000	6.338842	-0.057849	NaN	0.000000	0.001591	0.001645	28.078	0.116290	0.002088	55.6941	154.858	-164.956	-0.021102	0.337028	-0.806341	-0.807632	-0.057849	55.6941	-0.805562	-5.350003E+10	1.081287E-12	NaN
219	1.000000	0.380355	7.36719e+06	-49589.1	955.819	-29758.8	0.000000	0.000000	6.380881	-0.031573	NaN	0.000000	0.001630	0.001666	28.0793	0.089530	0.001996	44.8636	-160.978	11.1997	-0.013465	0.378967	-0.764304	-0.765692	-0.031573	44.8636	-0.763776	-1.447660E+10	2.180964E-12	NaN
219	1.000000	0.422367	7.36719e+06	-49589.1	955.818	-29758.8	0.000000	0.000000	6.422893	-0.027453	NaN	0.000000	0.001592	0.001677	28.0788	0.020661	0.001935	10.6747	-114.19	-167.059	0.013455	0.421070	-0.722292	-0.723589	-0.027453	10.6747	-0.720363	-3.710436E+9	7.398852E-12	NaN
219	1.000000	0.464385	7.36719e+06	-49589.1	955.818	-29758.8	0.000000	0.000000	6.464908	-0.080445	NaN	0.000000	0.001576	0.001664	28.0789	0.048745	0.002026	24.0602	-172.381	12.7146	-0.080434	0.463047	-0.680274	-0.681612	-0.080445	24.0602	-0.677767	-9.719910E+8	8.276281E-11	NaN
219	1.000000	0.506391	7.36719e+06	-49589.1	955.818	-29758.8	0.000000	0.000000	6.506913	-0.103843	NaN	0.000000	0.001690	0.001671	28.078	0.135536	0.002041	66.4089	-174.345	-164.386	-0.148396	0.505144	-0.638268	-0.639515	-0.103843	66.4089	-0.637095	-2.694201E+8	3.854297E-10	NaN
219	1.000000	0.548444	7.36719e+06	-49589.1	955.819	-29758.8	0.000000	0.000000	6.548971	0.012177	NaN	0.000000	0.001648	0.001682	28.0778	0.058923	0.002024	29.1184	169.946	13.4554	0.034384	0.547044	-0.596215	-0.597615	0.012177	29.1184	-0.596529	-7.458436E+7	-1.632688E-10	NaN
219	1.000000	0.590460	7.36719e+06	-49589.1	955.818	-29758.8	0.000000	0.000000	6.590984	-0.081401	NaN	0.000000	0.001507	0.001706	28.0779	0.041211	0.002011	20.4932	21.361	-162.129	-0.045618	0.589130	-0.554199	-0.555529	-0.081401	20.4932	-0.551220	-1.765419E+7	4.610869E-9	NaN
219	1.000000	0.632465	7.36719e+06	-49589.1	955.818	-29758.8	0.000000	0.000000	6.632991	-0.003021	NaN	0.000000	0.001588	0.001701	28.0781	0.038405	0.002122	18.1005	-75.1911	13.6435	-0.020589	0.631101	-0.512194	-0.513558	-0.003021	18.1005	-0.512069	-5.04933e+06	5.983252E-10	NaN
219	1.000000	0.674473	7.36719e+06	-49589.1	955.818	-29758.8	0.000000	0.000000	6.674997	-0.067029	NaN	0.000000	0.001596	0.001698	28.0795	0.007644	0.002043	3.741220	57.1269	-163.437	-0.046229	0.673228	-0.470186	-0.471431	-0.067029	3.741220	-0.456749	-849788	7.887675E-8	NaN
219	1.000000	0.716521	7.36719e+06	-49589.1	955.818	-29758.8	0.000000	0.000000	6.717047	-0.017469	NaN	0.000000	0.001625	0.001659	28.0791	0.075222	0.001950	38.5747	65.7745	14.4626	0.014469	0.715175	-0.428138	-0.429484	-0.017469	38.5747	-0.427798	-331823	5.264433E-8	NaN
219	1.000000	0.758572	7.36719e+06	-49589.1	955.819	-29758.8	0.000000	0.000000	6.759099	0.006179	NaN	0.000000	0.001707	0.001648	28.0791	0.096678	0.001959	49.3628	145.539	-166.222	-0.031663	0.757205	-0.386087	-0.387454	0.006179	49.3628	-0.386181	-84820.3	-7.285402E-8	NaN
219	1.000000	0.800563	7.36719e+06	-49589.1	955.818	-29758.8	0.000000	0.000000	6.801091	0.054541	NaN	0.000000	0.001570	0.001657	28.0779	0.111300	0.001966	56.6242	-157.833	13.4248	0.037345	0.799221	-0.344097	-0.345438	0.054541	56.6242	-0.344819	-21464.6	-2.540961E-6	NaN
219	1.000000	0.842577	7.36719e+06	-49589.1	955.818	-29758.8	0.000000	0.000000	6.843104	0.000417	NaN	0.000000	0.001596	0.001647	28.0779	0.085418	0.001976	43.2331	-100.229	-163.284	-0.010376	0.841216	-0.302082	-0.303443	0.000417	43.2331	-0.302089	-5054.9	-8.258135E-8	NaN
219	1.000000	0.884590	7.36719e+06	-49589.1	955.818	-29758.8	0.000000	0.000000	6.885116	-0.021576	NaN	0.000000	0.001569	0.001733	28.0778	0.094135	0.002119	44.4169	40.5842	15.6406	-0.033919	0.883238	-0.260069	-0.261421	-0.021576	44.4169	-0.259704	-1159.81	1.860316E-5	NaN
219	1.000000	0.926590	7.36719e+06	-49589.1	955.818	-29758.8	0.000000	0.000000	6.927116	-0.011572	NaN	0.000000	0.001589	0.001675	28.0792	0.060084	0.002046	29.3657	77.6286	-164.502	0.035249	0.925283	-0.218070	-0.219376	-0.011572	29.3657	-0.217774	-255.889	4.522460E-5	NaN
219	1.000000	0.968623	7.36719e+06	-49589.1	955.819	-29758.8	0.000000	0.000000	6.969149	-0.020407	NaN	0.000000	0.001599	0.001661	28.0793	0.091583	0.001985	46.1472	-11.4874	15.71	-0.080425	0.967284	-0.176036	-0.177375	-0.020407	46.1472	-0.175704	-51.5311	0.000396	NaN
219	1.000000	1.010630	7.36719e+06	-49589.1	955.819	-29758.8	0.000000	0.000000	7.011156	-0.026758	NaN	0.000000	0.001594	0.001670	28.079	0.141973	0.002000	70.9855	74.3072	-167.896	-0.031952	1.009316	-0.134029	-0.135344	-0.026758	70.9855	-0.133746	-9.001295	0.002973	NaN
219	1.000000	1.052626	7.36719e+06	-49589.1	955.819	-29758.8	0.000000	0.000000	7.053149	-0.064469	NaN	0.000000	0.001631	0.001662	28.0779	0.069042	0.001982	34.8348	92.9927	14.9617	-0.065440	1.051251	-0.092034	-0.093409	-0.064469	34.8348	-0.090646	-1.119272	0.057599	NaN
219	1.000000	1.094685	7.36719e+06	-49589.1	955.82	-29758.8	0.000000	0.000000	7.095207	-0.091650	NaN	0.000000	0.001609	0.001678	28.078	0.003217	0.002152	1.495332	-4.937753	-162.641	-0.138392	1.093344	-0.049975	-0.051315	-0.091650	1.495332	-0.004006	-0.002783	32.9316	NaN
219	1.000000	1.136664	7.36719e+06	-49589.1	955.819	-29758.8	0.000000	0.000000	7.137191	0.014729	NaN	0.000000	0.001620	0.001658	28.0781	0.111236	0.002022	55.0261	-5.374810	14.5545	0.027590	1.135329	-0.007995	-0.009330	0.014729	55.0261	-0.008196	-0.005346	-2.755025	NaN
219	2.000000	1.159261	7.36719e+06	-49589.1	955.82	-29758.8	0.000000	0.000000	7.160326	13.099	NaN	0.000000	0.001602	0.001632	28.0779	13.6458	0.001911	7139.48	8.407247	-172.322	13.0471	1.158974	0.014602	0.014315	13.099	7139.48	0.013226	0.012992	1008.26	57227.8
219	2.000000	1.169720	7.36719e+06	-49589.1	955.819	-29758.8	0.000000	0.000000	7.171589	32.6417	NaN	0.000000	0.001647	0.001689	28.0793	24.1621	0.001771	13640.3	5.034942	2.230993	30.9328	1.169393	0.025061	0.024733	32.6417	13640.3	0.023266	0.027936	1168.43	74561.1
219	2.000000	1.180196	7.36719e+06	-49589.1	955.82	-29758.8	0.000000	0.000000	7.183232	61.0457	NaN	0.000000	0.001585	0.001673	28.0791	34.3813	0.001821	18878.3	6.155301	177.694	58.9444	1.179848	0.035536	0.035189	61.0457	18878.3	0.033111	0.047439	1286.82	79189.3
219	2.000000	1.190637	7.36719e+06	-49589.1	955.821	-29758.8	0.000000	0.000000	7.195234	98.9731	NaN	0.000000	0.001679	0.001649	28.079	44.1936	0.001642	26911.1	4.007651	-3.124440	94.3376	1.190242	0.045978	0.045583	98.9731	26911.1	0.043220	0.072614	1363	91242.1
219	2.000000	1.201194	7.36719e+06	-49589.1	955.821	-29758.8	0.000000	0.000000	7.207430	138.857	NaN	0.000000	0.001677	0.001669	28.0775	53.6431	0.001802	29770.8	3.444085	176.802	137.611	1.200945	0.056535	0.056286	138.857	29770.8	0.053037	0.102030	1360.93	85152.7
219	2.000000	1.211690	7.36719e+06	-49589.1	955.821	-29758.8	0.000000	0.000000	7.219880	186.372	NaN	0.000000	0.001711	0.001728	28.0778	66.6186	0.001797	37078.3	7.463098	-9.681027	184.168	1.211467	0.067031	0.066808	186.372	37078.3	0.063261	0.137761	1352.87	91270.6
219	2.000000	1.222058	7.36719e+06	-49589.1	955.82	-29758.8	0.000000	0.000000	7.232883	250.46	NaN	0.000000	0.001678	0.001684	28.0782	75.3521	0.001767	42639.7	3.027601	174.5	245.504	1.221764	0.077399	0.077105	250.46	42639.7	0.072993	0.176477	1419.22	92734.7
219	2.000000	1.232611	7.36719e+06	-49589.1	955.819	-29758.8	0.000000	0.000000	7.246230	318.413	NaN	0.000000	0.001743	0.001706	28.0797	86.0395	0.001823	47207	6.245829	-9.707632	315.162	1.232331	0.087952	0.087672	318.413	47207	0.082893	0.220454	1444.35	91858.7
219	2.000000	1.243142	7.36719e+06	-49589.1	955.821	-29758.8	0.000000	0.000000	7.260047	398.316	NaN	0.000000	0.001682	0.001618	28.0793	95.1029	0.001738	54724.4	7.089372	168.89	399.916	1.242726	0.098483	0.098067	398.316	54724.4	0.093024	0.270161	1474.37	96192.9
219	2.000000	1.251034	7.36719e+06	-49589.1	955.82	-29758.8	0.000000	0.000000	7.270950	471.541	NaN	0.000000	0.001695	0.001669	28.0791	102.915	0.001776	57956.4	8.318281	167.371	464.815	1.250637	0.106375	0.105978	471.541	57956.4	0.100272	0.308608	1527.96	95317.2

File: 2025-07-22_16-23-58_1_220.txt
2025-07-22, 16:23:58, 1
Index	Phase	Displacement	Time	Pos X	Pos Y	Pos Z	Rot A	Rot B	Piezo Z	Force A	Force B	Gripper	Voltage A	Voltage B	Temperature	Amplitude force	Amplitude pos	Stiffness	Phase shift	Phase excitation	Force A raw	Displacement raw	HMax	HMax raw	Real Force	Real Stiffness	Contact Depth	Area	Hardness	Reduced Mod.
[#]	[#]	[um]	[s]	[um]	[um]	[um]	[m°]	[m°]	[um]	[uN]	[uN]	[V]	[V]	[V]	[°C]	[uN]	[um]	[N/m]	[°]	[°]	[uN]	[um]	[um]	[um]	[uN]	[N/m]	[um]	[um^2]	[MPa]	[MPa]
220	1.000000	0.002209	7.3672e+06	-49639.1	955.818	-29758.7	0.000000	0.000000	6.002794	0.063613	NaN	0.000000	0.001615	0.001738	28.081	0.064912	0.001045	62.088	-8.121150	-167.483	-0.003903	0.000975	-1.026120	-1.027354	0.063613	62.088	-1.026888	-5.219461E+13	-1.218770E-15	NaN
220	1.000000	0.042159	7.3672e+06	-49639.1	955.818	-29758.7	0.000000	0.000000	6.042743	0.041478	NaN	0.000000	0.001572	0.001681	28.0806	0.088859	0.001947	45.6283	-117.039	-166.251	0.095537	0.040839	-0.986169	-0.987490	0.041478	45.6283	-0.986851	-1.509048E+13	-2.748612E-15	NaN
220	1.000000	0.082192	7.3672e+06	-49639.1	955.818	-29758.7	0.000000	0.000000	6.082777	0.071330	NaN	0.000000	0.001608	0.001691	28.0806	0.033297	0.001975	16.8627	153.507	-167.708	0.115895	0.080885	-0.946137	-0.947444	0.071330	16.8627	-0.949309	-4.706623E+12	-1.515520E-14	NaN
220	1.000000	0.122167	7.3672e+06	-49639.1	955.818	-29758.7	0.000000	0.000000	6.122749	0.002583	NaN	0.000000	0.001602	0.001708	28.0791	0.026951	0.002097	12.851	85.3704	-163.039	0.003476	0.120865	-0.906162	-0.907463	0.002583	12.851	-0.906313	-1.236954E+12	-2.088052E-15	NaN
220	1.000000	0.162199	7.3672e+06	-49639.1	955.818	-29758.7	0.000000	0.000000	6.162783	0.042088	NaN	0.000000	0.001635	0.001633	28.0792	0.061512	0.002018	30.4805	179.355	-172.522	0.075088	0.160948	-0.866130	-0.867381	0.042088	30.4805	-0.867165	-3.656693E+11	-1.150975E-13	NaN
220	1.000000	0.202222	7.3672e+06	-49639.1	955.818	-29758.7	0.000000	0.000000	6.202807	0.054264	NaN	0.000000	0.001628	0.001651	28.0791	0.033474	0.002098	15.9542	94.426	-165.901	0.052324	0.200914	-0.826107	-0.827415	0.054264	15.9542	-0.828657	-1.100493E+11	-4.930860E-13	NaN
220	1.000000	0.242268	7.3672e+06	-49639.1	955.818	-29758.7	0.000000	0.000000	6.242853	0.046793	NaN	0.000000	0.001561	0.001646	28.0791	0.080955	0.002114	38.2981	-34.6373	-164.973	-0.056538	0.240923	-0.786060	-0.787406	0.046793	38.2981	-0.786977	-2.992382E+10	-1.563734E-12	NaN
220	1.000000	0.282234	7.3672e+06	-49639.1	955.818	-29758.7	0.000000	0.000000	6.282820	0.076957	NaN	0.000000	0.001590	0.001638	28.0806	0.036418	0.001941	18.7593	-62.4336	-167.683	0.028323	0.280974	-0.746094	-0.747355	0.076957	18.7593	-0.749171	-9.160836E+9	-8.400620E-12	NaN
220	1.000000	0.322290	7.3672e+06	-49639.1	955.817	-29758.7	0.000000	0.000000	6.322875	0.078175	NaN	0.000000	0.001571	0.001661	28.0806	0.053663	0.002009	26.7176	-56.1691	-164.466	0.022561	0.320971	-0.706039	-0.707358	0.078175	26.7176	-0.708233	-2.534755E+9	-3.084109E-11	NaN
220	1.000000	0.362284	7.3672e+06	-49639.1	955.817	-29758.7	0.000000	0.000000	6.362868	0.032624	NaN	0.000000	0.001598	0.001679	28.0806	0.015906	0.002061	7.717398	25.8105	-165.474	0.004896	0.360999	-0.666044	-0.667330	0.032624	7.717398	-0.669215	-7.424088E+8	-4.394337E-11	NaN
220	1.000000	0.402294	7.3672e+06	-49639.1	955.817	-29758.7	0.000000	0.000000	6.402879	0.068708	NaN	0.000000	0.001613	0.001653	28.0791	0.048060	0.001992	24.1209	159.587	-168.003	0.046389	0.401019	-0.626035	-0.627310	0.068708	24.1209	-0.628171	-2.031926E+8	-3.381415E-10	NaN
220	1.000000	0.442331	7.3672e+06	-49639.1	955.817	-29758.7	0.000000	0.000000	6.442915	0.029440	NaN	0.000000	0.001560	0.001640	28.0793	0.089188	0.001972	45.2299	-93.5337	-164.194	0.075123	0.441015	-0.585997	-0.587314	0.029440	45.2299	-0.586486	-5.422583E+7	-5.429103E-10	NaN
220	1.000000	0.482382	7.3672e+06	-49639.1	955.818	-29758.7	0.000000	0.000000	6.482965	0.019484	NaN	0.000000	0.001607	0.001654	28.0794	0.052164	0.002042	25.5499	8.029449	-164.166	0.052490	0.481058	-0.545947	-0.547270	0.019484	25.5499	-0.546519	-1.519604E+7	-1.282204E-9	NaN
220	1.000000	0.522375	7.3672e+06	-49639.1	955.818	-29758.7	0.000000	0.000000	6.522963	0.114777	NaN	0.000000	0.001564	0.001587	28.0794	0.083386	0.002059	40.5056	-170.611	-166.979	0.110642	0.521086	-0.505953	-0.507243	0.114777	40.5056	-0.508078	-4.4427e+06	-2.583507E-8	NaN
220	1.000000	0.562400	7.3672e+06	-49639.1	955.817	-29758.7	0.000000	0.000000	6.562984	0.041478	NaN	0.000000	0.001644	0.001663	28.0802	0.060346	0.002044	29.5191	126.619	-167.956	0.036989	0.561125	-0.465929	-0.467204	0.041478	29.5191	-0.466983	-1.18325e+06	-3.505459E-8	NaN
220	1.000000	0.602399	7.3672e+06	-49639.1	955.817	-29758.7	0.000000	0.000000	6.602986	0.092871	NaN	0.000000	0.001585	0.001655	28.0805	0.037430	0.002056	18.2092	31.4037	-167.418	0.096893	0.601088	-0.425929	-0.427241	0.092871	18.2092	-0.429754	-353662	-2.625977E-7	NaN
220	1.000000	0.642413	7.3672e+06	-49639.1	955.818	-29758.7	0.000000	0.000000	6.642994	-0.049786	NaN	0.000000	0.001642	0.001680	28.0808	0.030764	0.002011	15.3004	-149.405	-165.082	-0.131679	0.641140	-0.385915	-0.387189	-0.049786	15.3004	-0.383475	-77576.7	6.417649E-7	NaN
220	1.000000	0.682443	7.3672e+06	-49639.1	955.818	-29758.7	0.000000	0.000000	6.683028	0.062835	NaN	0.000000	0.001641	0.001636	28.0796	0.071619	0.001989	36.0065	-39.5325	-165.417	0.072927	0.681133	-0.345886	-0.347195	0.062835	36.0065	-0.347195	-23241.5	-2.703590E-6	NaN
220	1.000000	0.722464	7.3672e+06	-49639.1	955.818	-29758.7	0.000000	0.000000	6.723051	0.098067	NaN	0.000000	0.001654	0.001687	28.0796	0.105824	0.002066	51.2186	131.321	-166.859	-0.012861	0.721157	-0.305864	-0.307172	0.098067	51.2186	-0.307300	-6040.51	-1.623496E-5	NaN
220	1.000000	0.762488	7.3672e+06	-49639.1	955.819	-29758.7	0.000000	0.000000	6.763072	0.050723	NaN	0.000000	0.001600	0.001731	28.0793	0.053259	0.002000	26.6326	-3.646824	-168.412	0.045314	0.761189	-0.265841	-0.267139	0.050723	26.6326	-0.267269	-1513.54	-3.351278E-5	NaN
220	1.000000	0.802485	7.3672e+06	-49639.1	955.818	-29758.7	0.000000	0.000000	6.803069	0.043005	NaN	0.000000	0.001592	0.001686	28.0805	0.050094	0.002074	24.1559	-8.176171	-166.124	-0.006172	0.801202	-0.225844	-0.227127	0.043005	24.1559	-0.227179	-361.329	-0.000119	NaN
220	1.000000	0.842503	7.3672e+06	-49639.1	955.818	-29758.7	0.000000	0.000000	6.843087	0.041137	NaN	0.000000	0.001608	0.001694	28.0805	0.066733	0.002057	32.4489	170.921	-164.746	0.037451	0.841180	-0.185826	-0.187149	0.041137	32.4489	-0.186777	-79.4387	-0.000518	NaN
220	1.000000	0.882499	7.3672e+06	-49639.1	955.817	-29758.7	0.000000	0.000000	6.883084	0.055540	NaN	0.000000	0.001573	0.001685	28.0805	0.087547	0.002085	41.98	132.973	-163.534	-0.024277	0.881199	-0.145830	-0.147129	0.055540	41.98	-0.146822	-15.841	-0.003506	NaN
220	1.000000	0.922548	7.3672e+06	-49639.1	955.818	-29758.7	0.000000	0.000000	6.923132	0.056004	NaN	0.000000	0.001567	0.001629	28.0805	0.062378	0.001955	31.9025	-7.480865	-167.981	-0.018883	0.921230	-0.105781	-0.107099	0.056004	31.9025	-0.107098	-2.607668	-0.021477	NaN
220	1.000000	0.962545	7.3672e+06	-49639.1	955.818	-29758.7	0.000000	0.000000	6.963129	0.046166	NaN	0.000000	0.001635	0.001650	28.0795	0.083788	0.002044	40.9953	-41.727	-166.035	0.056221	0.961301	-0.065784	-0.067028	0.046166	40.9953	-0.066629	-0.276374	-0.167043	NaN
220	1.000000	1.002560	7.3672e+06	-49639.1	955.818	-29758.7	0.000000	0.000000	7.003143	-0.000145	NaN	0.000000	0.001628	0.001657	28.0794	0.081507	0.001993	40.8941	-127.753	-166.188	0.025484	1.001246	-0.025768	-0.027083	-0.000145	40.8941	-0.025766	-0.017669	0.008224	NaN
220	2.000000	1.038185	7.3672e+06	-49639.1	955.818	-29758.7	0.000000	0.000000	7.039185	10.152	NaN	0.000000	0.001630	0.001696	28.0797	9.867778	0.001710	5770.14	10.2255	-173.9	10.374	1.037826	0.009856	0.009498	10.152	5770.14	0.008537	0.007600	1335.72	60470.2
220	2.000000	1.048053	7.3672e+06	-49639.1	955.817	-29758.7	0.000000	0.000000	7.049696	25.8037	NaN	0.000000	0.001593	0.001652	28.0806	21.5481	0.002067	10426	8.054102	-176.214	25.3438	1.047773	0.019724	0.019444	25.8037	10426	0.017868	0.019302	1336.83	68562.7
220	2.000000	1.058066	7.3672e+06	-49639.1	955.818	-29758.7	0.000000	0.000000	7.060760	51.3459	NaN	0.000000	0.001589	0.001681	28.0806	30.3336	0.001825	16623	4.409225	-178.618	51.0873	1.057711	0.029738	0.029382	51.3459	16623	0.027421	0.035568	1443.61	80529.5
220	2.000000	1.068013	7.3672e+06	-49639.1	955.817	-29758.7	0.000000	0.000000	7.071917	80.7952	NaN	0.000000	0.001596	0.001642	28.0805	40.4696	0.001862	21733.9	8.670794	174.707	80.0142	1.067694	0.039684	0.039365	80.7952	21733.9	0.036896	0.056252	1436.3	83722.1
220	2.000000	1.078094	7.3672e+06	-49639.1	955.818	-29758.7	0.000000	0.000000	7.083588	119.45	NaN	0.000000	0.001596	0.001661	28.0806	49.142	0.001849	26578.4	2.942857	179.083	122.088	1.077668	0.049765	0.049339	119.45	26578.4	0.046395	0.081596	1463.92	85009.8
220	2.000000	1.088000	7.3672e+06	-49639.1	955.818	-29758.7	0.000000	0.000000	7.095216	161.333	NaN	0.000000	0.001587	0.001670	28.0802	59.6192	0.001832	32546.6	8.457506	171.377	159.521	1.087709	0.059671	0.059380	161.333	32546.6	0.055954	0.111699	1444.35	88972.1
220	2.000000	1.098016	7.3672e+06	-49639.1	955.818	-29758.7	0.000000	0.000000	7.107385	213.703	NaN	0.000000	0.001610	0.001650	28.0796	69.0897	0.001823	37893.4	2.220177	176.318	213.284	1.097734	0.069687	0.069405	213.703	37893.4	0.065457	0.146102	1462.7	90575.2
220	2.000000	1.107977	7.3672e+06	-49639.1	955.817	-29758.7	0.000000	0.000000	7.119895	275.664	NaN	0.000000	0.001610	0.001777	28.0793	76.8129	0.001783	43082.6	1.024000	176.6	274.297	1.107756	0.079649	0.079427	275.664	43082.6	0.074850	0.184374	1495.13	91669.4
220	2.000000	1.117987	7.3672e+06	-49639.1	955.816	-29758.7	0.000000	0.000000	7.132279	333.416	NaN	0.000000	0.001609	0.001701	28.0803	86.6603	0.001697	51066.1	1.595530	174.711	331.514	1.117771	0.089659	0.089442	333.416	51066.1	0.084762	0.229267	1454.27	97439.5
220	2.000000	1.128092	7.3672e+06	-49639.1	955.817	-29758.7	0.000000	0.000000	7.145329	405.057	NaN	0.000000	0.001589	0.001710	28.0801	97.8806	0.001894	51679.2	3.989057	172.593	409.035	1.127758	0.099763	0.099429	405.057	51679.2	0.093884	0.274599	1475.09	90103
220	2.000000	1.134962	7.3672e+06	-49639.1	955.817	-29758.7	0.000000	0.000000	7.154398	458.526	NaN	0.000000	0.001594	0.001692	28.0805	103.809	0.001928	53831.8	2.235289	174.304	456.685	1.134611	0.106633	0.106283	458.526	53831.8	0.100245	0.308456	1486.52	88555.5