Folder: unikorn_login/remote_trans/data/nanoindenter/0828-1/data/Data_2025-08-06,11h17m57s (part 24)

File: 2025-07-22_16-23-58_1_46.txt
2025-07-22, 16:23:58, 1
Index	Phase	Displacement	Time	Pos X	Pos Y	Pos Z	Rot A	Rot B	Piezo Z	Force A	Force B	Gripper	Voltage A	Voltage B	Temperature	Amplitude force	Amplitude pos	Stiffness	Phase shift	Phase excitation	Force A raw	Displacement raw	HMax	HMax raw	Real Force	Real Stiffness	Contact Depth	Area	Hardness	Reduced Mod.
[#]	[#]	[um]	[s]	[um]	[um]	[um]	[m°]	[m°]	[um]	[uN]	[uN]	[V]	[V]	[V]	[°C]	[uN]	[um]	[N/m]	[°]	[°]	[uN]	[um]	[um]	[um]	[uN]	[N/m]	[um]	[um^2]	[MPa]	[MPa]
46	1.000000	0.002734	7.36549e+06	-40939.1	955.819	-29788.7	0.000000	0.000000	6.002813	-0.038915	NaN	0.000000	0.001597	0.001710	28.12	0.159022	0.000903	176.143	-58.9884	-167.51	0.039399	0.001514	-1.069285	-1.070506	-0.038915	176.143	-1.069120	-1.929131E+14	2.017221E-16	NaN
46	1.000000	0.042688	7.36549e+06	-40939.1	955.818	-29788.7	0.000000	0.000000	6.042770	0.043804	NaN	0.000000	0.001581	0.001734	28.1193	0.040216	0.002073	19.404	68.6123	-167.304	0.022401	0.041349	-1.029332	-1.030670	0.043804	19.404	-1.031025	-5.932861E+13	-7.383314E-16	NaN
46	1.000000	0.082709	7.36549e+06	-40939.1	955.818	-29788.7	0.000000	0.000000	6.082791	0.034282	NaN	0.000000	0.001588	0.001740	28.121	0.114732	0.002063	55.6113	66.4518	-165.661	0.070216	0.081370	-0.989311	-0.990649	0.034282	55.6113	-0.989773	-1.652165E+13	-2.074962E-15	NaN
46	1.000000	0.122702	7.36549e+06	-40939.1	955.818	-29788.7	0.000000	0.000000	6.122782	0.002432	NaN	0.000000	0.001589	0.001698	28.1198	0.084128	0.002043	41.174	40.0419	-163.932	-0.013670	0.121418	-0.949318	-0.950601	0.002432	41.174	-0.949362	-4.714374E+12	-5.159036E-16	NaN
46	1.000000	0.162702	7.36549e+06	-40939.1	955.818	-29788.7	0.000000	0.000000	6.162786	0.077396	NaN	0.000000	0.001574	0.001729	28.1208	0.116214	0.002038	57.0125	66.4772	-164.584	-0.004824	0.161427	-0.909317	-0.910593	0.077396	57.0125	-0.910335	-1.401820E+12	-5.521080E-14	NaN
46	1.000000	0.202715	7.36549e+06	-40939.1	955.819	-29788.7	0.000000	0.000000	6.202797	0.040520	NaN	0.000000	0.001608	0.001714	28.1197	0.039525	0.001987	19.8913	-106.914	-166.128	-0.004261	0.201428	-0.869304	-0.870591	0.040520	19.8913	-0.870832	-4.099226E+11	-9.884803E-14	NaN
46	1.000000	0.242769	7.36549e+06	-40939.1	955.818	-29788.7	0.000000	0.000000	6.242849	0.003240	NaN	0.000000	0.001631	0.001698	28.1194	0.051844	0.001982	26.1597	-28.7354	-166.667	0.022666	0.241397	-0.829251	-0.830622	0.003240	26.1597	-0.829344	-1.124317E+11	-2.881418E-14	NaN
46	1.000000	0.282736	7.36549e+06	-40939.1	955.817	-29788.7	0.000000	0.000000	6.282815	-0.030875	NaN	0.000000	0.001603	0.001727	28.1184	0.095734	0.001737	55.1266	151.139	-163.763	-0.074342	0.281437	-0.789284	-0.790582	-0.030875	55.1266	-0.788864	-3.174344E+10	9.726482E-13	NaN
46	1.000000	0.322779	7.36549e+06	-40939.1	955.818	-29788.7	0.000000	0.000000	6.322858	-0.033889	NaN	0.000000	0.001618	0.001728	28.1195	0.099449	0.001941	51.2416	-119.417	-162.937	0.046670	0.321446	-0.749241	-0.750574	-0.033889	51.2416	-0.748745	-9.039280E+9	3.749083E-12	NaN
46	1.000000	0.362797	7.36549e+06	-40939.1	955.818	-29788.7	0.000000	0.000000	6.362881	0.074620	NaN	0.000000	0.001598	0.001739	28.1192	0.035227	0.002049	17.194	-84.1728	-167.621	0.107997	0.361522	-0.709223	-0.710498	0.074620	17.194	-0.712477	-2.896382E+9	-2.576306E-11	NaN
46	1.000000	0.402832	7.36549e+06	-40939.1	955.819	-29788.7	0.000000	0.000000	6.402914	0.037693	NaN	0.000000	0.001589	0.001719	28.1198	0.048637	0.002021	24.0717	72.9868	-167.524	0.075599	0.401497	-0.669187	-0.670523	0.037693	24.0717	-0.670362	-7.697361E+8	-4.896818E-11	NaN
46	1.000000	0.442849	7.36549e+06	-40939.1	955.818	-29788.7	0.000000	0.000000	6.442932	0.070891	NaN	0.000000	0.001607	0.001644	28.1183	0.050726	0.002003	25.3192	-123.866	-164.206	0.050712	0.441539	-0.629171	-0.630480	0.070891	25.3192	-0.631271	-2.241168E+8	-3.163141E-10	NaN
46	1.000000	0.482828	7.36549e+06	-40939.1	955.818	-29788.7	0.000000	0.000000	6.482907	-0.026245	NaN	0.000000	0.001581	0.001664	28.1182	0.049688	0.001937	25.6473	-165.128	-163.729	0.107820	0.481503	-0.589192	-0.590517	-0.026245	25.6473	-0.588424	-5.766851E+7	4.550973E-10	NaN
46	1.000000	0.522877	7.36549e+06	-40939.1	955.818	-29788.7	0.000000	0.000000	6.522955	-0.052352	NaN	0.000000	0.001650	0.001690	28.1166	0.128842	0.001939	66.4417	68.4175	-165.306	-0.002840	0.521604	-0.549143	-0.550416	-0.052352	66.4417	-0.548552	-1.621421E+7	3.228803E-9	NaN
46	1.000000	0.562869	7.36549e+06	-40939.1	955.819	-29788.7	0.000000	0.000000	6.562950	0.014377	NaN	0.000000	0.001618	0.001626	28.1174	0.012373	0.002043	6.055172	38.549	-168.921	0.026490	0.561584	-0.509150	-0.510435	0.014377	6.055172	-0.510931	-4.86835e+06	-2.953078E-9	NaN
46	1.000000	0.602877	7.36549e+06	-40939.1	955.818	-29788.7	0.000000	0.000000	6.602959	0.038793	NaN	0.000000	0.001609	0.001620	28.1167	0.041968	0.002054	20.4304	-79.4788	-164.305	0.044220	0.601564	-0.469142	-0.470455	0.038793	20.4304	-0.470566	-1.32847e+06	-2.920164E-8	NaN
46	1.000000	0.642948	7.36549e+06	-40939.1	955.819	-29788.7	0.000000	0.000000	6.643031	0.060623	NaN	0.000000	0.001541	0.001604	28.1186	0.026231	0.001974	13.2872	111.013	-166.281	-0.035021	0.641667	-0.429071	-0.430353	0.060623	13.2872	-0.432493	-386652	-1.567887E-7	NaN
46	1.000000	0.682942	7.3655e+06	-40939.1	955.819	-29788.7	0.000000	0.000000	6.683026	0.084903	NaN	0.000000	0.001549	0.001622	28.117	0.054513	0.001897	28.7301	-53.0184	-165.177	0.132003	0.681669	-0.389077	-0.390350	0.084903	28.7301	-0.391294	-100385	-8.457777E-7	NaN
46	1.000000	0.722940	7.3655e+06	-40939.1	955.819	-29788.7	0.000000	0.000000	6.723024	0.076060	NaN	0.000000	0.001612	0.001629	28.118	0.050439	0.001898	26.5704	-51.6181	-164.795	0.013318	0.721670	-0.349079	-0.350350	0.076060	26.5704	-0.351226	-26594.8	-2.859953E-6	NaN
46	1.000000	0.762962	7.3655e+06	-40939.1	955.818	-29788.7	0.000000	0.000000	6.763043	0.016490	NaN	0.000000	0.001590	0.001645	28.1153	0.035038	0.002067	16.9509	-166.79	-166.307	0.064404	0.761692	-0.309058	-0.310328	0.016490	16.9509	-0.309788	-6575.25	-2.507844E-6	NaN
46	1.000000	0.803006	7.3655e+06	-40939.1	955.818	-29788.7	0.000000	0.000000	6.803087	0.022481	NaN	0.000000	0.001564	0.001621	28.1162	0.074474	0.001995	37.3394	-12.1667	-167.219	0.025959	0.801716	-0.269014	-0.270303	0.022481	37.3394	-0.269465	-1634.62	-1.375282E-5	NaN
46	1.000000	0.842990	7.3655e+06	-40939.1	955.818	-29788.7	0.000000	0.000000	6.843071	0.017427	NaN	0.000000	0.001559	0.001570	28.1143	0.050663	0.001855	27.3116	-114.672	-164.253	0.044969	0.841653	-0.229030	-0.230366	0.017427	27.3116	-0.229509	-393.327	-4.430587E-5	NaN
46	1.000000	0.883020	7.3655e+06	-40939.1	955.817	-29788.7	0.000000	0.000000	6.883101	0.026144	NaN	0.000000	0.001579	0.001595	28.1154	0.016598	0.002070	8.018848	-147.871	-167.192	0.017244	0.881713	-0.189000	-0.190306	0.026144	8.018848	-0.191445	-95.0906	-0.000275	NaN
46	1.000000	0.923041	7.3655e+06	-40939.1	955.818	-29788.7	0.000000	0.000000	6.923122	0.008542	NaN	0.000000	0.001597	0.001592	28.115	0.043739	0.002003	21.8364	117.657	-165.044	0.037517	0.921697	-0.148979	-0.150323	0.008542	21.8364	-0.149272	-17.5676	-0.000486	NaN
46	1.000000	0.963047	7.3655e+06	-40939.1	955.818	-29788.7	0.000000	0.000000	6.963128	0.010850	NaN	0.000000	0.001617	0.001618	28.1157	0.074135	0.002017	36.7562	97.2409	-165.101	0.059463	0.961758	-0.108972	-0.110262	0.010850	36.7562	-0.109194	-2.889638	-0.003755	NaN
46	1.000000	1.003050	7.3655e+06	-40939.1	955.818	-29788.7	0.000000	0.000000	7.003132	0.051540	NaN	0.000000	0.001587	0.001613	28.1143	0.073489	0.001976	37.1917	-93.4716	-164.121	-0.035799	1.001727	-0.068970	-0.070292	0.051540	37.1917	-0.070009	-0.341305	-0.151009	NaN
46	1.000000	1.043109	7.3655e+06	-40939.1	955.818	-29788.7	0.000000	0.000000	7.043188	-0.047222	NaN	0.000000	0.001610	0.001611	28.1144	0.039067	0.002041	19.1406	72.167	-168.408	-0.013829	1.041778	-0.028910	-0.030241	-0.047222	19.1406	-0.027060	-0.019125	2.469090	NaN
46	2.000000	1.082491	7.3655e+06	-40939.1	955.817	-29788.7	0.000000	0.000000	7.082954	9.301966	NaN	0.000000	0.001662	0.001621	28.1134	9.186464	0.001758	5225.69	11.8213	-176.613	8.506295	1.081695	0.010472	0.009675	9.301966	5225.69	0.009136	0.008238	1129.21	52603.9
46	2.000000	1.092536	7.3655e+06	-40939.1	955.818	-29788.7	0.000000	0.000000	7.093520	21.9835	NaN	0.000000	0.001665	0.001619	28.1145	18.9326	0.001813	10443.8	7.535379	-177.839	21.4401	1.092262	0.020517	0.020242	21.9835	10443.8	0.018938	0.020901	1051.81	66001.3
46	2.000000	1.102511	7.3655e+06	-40939.1	955.818	-29788.7	0.000000	0.000000	7.104619	49.3332	NaN	0.000000	0.001643	0.001561	28.1139	30.0244	0.001818	16515.6	4.246649	179.754	47.806	1.102257	0.030491	0.030237	49.3332	16515.6	0.028251	0.037196	1326.29	78238.1
46	2.000000	1.112568	7.3655e+06	-40939.1	955.817	-29788.7	0.000000	0.000000	7.116218	86.8486	NaN	0.000000	0.001587	0.001605	28.1146	41.1531	0.001887	21806.1	6.831821	177.116	87.227	1.112142	0.040549	0.040123	86.8486	21806.1	0.037561	0.057878	1500.54	82811.9
46	2.000000	1.122475	7.3655e+06	-40939.1	955.817	-29788.7	0.000000	0.000000	7.128020	132.973	NaN	0.000000	0.001584	0.001638	28.1137	50.0519	0.001881	26604.6	2.320244	178.791	130.85	1.122132	0.050456	0.050113	132.973	26604.6	0.046707	0.082507	1611.66	84622.3
46	2.000000	1.132426	7.3655e+06	-40939.1	955.818	-29788.7	0.000000	0.000000	7.139928	180.596	NaN	0.000000	0.001575	0.001620	28.115	60.699	0.001844	32914.4	4.236949	174.545	176.16	1.132257	0.060406	0.060237	180.596	32914.4	0.056291	0.112846	1600.37	89519.1
46	2.000000	1.142400	7.3655e+06	-40939.1	955.819	-29788.7	0.000000	0.000000	7.152598	246.194	NaN	0.000000	0.001595	0.001622	28.1124	68.5887	0.001749	39206.6	0.709153	176.404	241.314	1.142103	0.070381	0.070084	246.194	39206.6	0.065671	0.146926	1675.63	93450.9
46	2.000000	1.152430	7.3655e+06	-40939.1	955.817	-29788.7	0.000000	0.000000	7.165010	304.135	NaN	0.000000	0.001601	0.001612	28.1131	79.9922	0.001771	45175.3	0.450819	175.071	300.191	1.152051	0.080411	0.080031	304.135	45175.3	0.075362	0.186579	1630.06	95552.6
46	2.000000	1.162398	7.3655e+06	-40939.1	955.817	-29788.7	0.000000	0.000000	7.178315	385.355	NaN	0.000000	0.001608	0.001592	28.1117	89.859	0.001745	51506.7	3.900381	171.472	383.698	1.162183	0.090379	0.090163	385.355	51506.7	0.084767	0.229294	1680.62	98274.5
46	2.000000	1.172405	7.3655e+06	-40939.1	955.817	-29788.7	0.000000	0.000000	7.191582	464.671	NaN	0.000000	0.001632	0.001601	28.1139	99.7379	0.001807	55204.4	3.256010	171.205	462.076	1.172158	0.100385	0.100138	464.671	55204.4	0.094073	0.275574	1686.2	96078.9
46	2.000000	1.180873	7.3655e+06	-40939.1	955.819	-29788.7	0.000000	0.000000	7.203112	539.18	NaN	0.000000	0.001630	0.001644	28.1282	107.429	0.001772	60636.8	7.036887	-13.0168	532.701	1.180662	0.108854	0.108642	539.18	60636.8	0.102185	0.319150	1689.43	98064.5

File: 2025-07-22_16-23-58_1_47.txt
2025-07-22, 16:23:58, 1
Index	Phase	Displacement	Time	Pos X	Pos Y	Pos Z	Rot A	Rot B	Piezo Z	Force A	Force B	Gripper	Voltage A	Voltage B	Temperature	Amplitude force	Amplitude pos	Stiffness	Phase shift	Phase excitation	Force A raw	Displacement raw	HMax	HMax raw	Real Force	Real Stiffness	Contact Depth	Area	Hardness	Reduced Mod.
[#]	[#]	[um]	[s]	[um]	[um]	[um]	[m°]	[m°]	[um]	[uN]	[uN]	[V]	[V]	[V]	[°C]	[uN]	[um]	[N/m]	[°]	[°]	[uN]	[um]	[um]	[um]	[uN]	[N/m]	[um]	[um^2]	[MPa]	[MPa]
47	1.000000	0.002462	7.3655e+06	-40989.1	955.819	-29788.4	0.000000	0.000000	6.002798	-0.026993	NaN	0.000000	0.001638	0.001589	28.1285	0.022495	0.001019	22.0816	-92.0657	-163.738	-0.070304	0.001178	-1.115389	-1.116673	-0.026993	22.0816	-1.114472	-7.839672E+14	3.443177E-17	NaN
47	1.000000	0.044449	7.3655e+06	-40989.1	955.818	-29788.4	0.000000	0.000000	6.044786	-0.011800	NaN	0.000000	0.001612	0.001644	28.0871	0.076827	0.001898	40.4718	94.0204	13.078	0.076007	0.043075	-1.073402	-1.074776	-0.011800	40.4718	-1.073183	-2.187541E+14	5.394172E-17	NaN
47	1.000000	0.086430	7.3655e+06	-40989.1	955.818	-29788.4	0.000000	0.000000	6.086766	-0.032621	NaN	0.000000	0.001587	0.001609	28.0818	0.070385	0.002003	35.1454	-76.0568	-163.703	0.012951	0.085164	-1.031421	-1.032687	-0.032621	35.1454	-1.030725	-5.877961E+13	5.549671E-16	NaN
47	1.000000	0.128439	7.3655e+06	-40989.1	955.817	-29788.4	0.000000	0.000000	6.128776	0.012916	NaN	0.000000	0.001565	0.001588	28.1081	0.081147	0.002018	40.2158	-82.0422	16.3977	-0.061979	0.127059	-0.989412	-0.990793	0.012916	40.2158	-0.989653	-1.646049E+13	-7.846741E-16	NaN
47	1.000000	0.170454	7.3655e+06	-40989.1	955.818	-29788.4	0.000000	0.000000	6.170790	-0.028277	NaN	0.000000	0.001613	0.001602	28.1296	0.017405	0.001989	8.749142	-105.612	-165.227	-0.004215	0.169181	-0.947397	-0.948671	-0.028277	8.749142	-0.944973	-4.113660E+12	6.873888E-15	NaN
47	1.000000	0.212469	7.3655e+06	-40989.1	955.818	-29788.4	0.000000	0.000000	6.212806	-0.022161	NaN	0.000000	0.001608	0.001586	28.0893	0.008567	0.002061	4.157212	-88.3009	9.056219	-0.095661	0.211104	-0.905382	-0.906747	-0.022161	4.157212	-0.901384	-1.061116E+12	2.088424E-14	NaN
47	1.000000	0.254469	7.3655e+06	-40989.1	955.818	-29788.4	0.000000	0.000000	6.254806	-0.006156	NaN	0.000000	0.001625	0.001603	28.0809	0.132752	0.002016	65.849	125.347	-166.125	-0.046863	0.253201	-0.863382	-0.864650	-0.006156	65.849	-0.863312	-3.243014E+11	1.898341E-14	NaN
47	1.000000	0.296528	7.3655e+06	-40989.1	955.818	-29788.4	0.000000	0.000000	6.296866	0.021629	NaN	0.000000	0.001586	0.001593	28.1055	0.026701	0.001941	13.7547	77.6747	15.1021	-0.062304	0.295192	-0.821323	-0.822659	0.021629	13.7547	-0.822503	-9.081285E+10	-2.381749E-13	NaN
47	1.000000	0.338553	7.3655e+06	-40989.1	955.819	-29788.4	0.000000	0.000000	6.338891	0.032195	NaN	0.000000	0.001604	0.001595	28.129	0.051379	0.001803	28.5031	140.781	-167.483	-0.026021	0.337250	-0.779298	-0.780601	0.032195	28.5031	-0.780145	-2.416616E+10	-1.332217E-12	NaN
47	1.000000	0.380562	7.3655e+06	-40989.1	955.818	-29788.4	0.000000	0.000000	6.380900	0.027194	NaN	0.000000	0.001578	0.001621	28.0892	0.094186	0.001834	51.356	-119.309	13.1346	0.058017	0.379206	-0.737289	-0.738646	0.027194	51.356	-0.737686	-6.390578E+9	-4.255390E-12	NaN
47	1.000000	0.422571	7.3655e+06	-40989.1	955.818	-29788.4	0.000000	0.000000	6.422908	0.006456	NaN	0.000000	0.001561	0.001634	28.0813	0.045499	0.002133	21.3291	49.3404	-167.099	0.032725	0.421280	-0.695280	-0.696571	0.006456	21.3291	-0.695507	-1.698894E+9	-3.800097E-12	NaN
47	1.000000	0.464599	7.3655e+06	-40989.1	955.817	-29788.4	0.000000	0.000000	6.464938	0.057475	NaN	0.000000	0.001678	0.001617	28.1071	0.097621	0.002170	44.9838	-25.7869	13.639	0.046113	0.463244	-0.653252	-0.654607	0.057475	44.9838	-0.654211	-4.625414E+8	-1.242600E-10	NaN
47	1.000000	0.506572	7.3655e+06	-40989.1	955.819	-29788.4	0.000000	0.000000	6.506911	0.035732	NaN	0.000000	0.001685	0.001657	28.1283	0.057475	0.001971	29.167	-175.409	-167.63	0.042538	0.505345	-0.611279	-0.612506	0.035732	29.167	-0.612198	-1.225592E+8	-2.915450E-10	NaN
47	1.000000	0.548623	7.3655e+06	-40989.1	955.818	-29788.4	0.000000	0.000000	6.548960	-0.018765	NaN	0.000000	0.001691	0.001621	28.0909	0.035955	0.002013	17.863	-37.2239	16.1978	0.014488	0.547257	-0.569228	-0.570594	-0.018765	17.863	-0.568440	-3.055438E+7	6.141600E-10	NaN
47	1.000000	0.590652	7.3655e+06	-40989.1	955.819	-29788.4	0.000000	0.000000	6.590987	-0.036633	NaN	0.000000	0.001631	0.001591	28.0797	0.086320	0.002097	41.1663	50.8174	-164.893	-0.080311	0.589399	-0.527200	-0.528452	-0.036633	41.1663	-0.526532	-8.02422e+06	4.565251E-9	NaN
47	1.000000	0.632671	7.3655e+06	-40989.1	955.819	-29788.4	0.000000	0.000000	6.633010	0.030384	NaN	0.000000	0.001596	0.001664	28.1072	0.093419	0.002021	46.22	-50.3381	16.97	0.039960	0.631330	-0.485180	-0.486521	0.030384	46.22	-0.485673	-2.16222e+06	-1.405221E-8	NaN
47	1.000000	0.674672	7.3655e+06	-40989.1	955.818	-29788.4	0.000000	0.000000	6.675007	-0.050420	NaN	0.000000	0.001608	0.001680	28.1297	0.086186	0.002076	41.525	130.213	-162.603	-0.004553	0.673375	-0.443179	-0.444476	-0.050420	41.525	-0.442269	-531340	9.489236E-8	NaN
47	1.000000	0.716704	7.3655e+06	-40989.1	955.818	-29788.4	0.000000	0.000000	6.717041	0.015434	NaN	0.000000	0.001624	0.001686	28.0929	0.049392	0.001999	24.7087	-95.9707	15.119	0.092670	0.715305	-0.401147	-0.402546	0.015434	24.7087	-0.401616	-140940	-1.095101E-7	NaN
47	1.000000	0.758686	7.36551e+06	-40989.1	955.819	-29788.4	0.000000	0.000000	6.759016	-0.149772	NaN	0.000000	0.001633	0.001654	28.0805	0.030072	0.001942	15.4831	-18.8556	-163.536	-0.021910	0.757404	-0.359166	-0.360447	-0.149772	15.4831	-0.351911	-27209.6	5.504363E-6	NaN
47	1.000000	0.800725	7.36551e+06	-40989.1	955.819	-29788.4	0.000000	0.000000	6.801061	-0.031007	NaN	0.000000	0.001651	0.001645	28.1047	0.108277	0.002015	53.7382	134.409	15.4421	-0.008956	0.799411	-0.317126	-0.318440	-0.031007	53.7382	-0.316693	-8316.26	3.728437E-6	NaN
47	1.000000	0.842767	7.36551e+06	-40989.1	955.817	-29788.4	0.000000	0.000000	6.843101	-0.073325	NaN	0.000000	0.001625	0.001723	28.1298	0.106548	0.002012	52.9586	-135.675	-163.725	0.059436	0.841429	-0.275084	-0.276422	-0.073325	52.9586	-0.274045	-1918.4	3.822221E-5	NaN
47	1.000000	0.884756	7.36551e+06	-40989.1	955.819	-29788.4	0.000000	0.000000	6.885092	-0.033833	NaN	0.000000	0.001621	0.001651	28.0915	0.066008	0.002010	32.8436	-177.638	14.3629	-0.004213	0.883387	-0.233095	-0.234464	-0.033833	32.8436	-0.232322	-435.651	7.766136E-5	NaN
47	1.000000	0.926785	7.36551e+06	-40989.1	955.818	-29788.4	0.000000	0.000000	6.927121	-0.023233	NaN	0.000000	0.001675	0.001661	28.0805	0.102991	0.002098	49.08	138.944	-161.6	-0.037943	0.925502	-0.191066	-0.192349	-0.023233	49.08	-0.190711	-92.4485	0.000251	NaN
47	1.000000	0.968777	7.36551e+06	-40989.1	955.817	-29788.4	0.000000	0.000000	6.969114	-0.007331	NaN	0.000000	0.001610	0.001632	28.1055	0.027453	0.002001	13.7173	-109.537	14.3861	-0.040784	0.967404	-0.149074	-0.150447	-0.007331	13.7173	-0.148673	-17.1304	0.000428	NaN
47	1.000000	1.010833	7.36551e+06	-40989.1	955.819	-29788.4	0.000000	0.000000	7.011167	-0.065468	NaN	0.000000	0.001596	0.001658	28.1307	0.042086	0.001940	21.6971	-38.5634	-169.941	-0.025165	1.009457	-0.107018	-0.108394	-0.065468	21.6971	-0.104755	-2.322097	0.028194	NaN
47	1.000000	1.052839	7.36551e+06	-40989.1	955.818	-29788.4	0.000000	0.000000	7.053171	-0.120081	NaN	0.000000	0.001594	0.001673	28.0932	0.063754	0.001961	32.506	-176.16	15.6257	-0.062083	1.051476	-0.065012	-0.066375	-0.120081	32.506	-0.062242	-0.208612	0.575618	NaN
47	1.000000	1.094837	7.36551e+06	-40989.1	955.817	-29788.4	0.000000	0.000000	7.095173	-0.016588	NaN	0.000000	0.001607	0.001645	28.0788	0.150161	0.001945	77.1962	-125.112	-162.966	0.017072	1.093554	-0.023015	-0.024297	-0.016588	77.1962	-0.022853	-0.014848	1.117189	NaN
47	1.000000	1.136851	7.36551e+06	-40989.1	955.817	-29788.4	0.000000	0.000000	7.137417	5.575180	NaN	0.000000	0.001610	0.001636	28.103	3.728844	0.001931	1930.71	14.7994	8.600634	4.893228	1.135491	0.019000	0.017640	5.575180	1930.71	0.016834	0.017810	313.04	13217.9
47	2.000000	1.151523	7.36551e+06	-40989.1	955.818	-29788.4	0.000000	0.000000	7.152328	11.3771	NaN	0.000000	0.001637	0.001629	28.1311	7.609607	0.001789	4253.54	9.216267	-169.676	12.2034	1.151174	0.033672	0.033323	11.3771	4253.54	0.031666	0.044268	257.005	18470.6
47	2.000000	1.161971	7.36551e+06	-40989.1	955.819	-29788.4	0.000000	0.000000	7.163180	21.1997	NaN	0.000000	0.001644	0.001660	28.0957	14.8049	0.001976	7491.29	6.222692	7.247598	20.6454	1.161536	0.044120	0.043685	21.1997	7491.29	0.041998	0.069293	305.941	26000.6
47	2.000000	1.172406	7.36551e+06	-40989.1	955.817	-29788.4	0.000000	0.000000	7.174375	39.725	NaN	0.000000	0.001654	0.001678	28.0807	23.9783	0.001858	12902.6	7.748376	179.989	38.1753	1.172142	0.054554	0.054291	39.725	12902.6	0.052245	0.099479	399.33	37375.3
47	2.000000	1.182938	7.36551e+06	-40989.1	955.818	-29788.4	0.000000	0.000000	7.186179	70.6627	NaN	0.000000	0.001698	0.001645	28.1029	32.6189	0.001769	18441	4.799825	1.264354	70.4761	1.182542	0.065087	0.064691	70.6627	18441	0.062213	0.133865	527.865	46049.5
47	2.000000	1.193389	7.36551e+06	-40989.1	955.818	-29788.4	0.000000	0.000000	7.197987	103.673	NaN	0.000000	0.001639	0.001654	28.1307	42.6462	0.001851	23039.7	1.931919	-178.542	99.684	1.193030	0.075538	0.075179	103.673	23039.7	0.072163	0.172999	599.269	50609
47	2.000000	1.203902	7.36551e+06	-40989.1	955.819	-29788.4	0.000000	0.000000	7.210061	141.673	NaN	0.000000	0.001633	0.001633	28.0928	52.5276	0.001808	29051.6	5.357490	-4.930673	139.147	1.203631	0.086051	0.085779	141.673	29051.6	0.082393	0.218124	649.51	56831.9
47	2.000000	1.214304	7.36551e+06	-40989.1	955.82	-29788.4	0.000000	0.000000	7.222341	187.361	NaN	0.000000	0.001624	0.001630	28.0817	61.7241	0.001930	31977.2	5.592140	174.548	181.535	1.214011	0.096453	0.096160	187.361	31977.2	0.092059	0.265221	706.435	56729.7
47	2.000000	1.224812	7.36551e+06	-40989.1	955.817	-29788.4	0.000000	0.000000	7.235795	259.063	NaN	0.000000	0.001643	0.001626	28.1017	70.7626	0.001845	38355.4	4.609853	-5.065080	254.746	1.224397	0.106961	0.106546	259.063	38355.4	0.101895	0.317541	815.841	62187.1
47	2.000000	1.235310	7.36551e+06	-40989.1	955.818	-29788.4	0.000000	0.000000	7.248528	313.415	NaN	0.000000	0.001632	0.001623	28.1321	79.7308	0.001808	44094.2	2.902883	175.339	309.791	1.234968	0.117459	0.117117	313.415	44094.2	0.112128	0.376638	832.14	65643.7
47	2.000000	1.240774	7.36551e+06	-40989.1	955.817	-29788.4	0.000000	0.000000	7.255425	348.297	NaN	0.000000	0.001658	0.001661	28.1032	85.4028	0.001739	49105.7	3.365759	-6.239517	343.026	1.240565	0.122923	0.122714	348.297	49105.7	0.117604	0.410209	849.072	70049.2