Folder: unikorn_login/remote_trans/data/nanoindenter/0828-1/data/Data_2025-08-06,11h17m57s (part 146)

File: 2025-07-22_16-23-58_1_309.txt
2025-07-22, 16:23:58, 1
Index	Phase	Displacement	Time	Pos X	Pos Y	Pos Z	Rot A	Rot B	Piezo Z	Force A	Force B	Gripper	Voltage A	Voltage B	Temperature	Amplitude force	Amplitude pos	Stiffness	Phase shift	Phase excitation	Force A raw	Displacement raw	HMax	HMax raw	Real Force	Real Stiffness	Contact Depth	Area	Hardness	Reduced Mod.
[#]	[#]	[um]	[s]	[um]	[um]	[um]	[m°]	[m°]	[um]	[uN]	[uN]	[V]	[V]	[V]	[°C]	[uN]	[um]	[N/m]	[°]	[°]	[uN]	[um]	[um]	[um]	[uN]	[N/m]	[um]	[um^2]	[MPa]	[MPa]
309	1.000000	0.002547	7.36809e+06	-54089.1	955.819	-29744.2	0.000000	0.000000	6.002785	0.019353	NaN	0.000000	0.001753	0.001605	28.0776	0.079202	0.000999	79.2905	157.422	-171.019	0.055046	0.001278	-1.689481	-1.690750	0.019353	79.2905	-1.689664	-3.707845E+22	-5.219361E-25	NaN
309	1.000000	0.060515	7.36809e+06	-54089.1	955.818	-29744.2	0.000000	0.000000	6.060754	0.049456	NaN	0.000000	0.001734	0.001600	28.0772	0.073922	0.002003	36.9092	50.5885	12.4634	0.047241	0.059148	-1.631513	-1.632881	0.049456	36.9092	-1.632518	-6.451063E+21	-7.666284E-24	NaN
309	1.000000	0.118524	7.36809e+06	-54089.1	955.818	-29744.2	0.000000	0.000000	6.118760	-0.028864	NaN	0.000000	0.001713	0.001592	28.0785	0.095256	0.002014	47.3026	-78.8655	-164.883	-0.075557	0.117267	-1.573504	-1.574761	-0.028864	47.3026	-1.573046	-1.043929E+21	2.764980E-23	NaN
309	1.000000	0.176550	7.36809e+06	-54089.1	955.818	-29744.2	0.000000	0.000000	6.176787	-0.001727	NaN	0.000000	0.001682	0.001595	28.0785	0.098879	0.001970	50.2039	17.0132	15.4177	-0.071768	0.175188	-1.515478	-1.516840	-0.001727	50.2039	-1.515452	-1.786839E+20	9.664052E-24	NaN
309	1.000000	0.234616	7.36809e+06	-54089.1	955.818	-29744.2	0.000000	0.000000	6.234852	-0.026706	NaN	0.000000	0.001697	0.001626	28.0775	0.089441	0.001993	44.8832	-113.62	-164.268	-0.000292	0.233252	-1.457412	-1.458776	-0.026706	44.8832	-1.456966	-2.971570E+19	8.987178E-22	NaN
309	1.000000	0.292627	7.36809e+06	-54089.1	955.818	-29744.2	0.000000	0.000000	6.292863	-0.018208	NaN	0.000000	0.001629	0.001624	28.0774	0.021804	0.002053	10.6212	152.287	11.7621	-0.015245	0.291192	-1.399401	-1.400836	-0.018208	10.6212	-1.398115	-4.878921E+18	3.732022E-21	NaN
309	1.000000	0.350612	7.36809e+06	-54089.1	955.818	-29744.2	0.000000	0.000000	6.350849	0.000603	NaN	0.000000	0.001656	0.001593	28.0775	0.084205	0.002055	40.9821	-58.785	-166.423	-0.023815	0.349351	-1.341416	-1.342677	0.000603	40.9821	-1.341427	-8.546093E+17	-7.055588E-22	NaN
309	1.000000	0.408672	7.36809e+06	-54089.1	955.818	-29744.2	0.000000	0.000000	6.408907	-0.039815	NaN	0.000000	0.001647	0.001600	28.0787	0.017763	0.002057	8.636024	163.149	17.3247	-0.045839	0.407287	-1.283356	-1.284741	-0.039815	8.636024	-1.279898	-1.287438E+17	3.092563E-19	NaN
309	1.000000	0.466694	7.36809e+06	-54089.1	955.818	-29744.2	0.000000	0.000000	6.466932	0.019278	NaN	0.000000	0.001620	0.001597	28.0786	0.100864	0.002118	47.614	-172.577	-164.816	0.027646	0.465358	-1.225334	-1.226670	0.019278	47.614	-1.225637	-2.420781E+16	-7.963544E-19	NaN
309	1.000000	0.524704	7.36809e+06	-54089.1	955.819	-29744.2	0.000000	0.000000	6.524938	-0.053294	NaN	0.000000	0.001648	0.001573	28.0774	0.027454	0.002101	13.0685	61.4948	16.3107	-0.105765	0.523381	-1.167325	-1.168647	-0.053294	13.0685	-1.164266	-3.647920E+15	1.460933E-17	NaN
309	1.000000	0.582758	7.36809e+06	-54089.1	955.819	-29744.1	0.000000	0.000000	6.582997	0.042997	NaN	0.000000	0.001603	0.001594	28.0775	0.087687	0.001997	43.9149	-175.459	-164.194	0.028366	0.581429	-1.109270	-1.110599	0.042997	43.9149	-1.110004	-6.828789E+14	-6.296492E-17	NaN
309	1.000000	0.640768	7.36809e+06	-54089.1	955.818	-29744.1	0.000000	0.000000	6.641004	-0.025528	NaN	0.000000	0.001627	0.001609	28.0786	0.144102	0.002004	71.8984	-27.5301	15.0587	0.023580	0.639374	-1.051260	-1.052655	-0.025528	71.8984	-1.050993	-1.100952E+14	2.318694E-16	NaN
309	1.000000	0.698766	7.36809e+06	-54089.1	955.818	-29744.1	0.000000	0.000000	6.699003	0.001509	NaN	0.000000	0.001616	0.001585	28.0786	0.027264	0.001999	13.6372	159.084	-169.083	0.018029	0.697466	-0.993262	-0.994563	0.001509	13.6372	-0.993345	-1.845692E+13	-8.174009E-17	NaN
309	1.000000	0.756820	7.36809e+06	-54089.1	955.819	-29744.1	0.000000	0.000000	6.757053	-0.081915	NaN	0.000000	0.001654	0.001617	28.079	0.034621	0.001952	17.735	-86.4553	14.9569	-0.101380	0.755479	-0.935208	-0.936549	-0.081915	17.735	-0.931744	-2.727312E+12	3.003521E-14	NaN
309	1.000000	0.814836	7.36809e+06	-54089.1	955.818	-29744.1	0.000000	0.000000	6.815073	0.018586	NaN	0.000000	0.001570	0.001570	28.0776	0.101945	0.001967	51.8291	-28.0449	-166.8	-0.022609	0.813532	-0.877192	-0.878496	0.018586	51.8291	-0.877461	-5.039366E+11	-3.688074E-14	NaN
309	1.000000	0.872857	7.36809e+06	-54089.1	955.819	-29744.1	0.000000	0.000000	6.873094	0.013179	NaN	0.000000	0.001617	0.001574	28.0772	0.043912	0.002136	20.5537	-11.6007	15.7911	-0.018272	0.871435	-0.819171	-0.820593	0.013179	20.5537	-0.819652	-8.307860E+10	-1.586352E-13	NaN
309	1.000000	0.930866	7.36809e+06	-54089.1	955.818	-29744.1	0.000000	0.000000	6.931102	-0.019442	NaN	0.000000	0.001600	0.001593	28.0784	0.013987	0.001914	7.305825	-49.1929	-166.98	0.027216	0.929562	-0.761162	-0.762466	-0.019442	7.305825	-0.759167	-1.253037E+10	1.551591E-12	NaN
309	1.000000	0.988917	7.36809e+06	-54089.1	955.819	-29744.1	0.000000	0.000000	6.989154	0.013170	NaN	0.000000	0.001605	0.001608	28.0785	0.108685	0.001954	55.635	102.895	15.9935	0.066570	0.987582	-0.703111	-0.704446	0.013170	55.635	-0.703288	-2.169875E+9	-6.069311E-12	NaN
309	1.000000	1.046924	7.36809e+06	-54089.1	955.818	-29744.1	0.000000	0.000000	7.047159	-0.027589	NaN	0.000000	0.001626	0.001569	28.0777	0.066294	0.001873	35.3884	-142.142	-165.706	-0.011632	1.045593	-0.645105	-0.646435	-0.027589	35.3884	-0.644520	-3.406375E+8	8.099246E-11	NaN
309	1.000000	1.104948	7.36809e+06	-54089.1	955.817	-29744.1	0.000000	0.000000	7.105183	-0.026393	NaN	0.000000	0.001644	0.001607	28.0774	0.158817	0.002108	75.3231	-9.704945	17.9129	0.023835	1.103496	-0.587080	-0.588532	-0.026393	75.3231	-0.586817	-5.480016E+7	4.816264E-10	NaN
309	1.000000	1.162941	7.36809e+06	-54089.1	955.817	-29744.1	0.000000	0.000000	7.163177	0.002218	NaN	0.000000	0.001664	0.001617	28.0773	0.052128	0.002009	25.9465	99.2105	-162.932	-0.036948	1.161632	-0.529088	-0.530396	0.002218	25.9465	-0.529152	-8.72557e+06	-2.541696E-10	NaN
309	1.000000	1.221004	7.36809e+06	-54089.1	955.817	-29744.1	0.000000	0.000000	7.221242	0.021817	NaN	0.000000	0.001696	0.001619	28.0786	0.082970	0.002103	39.4565	38.9768	14.5239	0.005933	1.219629	-0.471024	-0.472399	0.021817	39.4565	-0.471439	-1.36642e+06	-1.596624E-8	NaN
309	1.000000	1.279036	7.36809e+06	-54089.1	955.818	-29744.1	0.000000	0.000000	7.279272	-0.022886	NaN	0.000000	0.001603	0.001651	28.079	0.049313	0.001952	25.2686	-46.9071	-166.387	-0.024934	1.277737	-0.412992	-0.414291	-0.022886	25.2686	-0.412313	-200116	1.143620E-7	NaN
309	1.000000	1.337044	7.36809e+06	-54089.1	955.818	-29744.1	0.000000	0.000000	7.337280	-0.020058	NaN	0.000000	0.001609	0.001655	28.0774	0.027084	0.002016	13.4341	-64.5616	19.3248	-0.060875	1.335683	-0.354984	-0.356345	-0.020058	13.4341	-0.353865	-29043.4	6.906140E-7	NaN
309	1.000000	1.395094	7.36809e+06	-54089.1	955.818	-29744.1	0.000000	0.000000	7.395329	-0.042310	NaN	0.000000	0.001634	0.001642	28.0775	0.021440	0.001907	11.2413	-153.316	-166.118	0.005635	1.393730	-0.296934	-0.298299	-0.042310	11.2413	-0.294111	-3844.29	1.100582E-5	NaN
309	1.000000	1.453085	7.36809e+06	-54089.1	955.818	-29744.1	0.000000	0.000000	7.453321	-0.020506	NaN	0.000000	0.001618	0.001577	28.0774	0.030698	0.002107	14.5669	0.051108	13.4921	-0.060176	1.451710	-0.238943	-0.240318	-0.020506	14.5669	-0.237887	-532.743	3.849227E-5	NaN
309	1.000000	1.511133	7.36809e+06	-54089.1	955.819	-29744.1	0.000000	0.000000	7.511370	0.008395	NaN	0.000000	0.001642	0.001626	28.0789	0.032380	0.001952	16.5893	130.044	-162.72	0.043643	1.509824	-0.180895	-0.182204	0.008395	16.5893	-0.181275	-64.1403	-0.000131	NaN
309	1.000000	1.569114	7.36809e+06	-54089.1	955.82	-29744.1	0.000000	0.000000	7.569350	-0.029254	NaN	0.000000	0.001660	0.001572	28.0787	0.007171	0.001908	3.758188	-89.9844	16.5733	-0.043263	1.567749	-0.122914	-0.124279	-0.029254	3.758188	-0.117076	-4.214103	0.006942	NaN
309	1.000000	1.627185	7.36809e+06	-54089.1	955.818	-29744.1	0.000000	0.000000	7.627423	0.024745	NaN	0.000000	0.001610	0.001621	28.0774	0.045883	0.002000	22.947	71.3059	-166.778	0.039232	1.625919	-0.064843	-0.066109	0.024745	22.947	-0.065652	-0.259787	-0.095251	NaN
309	1.000000	1.685232	7.36809e+06	-54089.1	955.82	-29744.1	0.000000	0.000000	7.685468	-0.009933	NaN	0.000000	0.001597	0.001670	28.0777	0.058515	0.002262	25.8712	148.89	15.7978	0.032427	1.683814	-0.006797	-0.008214	-0.009933	25.8712	-0.006509	-0.004345	2.285781	NaN
309	2.000000	1.710835	7.36809e+06	-54089.1	955.819	-29744.1	0.000000	0.000000	7.712026	23.2035	NaN	0.000000	0.001658	0.001609	28.0788	18.6368	0.001817	10256.6	3.308492	-172.457	22.9682	1.710522	0.018807	0.018493	23.2035	10256.6	0.017111	0.018204	1274.67	69454.1
309	2.000000	1.725297	7.36809e+06	-54089.1	955.819	-29744.1	0.000000	0.000000	7.727791	54.863	NaN	0.000000	0.001598	0.001681	28.0789	32.9792	0.001680	19629.7	3.412889	1.523222	53.8767	1.724932	0.033269	0.032904	54.863	19629.7	0.031173	0.043210	1269.68	86276.9
309	2.000000	1.739718	7.3681e+06	-54089.1	955.82	-29744.1	0.000000	0.000000	7.744417	108.495	NaN	0.000000	0.001636	0.001652	28.0784	46.4322	0.001843	25194.5	6.228351	176.887	105.605	1.739366	0.047690	0.047338	108.495	25194.5	0.044460	0.076062	1426.42	83463.4
309	2.000000	1.754224	7.3681e+06	-54089.1	955.82	-29744.1	0.000000	0.000000	7.761328	166.94	NaN	0.000000	0.001607	0.001603	28.0771	57.8332	0.001716	33696.9	2.681132	-3.104431	161.356	1.753874	0.062196	0.061846	166.94	33696.9	0.058481	0.120416	1386.36	88719.9
309	2.000000	1.768735	7.3681e+06	-54089.1	955.82	-29744.1	0.000000	0.000000	7.779059	245.249	NaN	0.000000	0.001706	0.001725	28.0773	74.0679	0.001749	42344.9	7.142883	171.574	246.93	1.768469	0.076707	0.076440	245.249	42344.9	0.072363	0.173832	1410.84	92791.7
309	2.000000	1.783228	7.3681e+06	-54089.1	955.82	-29744.1	0.000000	0.000000	7.797348	337.523	NaN	0.000000	0.001711	0.001738	28.0787	86.2583	0.001749	49318.7	2.389219	-4.709587	336.559	1.782873	0.091200	0.090845	337.523	49318.7	0.086067	0.235519	1433.1	92847.8
309	2.000000	1.797661	7.3681e+06	-54089.1	955.82	-29744.1	0.000000	0.000000	7.816155	443.869	NaN	0.000000	0.001702	0.001729	28.0787	98.706	0.001830	53945.6	0.631252	176.227	441.202	1.797420	0.105633	0.105392	443.869	53945.6	0.099462	0.304189	1459.19	89362.9
309	2.000000	1.798645	7.3681e+06	-54089.1	955.819	-29744.1	0.000000	0.000000	7.817728	458.177	NaN	0.000000	0.001690	0.001699	28.0787	99.7972	0.001794	55631.8	1.418616	175.536	455.448	1.798349	0.106617	0.106321	458.177	55631.8	0.100440	0.309523	1480.27	91358.7

File: 2025-07-22_16-23-58_1_310.txt
2025-07-22, 16:23:58, 1
Index	Phase	Displacement	Time	Pos X	Pos Y	Pos Z	Rot A	Rot B	Piezo Z	Force A	Force B	Gripper	Voltage A	Voltage B	Temperature	Amplitude force	Amplitude pos	Stiffness	Phase shift	Phase excitation	Force A raw	Displacement raw	HMax	HMax raw	Real Force	Real Stiffness	Contact Depth	Area	Hardness	Reduced Mod.
[#]	[#]	[um]	[s]	[um]	[um]	[um]	[m°]	[m°]	[um]	[uN]	[uN]	[V]	[V]	[V]	[°C]	[uN]	[um]	[N/m]	[°]	[°]	[uN]	[um]	[um]	[um]	[uN]	[N/m]	[um]	[um^2]	[MPa]	[MPa]
310	1.000000	0.002338	7.3681e+06	-54139.1	955.819	-29744.6	0.000000	0.000000	6.002774	-0.020222	NaN	0.000000	0.001630	0.001715	28.0803	0.077336	0.000917	84.3072	130.467	-167.212	-0.098697	0.001139	-1.054229	-1.055427	-0.020222	84.3072	-1.054049	-1.210154E+14	1.671057E-16	NaN
310	1.000000	0.042307	7.3681e+06	-54139.1	955.818	-29744.6	0.000000	0.000000	6.042746	0.020567	NaN	0.000000	0.001578	0.001725	28.0814	0.108599	0.001908	56.9298	-46.3393	-166.576	0.018182	0.040970	-1.014259	-1.015596	0.020567	56.9298	-1.014530	-3.559180E+13	-5.778508E-16	NaN
310	1.000000	0.082354	7.3681e+06	-54139.1	955.818	-29744.6	0.000000	0.000000	6.082793	0.028922	NaN	0.000000	0.001576	0.001729	28.0821	0.068385	0.001932	35.3929	15.6818	-163.465	-0.013245	0.081019	-0.974212	-0.975548	0.028922	35.3929	-0.974825	-1.039175E+13	-2.783208E-15	NaN
310	1.000000	0.122344	7.3681e+06	-54139.1	955.818	-29744.6	0.000000	0.000000	6.122779	-0.044243	NaN	0.000000	0.001599	0.001706	28.0815	0.049447	0.002038	24.2645	-154.472	-164.119	-0.046364	0.121002	-0.934223	-0.935564	-0.044243	24.2645	-0.932855	-2.823129E+12	1.567157E-14	NaN
310	1.000000	0.162347	7.3681e+06	-54139.1	955.818	-29744.6	0.000000	0.000000	6.162783	-0.028599	NaN	0.000000	0.001583	0.001699	28.0802	0.090035	0.001924	46.7972	47.895	-165.57	-0.068637	0.161019	-0.894219	-0.895547	-0.028599	46.7972	-0.893761	-8.370492E+11	3.416593E-14	NaN
310	1.000000	0.202378	7.3681e+06	-54139.1	955.818	-29744.6	0.000000	0.000000	6.202813	-0.047964	NaN	0.000000	0.001545	0.001683	28.0801	0.096649	0.001861	51.9316	4.450270	-167.404	-0.002062	0.201089	-0.854188	-0.855478	-0.047964	51.9316	-0.853496	-2.388203E+11	2.008362E-13	NaN
310	1.000000	0.242384	7.3681e+06	-54139.1	955.818	-29744.6	0.000000	0.000000	6.242819	-0.059674	NaN	0.000000	0.001643	0.001699	28.08	0.041532	0.001958	21.2067	-25.9052	-164.219	-0.023577	0.241062	-0.814182	-0.815504	-0.059674	21.2067	-0.812072	-6.556610E+10	9.101371E-13	NaN
310	1.000000	0.282394	7.3681e+06	-54139.1	955.818	-29744.6	0.000000	0.000000	6.282832	0.022139	NaN	0.000000	0.001585	0.001671	28.0814	0.076445	0.001919	39.8314	-76.6202	-164.439	0.022361	0.281077	-0.774173	-0.775490	0.022139	39.8314	-0.774590	-2.030956E+10	-1.090069E-12	NaN
310	1.000000	0.322426	7.3681e+06	-54139.1	955.818	-29744.6	0.000000	0.000000	6.322864	0.029526	NaN	0.000000	0.001643	0.001665	28.0817	0.008554	0.002103	4.068378	-101.022	-161.439	-0.042730	0.321130	-0.734141	-0.735437	0.029526	4.068378	-0.739584	-6.782421E+9	-4.353259E-12	NaN
310	1.000000	0.362443	7.3681e+06	-54139.1	955.818	-29744.6	0.000000	0.000000	6.362880	-0.005353	NaN	0.000000	0.001581	0.001690	28.0816	0.035148	0.002019	17.4125	70.3414	-162.483	0.042918	0.361122	-0.694123	-0.695445	-0.005353	17.4125	-0.693893	-1.614772E+9	3.314841E-12	NaN
310	1.000000	0.402461	7.3681e+06	-54139.1	955.819	-29744.6	0.000000	0.000000	6.402897	-0.019436	NaN	0.000000	0.001605	0.001708	28.0811	0.050764	0.002004	25.3327	110.76	-165.372	-0.023964	0.401166	-0.654106	-0.655401	-0.019436	25.3327	-0.653530	-4.527168E+8	4.293278E-11	NaN
310	1.000000	0.442492	7.3681e+06	-54139.1	955.818	-29744.6	0.000000	0.000000	6.442930	0.003857	NaN	0.000000	0.001637	0.001709	28.0804	0.075462	0.002076	36.351	-158.799	-165.964	-0.019088	0.441164	-0.614074	-0.615402	0.003857	36.351	-0.614154	-1.303918E+8	-2.957946E-11	NaN
310	1.000000	0.482498	7.3681e+06	-54139.1	955.817	-29744.6	0.000000	0.000000	6.482935	-0.013119	NaN	0.000000	0.001585	0.001702	28.0806	0.076255	0.001979	38.5338	-173.943	-165.193	-0.051960	0.481171	-0.574068	-0.575395	-0.013119	38.5338	-0.573813	-3.624989E+7	3.619020E-10	NaN
310	1.000000	0.522514	7.3681e+06	-54139.1	955.819	-29744.6	0.000000	0.000000	6.522951	-0.013846	NaN	0.000000	0.001603	0.001673	28.0804	0.009439	0.002007	4.702983	-108.504	-168.766	-0.048989	0.521159	-0.534052	-0.535407	-0.013846	4.702983	-0.531844	-9.50999e+06	1.455962E-9	NaN
310	1.000000	0.562553	7.3681e+06	-54139.1	955.818	-29744.6	0.000000	0.000000	6.562990	-0.012631	NaN	0.000000	0.001595	0.001679	28.0805	0.031725	0.001881	16.8641	33.0152	-168.124	0.013950	0.561248	-0.494013	-0.495318	-0.012631	16.8641	-0.493451	-2.77721e+06	4.548096E-9	NaN
310	1.000000	0.602572	7.3681e+06	-54139.1	955.818	-29744.6	0.000000	0.000000	6.603008	-0.032437	NaN	0.000000	0.001604	0.001678	28.0816	0.069619	0.001906	36.5192	166.553	-165.198	-0.026508	0.601239	-0.453995	-0.455328	-0.032437	36.5192	-0.453328	-760673	4.264306E-8	NaN
310	1.000000	0.642557	7.3681e+06	-54139.1	955.817	-29744.6	0.000000	0.000000	6.642994	-0.011537	NaN	0.000000	0.001631	0.001685	28.0815	0.087884	0.002020	43.5159	27.493	-163.081	0.011321	0.641275	-0.414009	-0.415292	-0.011537	43.5159	-0.413810	-210164	5.489596E-8	NaN
310	1.000000	0.682591	7.3681e+06	-54139.1	955.818	-29744.6	0.000000	0.000000	6.683028	-0.011102	NaN	0.000000	0.001634	0.001678	28.0819	0.011835	0.001883	6.283797	70.1155	-161.475	0.000905	0.681240	-0.373975	-0.375327	-0.011102	6.283797	-0.372650	-54234.4	2.047081E-7	NaN
310	1.000000	0.722592	7.3681e+06	-54139.1	955.819	-29744.6	0.000000	0.000000	6.723028	-0.029163	NaN	0.000000	0.001622	0.001694	28.0803	0.053437	0.002065	25.8804	107.824	-163.282	0.015495	0.721297	-0.333975	-0.335269	-0.029163	25.8804	-0.333130	-14496	2.011779E-6	NaN
310	1.000000	0.762616	7.3681e+06	-54139.1	955.818	-29744.6	0.000000	0.000000	6.763050	-0.072784	NaN	0.000000	0.001630	0.001701	28.0799	0.088136	0.001948	45.2357	-82.1665	-163.294	-0.034654	0.761318	-0.293951	-0.295248	-0.072784	45.2357	-0.292744	-3667.57	1.984530E-5	NaN
310	1.000000	0.802601	7.3681e+06	-54139.1	955.818	-29744.6	0.000000	0.000000	6.803035	-0.074360	NaN	0.000000	0.001654	0.001658	28.0803	0.099132	0.002001	49.5395	35.2439	-166.284	-0.045406	0.801323	-0.253966	-0.255244	-0.074360	49.5395	-0.252840	-909.56	8.175329E-5	NaN
310	1.000000	0.842644	7.3681e+06	-54139.1	955.818	-29744.6	0.000000	0.000000	6.843082	0.015184	NaN	0.000000	0.001620	0.001690	28.0811	0.068156	0.001985	34.3311	-49.6851	-163.734	-0.045328	0.841328	-0.213922	-0.215239	0.015184	34.3311	-0.214254	-224.653	-6.758926E-5	NaN
310	1.000000	0.882647	7.3681e+06	-54139.1	955.819	-29744.6	0.000000	0.000000	6.883086	0.017943	NaN	0.000000	0.001638	0.001682	28.0816	0.051469	0.002037	25.2653	-91.8679	-165.693	0.039211	0.881372	-0.173919	-0.175195	0.017943	25.2653	-0.174452	-49.0402	-0.000366	NaN
310	1.000000	0.922664	7.3681e+06	-54139.1	955.817	-29744.6	0.000000	0.000000	6.923102	-0.003368	NaN	0.000000	0.001618	0.001681	28.0811	0.072827	0.001945	37.4448	147.048	-162.884	-0.029527	0.921334	-0.133902	-0.135232	-0.003368	37.4448	-0.133835	-9.036435	0.000373	NaN
310	1.000000	0.962685	7.3681e+06	-54139.1	955.817	-29744.6	0.000000	0.000000	6.963122	0.011225	NaN	0.000000	0.001581	0.001675	28.0813	0.078551	0.001896	41.4315	-15.417	-163.608	0.051648	0.961377	-0.093882	-0.095190	0.011225	41.4315	-0.094085	-1.344351	-0.008350	NaN
310	1.000000	1.002732	7.3681e+06	-54139.1	955.817	-29744.6	0.000000	0.000000	7.003169	-0.012835	NaN	0.000000	0.001630	0.001659	28.0801	0.073234	0.002080	35.2071	-84.0008	-167.615	-0.010837	1.001378	-0.053835	-0.055189	-0.012835	35.2071	-0.053561	-0.116722	0.109963	NaN
310	1.000000	1.042752	7.3681e+06	-54139.1	955.818	-29744.6	0.000000	0.000000	7.043188	-0.025638	NaN	0.000000	0.001614	0.001689	28.0803	0.075897	0.001923	39.4702	8.332232	-165.945	-0.048628	1.041441	-0.013814	-0.015125	-0.025638	39.4702	-0.013327	-0.008291	3.092065	NaN
310	2.000000	1.071240	7.3681e+06	-54139.1	955.816	-29744.6	0.000000	0.000000	7.072160	11.7315	NaN	0.000000	0.001622	0.001667	28.0815	12.6709	0.001834	6907.71	5.228318	-171.974	11.0153	1.071046	0.014673	0.014480	11.7315	6907.71	0.013400	0.013210	888.072	54910.4
310	2.000000	1.081192	7.3681e+06	-54139.1	955.818	-29744.6	0.000000	0.000000	7.082879	30.3777	NaN	0.000000	0.001587	0.001700	28.0816	23.5034	0.001875	12533.3	4.544278	-175.114	30.0221	1.080850	0.024626	0.024284	30.3777	12533.3	0.022808	0.027148	1118.97	69497.8
310	2.000000	1.091129	7.3681e+06	-54139.1	955.816	-29744.6	0.000000	0.000000	7.093714	52.2038	NaN	0.000000	0.001571	0.001724	28.0815	33.6139	0.001869	17986.7	6.165444	178.94	49.3112	1.090920	0.034563	0.034353	52.2038	17986.7	0.032386	0.045834	1138.98	76759.5
310	2.000000	1.101201	7.3681e+06	-54139.1	955.817	-29744.6	0.000000	0.000000	7.105154	85.4509	NaN	0.000000	0.001618	0.001691	28.0818	43.6321	0.001972	22123.5	11.4766	173.779	87.7992	1.100824	0.044635	0.044257	85.4509	22123.5	0.041738	0.068597	1245.69	77174.3
310	2.000000	1.111089	7.3681e+06	-54139.1	955.817	-29744.6	0.000000	0.000000	7.116591	123.13	NaN	0.000000	0.001583	0.001706	28.0816	53.0591	0.001838	28870.4	3.100169	177.322	120.532	1.110988	0.054522	0.054422	123.13	28870.4	0.051323	0.096548	1275.33	84889.7
310	2.000000	1.121111	7.3681e+06	-54139.1	955.818	-29744.6	0.000000	0.000000	7.128376	165.997	NaN	0.000000	0.001613	0.001693	28.0805	60.2137	0.001765	34117.3	-0.359227	-179.709	164.896	1.120964	0.064544	0.064397	165.997	34117.3	0.060895	0.129037	1286.43	86774.3
310	2.000000	1.131095	7.3681e+06	-54139.1	955.817	-29744.6	0.000000	0.000000	7.140809	225.514	NaN	0.000000	0.001599	0.001701	28.0804	71.6277	0.001705	41999.4	7.257295	170.717	225.144	1.130824	0.074529	0.074258	225.514	41999.4	0.070502	0.166134	1357.42	94142.7
310	2.000000	1.141078	7.36811e+06	-54139.1	955.817	-29744.6	0.000000	0.000000	7.153773	297.989	NaN	0.000000	0.001567	0.001665	28.0806	82.1879	0.001737	47319.4	5.189906	171.56	296.535	1.140848	0.084511	0.084281	297.989	47319.4	0.079788	0.206169	1445.36	95213.9
310	2.000000	1.151172	7.36811e+06	-54139.1	955.816	-29744.6	0.000000	0.000000	7.166759	368.301	NaN	0.000000	0.001588	0.001703	28.0821	92.9345	0.001704	54536.3	6.672305	169.131	370.023	1.150974	0.094605	0.094407	368.301	54536.3	0.089540	0.252536	1458.41	99150.9
310	2.000000	1.161092	7.36811e+06	-54139.1	955.817	-29744.6	0.000000	0.000000	7.180948	472.092	NaN	0.000000	0.001631	0.001692	28.0822	103.801	0.001704	60913.2	4.941073	170.41	473.07	1.160812	0.104525	0.104245	472.092	60913.2	0.098712	0.300131	1572.95	101585
310	2.000000	1.166091	7.36811e+06	-54139.1	955.817	-29744.6	0.000000	0.000000	7.187938	520.504	NaN	0.000000	0.001637	0.001676	28.0818	107.71	0.001683	63983.2	5.305196	169.651	518.913	1.165896	0.109524	0.109330	520.504	63983.2	0.103423	0.326063	1596.33	102374