Folder: unikorn_login/remote_trans/data/nanoindenter/0828-1/data/Data_2025-08-06,11h17m57s (part 105)

File: 2025-07-22_16-23-58_1_227.txt
2025-07-22, 16:23:58, 1
Index	Phase	Displacement	Time	Pos X	Pos Y	Pos Z	Rot A	Rot B	Piezo Z	Force A	Force B	Gripper	Voltage A	Voltage B	Temperature	Amplitude force	Amplitude pos	Stiffness	Phase shift	Phase excitation	Force A raw	Displacement raw	HMax	HMax raw	Real Force	Real Stiffness	Contact Depth	Area	Hardness	Reduced Mod.
[#]	[#]	[um]	[s]	[um]	[um]	[um]	[m°]	[m°]	[um]	[uN]	[uN]	[V]	[V]	[V]	[°C]	[uN]	[um]	[N/m]	[°]	[°]	[uN]	[um]	[um]	[um]	[uN]	[N/m]	[um]	[um^2]	[MPa]	[MPa]
227	1.000000	0.002557	7.36727e+06	-49989.1	955.818	-29757.5	0.000000	0.000000	6.002818	0.050941	NaN	0.000000	0.001552	0.001694	28.0797	0.082080	0.001061	77.377	-117.206	-172.64	0.028458	0.001256	-1.131761	-1.133062	0.050941	77.377	-1.132255	-1.357910E+15	-3.751422E-17	NaN
227	1.000000	0.044512	7.36727e+06	-49989.1	955.818	-29757.5	0.000000	0.000000	6.044770	-0.032859	NaN	0.000000	0.001548	0.001651	28.0785	0.129235	0.001948	66.349	87.1046	13.8349	0.030494	0.043097	-1.089806	-1.091222	-0.032859	66.349	-1.089435	-3.615967E+14	9.087287E-17	NaN
227	1.000000	0.086507	7.36727e+06	-49989.1	955.817	-29757.5	0.000000	0.000000	6.086768	0.026556	NaN	0.000000	0.001562	0.001655	28.0782	0.159735	0.001906	83.7985	172.224	-165.635	0.034806	0.085185	-1.047811	-1.049133	0.026556	83.7985	-1.048049	-1.005035E+14	-2.642283E-16	NaN
227	1.000000	0.128546	7.36727e+06	-49989.1	955.819	-29757.5	0.000000	0.000000	6.128808	0.074496	NaN	0.000000	0.001581	0.001628	28.0785	0.165430	0.001976	83.7347	-152.551	14.0299	0.059759	0.127171	-1.005773	-1.007147	0.074496	83.7347	-1.006440	-2.769912E+13	-2.689453E-15	NaN
227	1.000000	0.170540	7.36727e+06	-49989.1	955.819	-29757.5	0.000000	0.000000	6.170798	-0.010626	NaN	0.000000	0.001581	0.001643	28.0795	0.090872	0.002079	43.7121	153.701	-165.617	-0.017926	0.169184	-0.963779	-0.965135	-0.010626	43.7121	-0.963596	-7.334208E+12	1.448797E-15	NaN
227	1.000000	0.212555	7.36727e+06	-49989.1	955.817	-29757.5	0.000000	0.000000	6.212816	0.031603	NaN	0.000000	0.001595	0.001705	28.0798	0.058734	0.001988	29.5475	26.5766	13.877	0.135482	0.211215	-0.921763	-0.923104	0.031603	29.5475	-0.922565	-2.050404E+12	-1.541327E-14	NaN
227	1.000000	0.254559	7.36727e+06	-49989.1	955.817	-29757.5	0.000000	0.000000	6.254819	0.014214	NaN	0.000000	0.001565	0.001628	28.0799	0.085558	0.001930	44.3191	-143.66	-166.586	0.051136	0.253261	-0.879759	-0.881058	0.014214	44.3191	-0.880000	-5.453847E+11	-2.606189E-14	NaN
227	1.000000	0.296605	7.36727e+06	-49989.1	955.818	-29757.5	0.000000	0.000000	6.296864	0.001449	NaN	0.000000	0.001515	0.001640	28.0785	0.055290	0.001943	28.4514	98.6234	13.8892	0.005753	0.295238	-0.837713	-0.839080	0.001449	28.4514	-0.837751	-1.461598E+11	-9.914163E-15	NaN
227	1.000000	0.338600	7.36727e+06	-49989.1	955.817	-29757.5	0.000000	0.000000	6.338859	-0.010333	NaN	0.000000	0.001575	0.001648	28.0791	0.034085	0.002044	16.6768	77.6275	-169.342	-0.074825	0.337319	-0.795718	-0.797000	-0.010333	16.6768	-0.795253	-3.876347E+10	2.665700E-13	NaN
227	1.000000	0.380623	7.36727e+06	-49989.1	955.818	-29757.5	0.000000	0.000000	6.380882	-0.004200	NaN	0.000000	0.001591	0.001656	28.0784	0.032452	0.001880	17.2661	-104.768	14.905	-0.091394	0.379270	-0.753695	-0.755049	-0.004200	17.2661	-0.753513	-1.049620E+10	4.001052E-13	NaN
227	1.000000	0.422633	7.36727e+06	-49989.1	955.818	-29757.5	0.000000	0.000000	6.422891	-0.012692	NaN	0.000000	0.001574	0.001668	28.0785	0.112879	0.002017	55.9512	149.163	-163.147	0.015692	0.421292	-0.711686	-0.713026	-0.012692	55.9512	-0.711515	-2.810139E+9	4.516641E-12	NaN
227	1.000000	0.464683	7.36727e+06	-49989.1	955.819	-29757.5	0.000000	0.000000	6.464942	0.012586	NaN	0.000000	0.001592	0.001632	28.0797	0.079315	0.001966	40.3444	57.6716	14.2133	0.034400	0.463280	-0.669636	-0.671038	0.012586	40.3444	-0.669870	-7.578933E+8	-1.660617E-11	NaN
227	1.000000	0.506677	7.36727e+06	-49989.1	955.818	-29757.5	0.000000	0.000000	6.506935	-0.034966	NaN	0.000000	0.001562	0.001679	28.0795	0.037547	0.001967	19.0885	-148.004	-166.245	0.016464	0.505398	-0.627641	-0.628920	-0.034966	19.0885	-0.626267	-1.913176E+8	1.827660E-10	NaN
227	1.000000	0.548731	7.36727e+06	-49989.1	955.818	-29757.5	0.000000	0.000000	6.548989	-0.028119	NaN	0.000000	0.001588	0.001640	28.0793	0.023268	0.001930	12.0541	175.891	14.292	-0.147107	0.547350	-0.585587	-0.586968	-0.028119	12.0541	-0.583838	-4.985168E+7	5.640515E-10	NaN
227	1.000000	0.590708	7.36727e+06	-49989.1	955.819	-29757.5	0.000000	0.000000	6.590966	-0.029001	NaN	0.000000	0.001646	0.001649	28.0784	0.041123	0.002037	20.1926	153.361	-166.359	0.016658	0.589379	-0.543611	-0.544940	-0.029001	20.1926	-0.542533	-1.338096E+7	2.167313E-9	NaN
227	1.000000	0.632723	7.36727e+06	-49989.1	955.819	-29757.5	0.000000	0.000000	6.632982	-0.003864	NaN	0.000000	0.001541	0.001641	28.0783	0.056879	0.002109	26.9719	-106.541	10.9899	-0.000119	0.631391	-0.501595	-0.502928	-0.003864	26.9719	-0.501488	-3.59561e+06	1.074718E-9	NaN
227	1.000000	0.674754	7.36727e+06	-49989.1	955.818	-29757.5	0.000000	0.000000	6.675016	0.068448	NaN	0.000000	0.001577	0.001679	28.0783	0.074017	0.002022	36.6011	-57.5856	-164.531	0.068240	0.673468	-0.459564	-0.460850	0.068448	36.6011	-0.460967	-974091	-7.026904E-8	NaN
227	1.000000	0.716735	7.36727e+06	-49989.1	955.818	-29757.5	0.000000	0.000000	6.716996	0.051145	NaN	0.000000	0.001554	0.001606	28.0795	0.039322	0.001956	20.1033	-111.774	15.1413	0.014219	0.715394	-0.417584	-0.418924	0.051145	20.1033	-0.419492	-253050	-2.021121E-7	NaN
227	1.000000	0.758799	7.36727e+06	-49989.1	955.819	-29757.5	0.000000	0.000000	6.759058	0.022235	NaN	0.000000	0.001578	0.001640	28.0794	0.065650	0.001999	32.8401	49.1641	-167.079	-0.020737	0.757449	-0.375520	-0.376869	0.022235	32.8401	-0.376028	-60651.6	-3.666073E-7	NaN
227	1.000000	0.800797	7.36727e+06	-49989.1	955.819	-29757.5	0.000000	0.000000	6.801053	-0.065562	NaN	0.000000	0.001649	0.001642	28.0796	0.045994	0.002061	22.3185	-138.228	13.3428	-0.074553	0.799445	-0.333521	-0.334874	-0.065562	22.3185	-0.331318	-13637.9	4.807341E-6	NaN
227	1.000000	0.842798	7.36727e+06	-49989.1	955.819	-29757.5	0.000000	0.000000	6.843057	-0.013925	NaN	0.000000	0.001589	0.001667	28.0786	0.044177	0.001931	22.8751	17.1031	-169.106	-0.014318	0.841508	-0.291520	-0.292811	-0.013925	22.8751	-0.291064	-3461.24	4.023037E-6	NaN
227	1.000000	0.884815	7.36727e+06	-49989.1	955.817	-29757.5	0.000000	0.000000	6.885075	0.013797	NaN	0.000000	0.001542	0.001653	28.0785	0.096083	0.002203	43.6184	-9.689306	14.2531	-0.030301	0.883460	-0.249503	-0.250858	0.013797	43.6184	-0.249740	-814.605	-1.693662E-5	NaN
227	1.000000	0.926875	7.36727e+06	-49989.1	955.817	-29757.5	0.000000	0.000000	6.927135	0.007446	NaN	0.000000	0.001570	0.001639	28.0782	0.159743	0.001873	85.2644	-164.373	-164.863	-0.022863	0.925553	-0.207443	-0.208765	0.007446	85.2644	-0.207508	-174.742	-4.261028E-5	NaN
227	1.000000	0.968901	7.36727e+06	-49989.1	955.818	-29757.5	0.000000	0.000000	6.969161	0.004090	NaN	0.000000	0.001579	0.001656	28.0783	0.069718	0.001937	35.9892	134.119	16.3235	0.009879	0.967539	-0.165417	-0.166779	0.004090	35.9892	-0.165502	-34.2862	-0.000119	NaN
227	1.000000	1.010867	7.36727e+06	-49989.1	955.819	-29757.5	0.000000	0.000000	7.011128	0.057809	NaN	0.000000	0.001550	0.001635	28.0798	0.041842	0.001995	20.9787	-64.8836	-163.38	0.065944	1.009535	-0.123452	-0.124783	0.057809	20.9787	-0.125518	-6.226472	-0.009284	NaN
227	1.000000	1.052886	7.36727e+06	-49989.1	955.819	-29757.5	0.000000	0.000000	7.053146	0.017247	NaN	0.000000	0.001608	0.001636	28.0795	0.048339	0.002087	23.1638	12.0538	13.0149	0.012677	1.051585	-0.081432	-0.082733	0.017247	23.1638	-0.081991	-0.693640	-0.024865	NaN
227	1.000000	1.094955	7.36727e+06	-49989.1	955.816	-29757.5	0.000000	0.000000	7.095216	0.045701	NaN	0.000000	0.001584	0.001638	28.0797	0.082879	0.002201	37.6522	-58.8961	-164.156	-0.064074	1.093628	-0.039363	-0.040690	0.045701	37.6522	-0.040274	-0.046096	-0.991436	NaN
227	1.000000	1.136897	7.36727e+06	-49989.1	955.818	-29757.5	0.000000	0.000000	7.137236	1.947478	NaN	0.000000	0.001581	0.001714	28.0788	2.696303	0.001895	1422.56	7.309561	12.4227	0.729993	1.135582	0.002579	0.001264	1.947478	1422.56	0.001552	0.001196	1628.72	37586.3
227	2.000000	1.152432	7.36727e+06	-49989.1	955.818	-29757.5	0.000000	0.000000	7.153512	19.9658	NaN	0.000000	0.001575	0.001659	28.0787	18.6312	0.001830	10181.4	7.284979	-176.474	19.6287	1.152081	0.018114	0.017763	19.9658	10181.4	0.016643	0.017539	1138.34	70238.2
227	2.000000	1.162901	7.36727e+06	-49989.1	955.818	-29757.5	0.000000	0.000000	7.164805	40.0138	NaN	0.000000	0.001572	0.001649	28.0784	28.8773	0.001701	16981.3	3.856115	1.481346	39.185	1.162490	0.028583	0.028171	40.0138	16981.3	0.026815	0.034401	1163.15	83648.4
227	2.000000	1.173315	7.36727e+06	-49989.1	955.818	-29757.5	0.000000	0.000000	7.176525	71.7809	NaN	0.000000	0.001576	0.001661	28.0797	38.9716	0.001639	23782.1	5.804970	176.088	69.3465	1.173010	0.038996	0.038691	71.7809	23782.1	0.036733	0.055857	1285.08	91935.8
227	2.000000	1.183914	7.36727e+06	-49989.1	955.817	-29757.5	0.000000	0.000000	7.188934	115.79	NaN	0.000000	0.001539	0.001677	28.0798	50.4993	0.001805	27979.7	5.884957	-4.464078	118.942	1.183600	0.049595	0.049282	115.79	27979.7	0.046492	0.081878	1414.17	89337.3
227	2.000000	1.194233	7.36727e+06	-49989.1	955.817	-29757.5	0.000000	0.000000	7.201304	165.668	NaN	0.000000	0.001555	0.001698	28.0801	61.4787	0.001882	32674.5	3.439455	177.27	160.029	1.193935	0.059914	0.059616	165.668	32674.5	0.056112	0.112236	1476.07	89107.8
227	2.000000	1.204780	7.36727e+06	-49989.1	955.816	-29757.5	0.000000	0.000000	7.214439	228.603	NaN	0.000000	0.001558	0.001682	28.0786	72.3822	0.001711	42306.3	2.399062	-5.299784	225.116	1.204584	0.070461	0.070266	228.603	42306.3	0.066409	0.149787	1526.19	99871.5
227	2.000000	1.215270	7.36727e+06	-49989.1	955.817	-29757.5	0.000000	0.000000	7.228576	317.288	NaN	0.000000	0.001640	0.001680	28.0789	83.3047	0.001685	49443.8	3.732832	172.425	316.149	1.215036	0.080951	0.080718	317.288	49443.8	0.076139	0.189952	1670.36	103649
227	2.000000	1.225709	7.36727e+06	-49989.1	955.815	-29757.5	0.000000	0.000000	7.243190	418.81	NaN	0.000000	0.001586	0.001651	28.0791	94.1179	0.001707	55135.3	5.261968	-9.885808	411.155	1.225441	0.091391	0.091122	418.81	55135.3	0.085694	0.233723	1791.9	104196
227	2.000000	1.236207	7.36727e+06	-49989.1	955.817	-29757.5	0.000000	0.000000	7.258283	530.579	NaN	0.000000	0.001594	0.001627	28.0784	102.885	0.001823	56422.6	1.276624	174.443	527.169	1.235948	0.101888	0.101630	530.579	56422.6	0.094836	0.279545	1898.01	97499
227	2.000000	1.242186	7.36727e+06	-49989.1	955.818	-29757.5	0.000000	0.000000	7.267237	602.921	NaN	0.000000	0.001589	0.001603	28.0799	110.127	0.001789	61543.8	4.600431	170.134	595.959	1.241863	0.107868	0.107544	602.921	61543.8	0.100520	0.309965	1945.12	100995

File: 2025-07-22_16-23-58_1_228.txt
2025-07-22, 16:23:58, 1
Index	Phase	Displacement	Time	Pos X	Pos Y	Pos Z	Rot A	Rot B	Piezo Z	Force A	Force B	Gripper	Voltage A	Voltage B	Temperature	Amplitude force	Amplitude pos	Stiffness	Phase shift	Phase excitation	Force A raw	Displacement raw	HMax	HMax raw	Real Force	Real Stiffness	Contact Depth	Area	Hardness	Reduced Mod.
[#]	[#]	[um]	[s]	[um]	[um]	[um]	[m°]	[m°]	[um]	[uN]	[uN]	[V]	[V]	[V]	[°C]	[uN]	[um]	[N/m]	[°]	[°]	[uN]	[um]	[um]	[um]	[uN]	[N/m]	[um]	[um^2]	[MPa]	[MPa]
228	1.000000	0.002528	7.36728e+06	-50039.1	955.818	-29757.4	0.000000	0.000000	6.002800	0.051947	NaN	0.000000	0.001591	0.001671	28.0778	0.118206	0.000955	123.759	81.2635	-165.193	-0.000850	0.001302	-1.057613	-1.058838	0.051947	123.759	-1.057928	-1.364504E+14	-3.807023E-16	NaN
228	1.000000	0.042483	7.36728e+06	-50039.1	955.818	-29757.4	0.000000	0.000000	6.042755	0.043403	NaN	0.000000	0.001574	0.001676	28.078	0.071160	0.002067	34.4344	45.4829	-164.462	0.011481	0.041162	-1.017657	-1.018978	0.043403	34.4344	-1.018603	-4.037871E+13	-1.074904E-15	NaN
228	1.000000	0.082512	7.36728e+06	-50039.1	955.819	-29757.4	0.000000	0.000000	6.082781	-0.042447	NaN	0.000000	0.001627	0.001677	28.0777	0.068521	0.001937	35.3785	-33.802	-167.126	-0.113661	0.081174	-0.977628	-0.978967	-0.042447	35.3785	-0.976729	-1.102386E+13	3.850471E-15	NaN
228	1.000000	0.122514	7.36728e+06	-50039.1	955.819	-29757.4	0.000000	0.000000	6.122785	0.010594	NaN	0.000000	0.001646	0.001670	28.0789	0.064780	0.002080	31.1511	64.8973	-164.918	-0.039806	0.121165	-0.937627	-0.938976	0.010594	31.1511	-0.937882	-3.300328E+12	-3.209856E-15	NaN
228	1.000000	0.162519	7.36728e+06	-50039.1	955.818	-29757.4	0.000000	0.000000	6.162791	0.054822	NaN	0.000000	0.001610	0.001674	28.0791	0.100047	0.002049	48.8243	23.0235	-166.723	0.019935	0.161246	-0.897622	-0.898895	0.054822	48.8243	-0.898464	-9.689693E+11	-5.657742E-14	NaN
228	1.000000	0.202522	7.36728e+06	-50039.1	955.818	-29757.4	0.000000	0.000000	6.202793	0.020729	NaN	0.000000	0.001629	0.001680	28.0789	0.039915	0.002078	19.2087	-159.562	-165.735	0.060325	0.201253	-0.857619	-0.858888	0.020729	19.2087	-0.858428	-2.785104E+11	-7.442735E-14	NaN
228	1.000000	0.242545	7.36728e+06	-50039.1	955.819	-29757.4	0.000000	0.000000	6.242816	0.029829	NaN	0.000000	0.001517	0.001634	28.0778	0.110373	0.001965	56.1799	-22.5621	-165.089	-0.050156	0.241244	-0.817596	-0.818897	0.029829	56.1799	-0.817994	-7.888700E+10	-3.781169E-13	NaN
228	1.000000	0.282561	7.36728e+06	-50039.1	955.818	-29757.4	0.000000	0.000000	6.282835	0.097810	NaN	0.000000	0.001553	0.001720	28.0784	0.062494	0.001949	32.0705	110.975	-166.295	0.098891	0.281287	-0.777580	-0.778854	0.097810	32.0705	-0.779867	-2.395671E+10	-4.082766E-12	NaN
228	1.000000	0.322585	7.36728e+06	-50039.1	955.819	-29757.4	0.000000	0.000000	6.322856	-0.000239	NaN	0.000000	0.001558	0.001689	28.0777	0.097318	0.001947	49.9712	27.8909	-168.493	0.050962	0.321258	-0.737555	-0.738883	-0.000239	49.9712	-0.737552	-6.363663E+9	3.755617E-14	NaN
228	1.000000	0.362604	7.36728e+06	-50039.1	955.818	-29757.4	0.000000	0.000000	6.362872	-0.047115	NaN	0.000000	0.001575	0.001701	28.0777	0.011576	0.001938	5.973320	164.198	-166.94	-0.091257	0.361326	-0.697537	-0.698815	-0.047115	5.973320	-0.691621	-1.503393E+9	3.133926E-11	NaN
228	1.000000	0.402637	7.36728e+06	-50039.1	955.819	-29757.4	0.000000	0.000000	6.402909	0.028728	NaN	0.000000	0.001631	0.001711	28.0784	0.023793	0.002001	11.8911	15.4169	-165.664	-0.055664	0.401289	-0.657503	-0.658852	0.028728	11.8911	-0.659315	-5.433646E+8	-5.287017E-11	NaN
228	1.000000	0.442666	7.36728e+06	-50039.1	955.818	-29757.4	0.000000	0.000000	6.442934	-0.034103	NaN	0.000000	0.001616	0.001675	28.0785	0.029755	0.002086	14.2609	134.932	-167.775	-0.006708	0.441319	-0.617475	-0.618822	-0.034103	14.2609	-0.615682	-1.368555E+8	2.491885E-10	NaN
228	1.000000	0.482658	7.36728e+06	-50039.1	955.818	-29757.4	0.000000	0.000000	6.482930	0.040389	NaN	0.000000	0.001602	0.001690	28.0783	0.057078	0.002024	28.203	32.2803	-165.181	0.089535	0.481317	-0.577482	-0.578824	0.040389	28.203	-0.578557	-4.215041E+7	-9.582176E-10	NaN
228	1.000000	0.522695	7.36728e+06	-50039.1	955.818	-29757.4	0.000000	0.000000	6.522961	-0.094551	NaN	0.000000	0.001551	0.001674	28.077	0.014140	0.002131	6.635337	-36.2464	-166.223	-0.108092	0.521333	-0.537446	-0.538807	-0.094551	6.635337	-0.526758	-8.08252e+06	1.169822E-8	NaN
228	1.000000	0.562681	7.36728e+06	-50039.1	955.819	-29757.4	0.000000	0.000000	6.562949	-0.050668	NaN	0.000000	0.001571	0.001690	28.0771	0.045534	0.001874	24.2979	-8.612495	-166.613	-0.132384	0.561373	-0.497460	-0.498768	-0.050668	24.2979	-0.495896	-3.00432e+06	1.686499E-8	NaN
228	1.000000	0.602722	7.36728e+06	-50039.1	955.818	-29757.4	0.000000	0.000000	6.602995	0.074230	NaN	0.000000	0.001556	0.001693	28.0773	0.138229	0.001892	73.0415	72.4811	-168.036	-0.066441	0.601454	-0.457419	-0.458687	0.074230	73.0415	-0.458181	-890129	-8.339292E-8	NaN
228	1.000000	0.642720	7.36728e+06	-50039.1	955.818	-29757.4	0.000000	0.000000	6.642989	-0.024011	NaN	0.000000	0.001561	0.001679	28.0775	0.049187	0.001857	26.493	-67.3291	-167.623	4.115799E-5	0.641368	-0.417421	-0.418773	-0.024011	26.493	-0.416741	-231298	1.038078E-7	NaN
228	1.000000	0.682745	7.36728e+06	-50039.1	955.819	-29757.4	0.000000	0.000000	6.683017	0.032143	NaN	0.000000	0.001549	0.001658	28.0783	0.117491	0.002011	58.4259	-115.307	-164.734	0.063964	0.681376	-0.377396	-0.378765	0.032143	58.4259	-0.377808	-64331.4	-4.996437E-7	NaN
228	1.000000	0.722758	7.36728e+06	-50039.1	955.819	-29757.4	0.000000	0.000000	6.723032	0.099012	NaN	0.000000	0.001584	0.001658	28.0785	0.046415	0.001998	23.229	124.163	-167.681	0.007572	0.721459	-0.337383	-0.338682	0.099012	23.229	-0.340580	-18621.1	-5.317195E-6	NaN
228	1.000000	0.762774	7.36728e+06	-50039.1	955.819	-29757.4	0.000000	0.000000	6.763048	0.082129	NaN	0.000000	0.001537	0.001652	28.0786	0.115570	0.001968	58.7098	120.81	-170.477	0.023889	0.761477	-0.297367	-0.298664	0.082129	58.7098	-0.298416	-4456.99	-1.842711E-5	NaN
228	1.000000	0.802807	7.36728e+06	-50039.1	955.818	-29757.4	0.000000	0.000000	6.803077	0.003600	NaN	0.000000	0.001561	0.001707	28.0774	0.101190	0.002111	47.9359	-71.3582	-163.225	0.020351	0.801495	-0.257334	-0.258646	0.003600	47.9359	-0.257390	-1068.75	-3.368461E-6	NaN
228	1.000000	0.842841	7.36728e+06	-50039.1	955.818	-29757.4	0.000000	0.000000	6.843113	0.048073	NaN	0.000000	0.001546	0.001666	28.0773	0.069079	0.001963	35.1903	-124.675	-165.666	0.012642	0.841485	-0.217299	-0.218655	0.048073	35.1903	-0.218324	-261.134	-0.000184	NaN
228	1.000000	0.882809	7.36728e+06	-50039.1	955.818	-29757.4	0.000000	0.000000	6.883080	0.008643	NaN	0.000000	0.001602	0.001679	28.0772	0.130690	0.001949	67.0605	160.244	-165.155	0.016055	0.881529	-0.177332	-0.178612	0.008643	67.0605	-0.177428	-55.1575	-0.000157	NaN
228	1.000000	0.922835	7.36728e+06	-50039.1	955.818	-29757.4	0.000000	0.000000	6.923106	0.004632	NaN	0.000000	0.001612	0.001680	28.0785	0.030426	0.001908	15.9499	145.555	-166.258	0.035536	0.921505	-0.137305	-0.138636	0.004632	15.9499	-0.137523	-10.6232	-0.000436	NaN
228	1.000000	0.962871	7.36728e+06	-50039.1	955.818	-29757.4	0.000000	0.000000	6.963143	0.035338	NaN	0.000000	0.001544	0.001706	28.0785	0.063481	0.001965	32.3033	15.7351	-168.904	-0.051506	0.961586	-0.097269	-0.098555	0.035338	32.3033	-0.098090	-1.656591	-0.021332	NaN
228	1.000000	1.002869	7.36728e+06	-50039.1	955.819	-29757.4	0.000000	0.000000	7.003143	0.083123	NaN	0.000000	0.001539	0.001673	28.0785	0.030392	0.001962	15.4906	21.2111	-167.405	0.124224	1.001593	-0.057272	-0.058548	0.083123	15.4906	-0.061296	-0.196119	-0.423838	NaN
228	1.000000	1.042876	7.36728e+06	-50039.1	955.819	-29757.4	0.000000	0.000000	7.043145	-0.028619	NaN	0.000000	0.001602	0.001706	28.0784	0.042525	0.002029	20.9608	-152.019	-167.286	-0.015506	1.041592	-0.017265	-0.018549	-0.028619	20.9608	-0.016241	-0.010032	2.852766	NaN
228	2.000000	1.074371	7.36728e+06	-50039.1	955.819	-29757.4	0.000000	0.000000	7.075166	12.7631	NaN	0.000000	0.001555	0.001661	28.0774	13.1701	0.001816	7252.72	7.546814	-175.661	12.4185	1.074119	0.014231	0.013979	12.7631	7252.72	0.012911	0.012600	1012.98	59033.3
228	2.000000	1.084298	7.36728e+06	-50039.1	955.82	-29757.4	0.000000	0.000000	7.085877	31.8382	NaN	0.000000	0.001551	0.001664	28.0773	24.2178	0.001929	12552.8	7.117953	-179.399	30.8772	1.083974	0.024157	0.023833	31.8382	12552.8	0.022255	0.026210	1214.73	70840.2
228	2.000000	1.094243	7.36728e+06	-50039.1	955.819	-29757.4	0.000000	0.000000	7.096905	58.1823	NaN	0.000000	0.001612	0.001644	28.0776	33.292	0.001838	18117	4.457261	179.32	55.9355	1.094054	0.034102	0.033913	58.1823	18117	0.031693	0.044326	1312.59	78619.1
228	2.000000	1.104233	7.36728e+06	-50039.1	955.818	-29757.4	0.000000	0.000000	7.108416	95.1601	NaN	0.000000	0.001562	0.001653	28.0788	43.8782	0.001832	23952.5	6.254989	175.568	92.6094	1.103915	0.044092	0.043775	95.1601	23952.5	0.041112	0.066935	1421.68	84586.1
228	2.000000	1.114325	7.36728e+06	-50039.1	955.819	-29757.4	0.000000	0.000000	7.120025	132.061	NaN	0.000000	0.001562	0.001680	28.079	52.0444	0.001795	28989.8	1.758166	178.535	133.192	1.113976	0.054184	0.053835	132.061	28989.8	0.050768	0.094801	1393.04	86022.6
228	2.000000	1.124275	7.36728e+06	-50039.1	955.819	-29757.4	0.000000	0.000000	7.132112	184.014	NaN	0.000000	0.001589	0.001691	28.0791	61.4788	0.001708	35988.9	3.971243	175.081	186.714	1.123912	0.064134	0.063771	184.014	35988.9	0.060299	0.126884	1450.26	92307.9
228	2.000000	1.134199	7.36728e+06	-50039.1	955.821	-29757.4	0.000000	0.000000	7.144206	236.807	NaN	0.000000	0.001568	0.001663	28.0791	72.1285	0.001788	40333.5	2.936639	174.07	235.721	1.134023	0.074058	0.073882	236.807	40333.5	0.069654	0.162685	1455.62	91362
228	2.000000	1.144278	7.36728e+06	-50039.1	955.821	-29757.4	0.000000	0.000000	7.157054	304.149	NaN	0.000000	0.001674	0.001652	28.0777	80.8127	0.001808	44705.2	4.396838	172.202	304.4	1.143919	0.084137	0.083778	304.149	44705.2	0.079034	0.202768	1499.99	90705.1
228	2.000000	1.154244	7.36728e+06	-50039.1	955.821	-29757.4	0.000000	0.000000	7.170062	378.096	NaN	0.000000	0.001592	0.001730	28.0775	90.2505	0.001838	49096.4	4.865428	171.576	381.799	1.153885	0.094103	0.093744	378.096	49096.4	0.088328	0.246530	1533.67	90341.5
228	2.000000	1.164110	7.36728e+06	-50039.1	955.82	-29757.4	0.000000	0.000000	7.183208	457.876	NaN	0.000000	0.001569	0.001656	28.0776	98.9482	0.001693	58442.6	1.968188	173.319	453.592	1.163941	0.103969	0.103800	457.876	58442.6	0.098093	0.296797	1542.72	98010.5
228	2.000000	1.170183	7.36728e+06	-50039.1	955.821	-29757.4	0.000000	0.000000	7.191327	507.626	NaN	0.000000	0.001612	0.001695	28.0786	105.205	0.001789	58822.4	6.647287	168.738	506.026	1.169823	0.110043	0.109682	507.626	58822.4	0.103570	0.326890	1552.89	93997.2