Folder: unikorn_login/remote_trans/data/nanoindenter/0828-1/data/Data_2025-08-06,11h17m57s (part 38)

File: 2025-07-22_16-23-58_1_74.txt
2025-07-22, 16:23:58, 1
Index	Phase	Displacement	Time	Pos X	Pos Y	Pos Z	Rot A	Rot B	Piezo Z	Force A	Force B	Gripper	Voltage A	Voltage B	Temperature	Amplitude force	Amplitude pos	Stiffness	Phase shift	Phase excitation	Force A raw	Displacement raw	HMax	HMax raw	Real Force	Real Stiffness	Contact Depth	Area	Hardness	Reduced Mod.
[#]	[#]	[um]	[s]	[um]	[um]	[um]	[m°]	[m°]	[um]	[uN]	[uN]	[V]	[V]	[V]	[°C]	[uN]	[um]	[N/m]	[°]	[°]	[uN]	[um]	[um]	[um]	[uN]	[N/m]	[um]	[um^2]	[MPa]	[MPa]
74	1.000000	0.002747	7.36577e+06	-42339.1	955.818	-29783.5	0.000000	0.000000	6.002828	0.003130	NaN	0.000000	0.001587	0.001694	28.1317	0.062927	0.000864	72.8188	48.4915	-166.088	-0.014380	0.001435	-1.069785	-1.071097	0.003130	72.8188	-1.069817	-1.971192E+14	-1.587641E-17	NaN
74	1.000000	0.042677	7.36577e+06	-42339.1	955.818	-29783.6	0.000000	0.000000	6.042758	0.021610	NaN	0.000000	0.001545	0.001695	28.1328	0.075083	0.001961	38.2841	-118.606	-163.738	0.072650	0.041397	-1.029855	-1.031135	0.021610	38.2841	-1.030278	-5.797196E+13	-3.727584E-16	NaN
74	1.000000	0.082680	7.36577e+06	-42339.1	955.818	-29783.6	0.000000	0.000000	6.082762	0.054047	NaN	0.000000	0.001545	0.001680	28.1304	0.073294	0.001930	37.9833	129.225	-167.263	0.008168	0.081388	-0.989852	-0.991144	0.054047	37.9833	-0.990919	-1.711952E+13	-3.157040E-15	NaN
74	1.000000	0.122718	7.36577e+06	-42339.1	955.818	-29783.6	0.000000	0.000000	6.122800	0.022099	NaN	0.000000	0.001542	0.001648	28.1316	0.100670	0.002001	50.3142	1.074279	-167.759	-0.004055	0.121402	-0.949813	-0.951129	0.022099	50.3142	-0.950143	-4.830086E+12	-4.575194E-15	NaN
74	1.000000	0.162725	7.36577e+06	-42339.1	955.818	-29783.6	0.000000	0.000000	6.162803	-0.056377	NaN	0.000000	0.001579	0.001685	28.131	0.072045	0.001794	40.1555	-23.2809	-164.672	-0.047759	0.161410	-0.909806	-0.911122	-0.056377	40.1555	-0.908753	-1.334518E+12	4.224536E-14	NaN
74	1.000000	0.202758	7.36577e+06	-42339.1	955.818	-29783.6	0.000000	0.000000	6.202837	-0.021598	NaN	0.000000	0.001556	0.001677	28.1335	0.051989	0.002061	25.2261	-158.445	-165.187	0.028115	0.201402	-0.869774	-0.871130	-0.021598	25.2261	-0.869132	-3.887723E+11	5.555477E-14	NaN
74	1.000000	0.242751	7.36577e+06	-42339.1	955.818	-29783.6	0.000000	0.000000	6.242831	-0.020810	NaN	0.000000	0.001572	0.001717	28.1318	0.201340	0.001995	100.915	47.7157	-160.387	0.037853	0.241430	-0.829780	-0.831102	-0.020810	100.915	-0.829626	-1.134253E+11	1.834653E-13	NaN
74	1.000000	0.282775	7.36577e+06	-42339.1	955.818	-29783.6	0.000000	0.000000	6.282854	-0.036843	NaN	0.000000	0.001631	0.001655	28.1326	0.024525	0.001923	12.7538	-82.5135	-166.876	-0.053890	0.281457	-0.789757	-0.791075	-0.036843	12.7538	-0.787590	-3.050388E+10	1.207800E-12	NaN
74	1.000000	0.322794	7.36577e+06	-42339.1	955.818	-29783.6	0.000000	0.000000	6.322874	-0.012661	NaN	0.000000	0.001561	0.001676	28.1323	0.168321	0.002036	82.6777	-1.263996	-162.187	-0.142227	0.321496	-0.749738	-0.751036	-0.012661	82.6777	-0.749623	-9.291474E+9	1.362672E-12	NaN
74	1.000000	0.362808	7.36577e+06	-42339.1	955.818	-29783.6	0.000000	0.000000	6.362891	0.062648	NaN	0.000000	0.001543	0.001678	28.1317	0.051955	0.001982	26.207	-61.2078	-163.066	0.132273	0.361497	-0.709724	-0.711035	0.062648	26.207	-0.711517	-2.810263E+9	-2.229255E-11	NaN
74	1.000000	0.402823	7.36577e+06	-42339.1	955.818	-29783.6	0.000000	0.000000	6.402900	-0.086632	NaN	0.000000	0.001600	0.001697	28.1304	0.032284	0.002104	15.3403	-75.3286	-164.972	-0.107778	0.401465	-0.669708	-0.671067	-0.086632	15.3403	-0.665473	-6.598080E+8	1.312987E-10	NaN
74	1.000000	0.442854	7.36577e+06	-42339.1	955.817	-29783.6	0.000000	0.000000	6.442934	-0.012536	NaN	0.000000	0.001612	0.001668	28.1315	0.152280	0.001920	79.3169	-149.368	-166.243	-0.034551	0.441544	-0.629677	-0.630988	-0.012536	79.3169	-0.629559	-2.123059E+8	5.904477E-11	NaN
74	1.000000	0.482857	7.36577e+06	-42339.1	955.819	-29783.6	0.000000	0.000000	6.482935	-0.059550	NaN	0.000000	0.001590	0.001691	28.1317	0.063824	0.002095	30.4626	-51.9565	-164.129	-0.056779	0.481569	-0.589675	-0.590963	-0.059550	30.4626	-0.588208	-5.727488E+7	1.039722E-9	NaN
74	1.000000	0.522884	7.36577e+06	-42339.1	955.819	-29783.6	0.000000	0.000000	6.522967	0.054842	NaN	0.000000	0.001598	0.001665	28.1334	0.089225	0.001860	47.9636	-77.3368	-161.666	0.037692	0.521533	-0.549647	-0.550999	0.054842	47.9636	-0.550505	-1.725636E+7	-3.178054E-9	NaN
74	1.000000	0.562870	7.36577e+06	-42339.1	955.819	-29783.6	0.000000	0.000000	6.562951	-0.005700	NaN	0.000000	0.001577	0.001666	28.132	0.087433	0.002003	43.6508	-50.1074	-167.939	0.005233	0.561539	-0.509661	-0.510993	-0.005700	43.6508	-0.509563	-4.65943e+06	1.223281E-9	NaN
74	1.000000	0.602922	7.36577e+06	-42339.1	955.818	-29783.6	0.000000	0.000000	6.602999	-0.079221	NaN	0.000000	0.001559	0.001636	28.132	0.046493	0.001994	23.3172	-68.0086	-165.742	-0.067379	0.601569	-0.469610	-0.470962	-0.079221	23.3172	-0.467062	-1.18628e+06	6.678104E-8	NaN
74	1.000000	0.642900	7.36577e+06	-42339.1	955.819	-29783.6	0.000000	0.000000	6.642980	-0.025920	NaN	0.000000	0.001578	0.001710	28.1303	0.070984	0.001961	36.1993	-12.9748	-166.873	0.011069	0.641629	-0.429631	-0.430903	-0.025920	36.1993	-0.429094	-346136	7.488316E-8	NaN
74	1.000000	0.682945	7.36577e+06	-42339.1	955.818	-29783.6	0.000000	0.000000	6.683027	0.025244	NaN	0.000000	0.001610	0.001637	28.1313	0.040920	0.001972	20.7499	-176.165	-169.504	0.109908	0.681633	-0.389587	-0.390898	0.025244	20.7499	-0.390499	-97792.2	-2.581442E-7	NaN
74	1.000000	0.722964	7.36577e+06	-42339.1	955.818	-29783.6	0.000000	0.000000	6.723044	0.005208	NaN	0.000000	0.001608	0.001649	28.1297	0.095207	0.001978	48.1382	-121.975	-164.879	0.016962	0.721668	-0.349568	-0.350864	0.005208	48.1382	-0.349649	-25229.6	-2.064253E-7	NaN
74	1.000000	0.762962	7.36577e+06	-42339.1	955.819	-29783.6	0.000000	0.000000	6.763042	-0.024538	NaN	0.000000	0.001570	0.001625	28.1317	0.107910	0.002043	52.8086	-51.3807	-168.267	-0.028181	0.761621	-0.309569	-0.310911	-0.024538	52.8086	-0.309221	-6449.43	3.804654E-6	NaN
74	1.000000	0.802989	7.36577e+06	-42339.1	955.819	-29783.6	0.000000	0.000000	6.803068	-0.033085	NaN	0.000000	0.001574	0.001618	28.131	0.061821	0.002029	30.4634	-126.421	-168.715	-0.045406	0.801692	-0.269543	-0.270840	-0.033085	30.4634	-0.268729	-1592.97	2.076971E-5	NaN
74	1.000000	0.843017	7.36577e+06	-42339.1	955.819	-29783.6	0.000000	0.000000	6.843097	-0.015333	NaN	0.000000	0.001657	0.001661	28.1324	0.034183	0.001886	18.1273	123.766	-166.961	0.028070	0.841694	-0.229515	-0.230838	-0.015333	18.1273	-0.228881	-384.441	3.988285E-5	NaN
74	1.000000	0.883021	7.36577e+06	-42339.1	955.819	-29783.6	0.000000	0.000000	6.883099	-0.052009	NaN	0.000000	0.001574	0.001632	28.1298	0.160795	0.001911	84.1554	-142.589	-164.797	-0.007105	0.881737	-0.189511	-0.190794	-0.052009	84.1554	-0.189047	-86.7151	0.000600	NaN
74	1.000000	0.923039	7.36577e+06	-42339.1	955.818	-29783.6	0.000000	0.000000	6.923120	0.003493	NaN	0.000000	0.001602	0.001640	28.1312	0.086648	0.001998	43.3777	-43.3879	-164.573	-0.048269	0.921727	-0.149493	-0.150804	0.003493	43.3777	-0.149553	-17.7766	-0.000197	NaN
74	1.000000	0.963028	7.36577e+06	-42339.1	955.818	-29783.6	0.000000	0.000000	6.963109	0.004398	NaN	0.000000	0.001586	0.001675	28.1299	0.027705	0.001830	15.1436	113.599	-163.683	0.065819	0.961729	-0.109504	-0.110802	0.004398	15.1436	-0.109721	-2.964791	-0.001483	NaN
74	1.000000	1.003070	7.36577e+06	-42339.1	955.818	-29783.6	0.000000	0.000000	7.003151	-0.003497	NaN	0.000000	0.001599	0.001590	28.1317	0.027960	0.002055	13.6031	110.335	-164.662	0.077489	1.001772	-0.069461	-0.070760	-0.003497	13.6031	-0.069269	-0.326022	0.010727	NaN
74	1.000000	1.043068	7.36577e+06	-42339.1	955.819	-29783.6	0.000000	0.000000	7.043147	-0.015096	NaN	0.000000	0.001586	0.001684	28.1314	0.062986	0.001990	31.6438	-129.461	-164.016	0.025138	1.041797	-0.029464	-0.030735	-0.015096	31.6438	-0.029106	-0.021738	0.694481	NaN
74	2.000000	1.081693	7.36577e+06	-42339.1	955.818	-29783.6	0.000000	0.000000	7.082120	8.422860	NaN	0.000000	0.001526	0.001657	28.1321	8.169009	0.001743	4687.64	6.803597	-170.59	8.876841	1.081301	0.009162	0.008769	8.422860	4687.64	0.007814	0.006852	1229.32	51740.5
74	2.000000	1.091607	7.36577e+06	-42339.1	955.817	-29783.6	0.000000	0.000000	7.093070	33.638	NaN	0.000000	0.001583	0.001632	28.1307	19.3512	0.001894	10218.5	4.112844	-173.981	32.3053	1.091365	0.019075	0.018833	33.638	10218.5	0.016606	0.017487	1923.57	70598.9
74	2.000000	1.101610	7.36577e+06	-42339.1	955.818	-29783.6	0.000000	0.000000	7.104021	56.6918	NaN	0.000000	0.001550	0.001685	28.1306	29.0565	0.001755	16559.5	4.032083	-179.728	57.6655	1.101287	0.029078	0.028755	56.6918	16559.5	0.026511	0.033822	1676.2	82266.7
74	2.000000	1.111540	7.36577e+06	-42339.1	955.818	-29783.6	0.000000	0.000000	7.115323	90.0829	NaN	0.000000	0.001542	0.001681	28.1294	39.9445	0.001741	22949.6	2.419472	179.242	87.8496	1.111353	0.039008	0.038821	90.0829	22949.6	0.036064	0.054253	1660.43	90019.6
74	2.000000	1.121545	7.36577e+06	-42339.1	955.818	-29783.6	0.000000	0.000000	7.127140	134.181	NaN	0.000000	0.001568	0.001667	28.1305	51.591	0.001891	27283.1	4.496647	176.232	133.519	1.121195	0.049013	0.048663	134.181	27283.1	0.045325	0.078512	1709.05	88960.7
74	2.000000	1.131528	7.36577e+06	-42339.1	955.819	-29783.6	0.000000	0.000000	7.139377	189.031	NaN	0.000000	0.001600	0.001669	28.1291	61.6583	0.001777	34693.4	4.487611	174.278	187.734	1.131223	0.058996	0.058691	189.031	34693.4	0.054910	0.108190	1747.21	96366.4
74	2.000000	1.141540	7.36577e+06	-42339.1	955.818	-29783.6	0.000000	0.000000	7.152019	253.015	NaN	0.000000	0.001554	0.001684	28.1316	69.9562	0.001815	38549.5	1.960527	176.255	252.138	1.141278	0.069009	0.068746	253.015	38549.5	0.064086	0.140867	1796.13	93840
74	2.000000	1.151511	7.36577e+06	-42339.1	955.818	-29783.6	0.000000	0.000000	7.165014	326.584	NaN	0.000000	0.001612	0.001660	28.1304	81.3514	0.001729	47054.9	3.232411	173.874	325.826	1.151130	0.078980	0.078599	326.584	47054.9	0.073774	0.179780	1816.57	101393
74	2.000000	1.161529	7.36577e+06	-42339.1	955.819	-29783.6	0.000000	0.000000	7.178098	401.189	NaN	0.000000	0.001527	0.001666	28.1315	90.7129	0.001828	49637.7	6.000339	170.092	401.494	1.161197	0.088997	0.088666	401.189	49637.7	0.082936	0.220652	1818.19	96545.2
74	2.000000	1.171456	7.36577e+06	-42339.1	955.818	-29783.6	0.000000	0.000000	7.191058	474.973	NaN	0.000000	0.001648	0.001684	28.1289	99.1146	0.001673	59241.3	3.084285	171.671	473.047	1.171356	0.098925	0.098824	474.973	59241.3	0.092911	0.269582	1761.89	104244
74	2.000000	1.179469	7.36577e+06	-42339.1	955.819	-29783.6	0.000000	0.000000	7.202589	560.567	NaN	0.000000	0.001633	0.001690	28.1302	106.675	0.001854	57551.2	4.078988	172.183	557.939	1.178963	0.106938	0.106432	560.567	57551.2	0.099633	0.305117	1837.22	95190.7

File: 2025-07-22_16-23-58_1_75.txt
2025-07-22, 16:23:58, 1
Index	Phase	Displacement	Time	Pos X	Pos Y	Pos Z	Rot A	Rot B	Piezo Z	Force A	Force B	Gripper	Voltage A	Voltage B	Temperature	Amplitude force	Amplitude pos	Stiffness	Phase shift	Phase excitation	Force A raw	Displacement raw	HMax	HMax raw	Real Force	Real Stiffness	Contact Depth	Area	Hardness	Reduced Mod.
[#]	[#]	[um]	[s]	[um]	[um]	[um]	[m°]	[m°]	[um]	[uN]	[uN]	[V]	[V]	[V]	[°C]	[uN]	[um]	[N/m]	[°]	[°]	[uN]	[um]	[um]	[um]	[uN]	[N/m]	[um]	[um^2]	[MPa]	[MPa]
75	1.000000	0.002601	7.36578e+06	-42389.1	955.818	-29783.3	0.000000	0.000000	6.002805	0.038308	NaN	0.000000	0.001613	0.001609	28.1295	0.142263	0.001049	135.594	-84.8967	-158.109	-0.026695	0.001375	-1.149845	-1.151070	0.038308	135.594	-1.150056	-2.352757E+15	-1.628224E-17	NaN
75	1.000000	0.044557	7.36578e+06	-42389.1	955.818	-29783.3	0.000000	0.000000	6.044762	0.028128	NaN	0.000000	0.001589	0.001640	28.1078	0.092683	0.001825	50.7921	-60.8668	12.3938	0.014315	0.043170	-1.107888	-1.109275	0.028128	50.7921	-1.108303	-6.479111E+14	-4.341364E-17	NaN
75	1.000000	0.086559	7.36578e+06	-42389.1	955.819	-29783.3	0.000000	0.000000	6.086763	0.028204	NaN	0.000000	0.001624	0.001583	28.079	0.017662	0.002072	8.522592	139.67	-167.815	-0.013707	0.085224	-1.065886	-1.067222	0.028204	8.522592	-1.068368	-1.884814E+14	-1.496400E-16	NaN
75	1.000000	0.128617	7.36578e+06	-42389.1	955.818	-29783.3	0.000000	0.000000	6.128824	0.104624	NaN	0.000000	0.001605	0.001662	28.0905	0.036649	0.001985	18.4597	-147.99	10.5179	0.101949	0.127187	-1.023829	-1.025259	0.104624	18.4597	-1.028080	-5.415614E+13	-1.931892E-15	NaN
75	1.000000	0.170632	7.36578e+06	-42389.1	955.818	-29783.3	0.000000	0.000000	6.170838	0.072025	NaN	0.000000	0.001676	0.001675	28.1285	0.074255	0.001925	38.5801	27.3386	-166.067	0.066222	0.169255	-0.981813	-0.983190	0.072025	38.5801	-0.983213	-1.348024E+13	-5.342995E-15	NaN
75	1.000000	0.212638	7.36578e+06	-42389.1	955.818	-29783.3	0.000000	0.000000	6.212842	0.023723	NaN	0.000000	0.001649	0.001657	28.1079	0.047687	0.002043	23.34	100.419	15.9483	-0.031415	0.211290	-0.939807	-0.941156	0.023723	23.34	-0.940569	-3.587737E+12	-6.612211E-15	NaN
75	1.000000	0.254600	7.36578e+06	-42389.1	955.818	-29783.3	0.000000	0.000000	6.254802	-0.047633	NaN	0.000000	0.001655	0.001634	28.0815	0.037759	0.002049	18.4252	-109.175	-164.707	0.093977	0.253342	-0.897845	-0.899103	-0.047633	18.4252	-0.895906	-8.948362E+11	5.323107E-14	NaN
75	1.000000	0.296669	7.36578e+06	-42389.1	955.818	-29783.3	0.000000	0.000000	6.296872	-0.013436	NaN	0.000000	0.001661	0.001660	28.0908	0.045060	0.002026	22.2405	38.7646	10.4548	0.019345	0.295264	-0.855776	-0.857182	-0.013436	22.2405	-0.855323	-2.528173E+11	5.314644E-14	NaN
75	1.000000	0.338675	7.36578e+06	-42389.1	955.818	-29783.3	0.000000	0.000000	6.338880	0.049827	NaN	0.000000	0.001590	0.001660	28.1291	0.081042	0.002035	39.8233	125.286	-165.031	0.021062	0.337372	-0.813770	-0.815073	0.049827	39.8233	-0.814709	-7.119512E+10	-6.998675E-13	NaN
75	1.000000	0.380690	7.36578e+06	-42389.1	955.819	-29783.3	0.000000	0.000000	6.380893	0.002026	NaN	0.000000	0.001526	0.001655	28.108	0.079350	0.001938	40.9395	-125.692	11.4075	0.001597	0.379263	-0.771756	-0.773183	0.002026	40.9395	-0.771793	-1.860718E+10	-1.088921E-13	NaN
75	1.000000	0.422704	7.36578e+06	-42389.1	955.818	-29783.3	0.000000	0.000000	6.422910	0.066166	NaN	0.000000	0.001576	0.001670	28.0798	0.031961	0.001877	17.0268	-175.31	-166.88	0.012186	0.421448	-0.729742	-0.730998	0.066166	17.0268	-0.732656	-5.457645E+9	-1.212345E-11	NaN
75	1.000000	0.464723	7.36578e+06	-42389.1	955.818	-29783.3	0.000000	0.000000	6.464930	0.080615	NaN	0.000000	0.001606	0.001595	28.089	0.095697	0.001985	48.2062	89.6588	13.8746	-0.008922	0.463373	-0.687722	-0.689072	0.080615	48.2062	-0.688976	-1.383343E+9	-5.827528E-11	NaN
75	1.000000	0.506756	7.36578e+06	-42389.1	955.819	-29783.3	0.000000	0.000000	6.506959	0.012996	NaN	0.000000	0.001586	0.001663	28.1279	0.120854	0.002083	58.0202	80.7009	-166.969	0.029615	0.505421	-0.645690	-0.647025	0.012996	58.0202	-0.645858	-3.553368E+8	-3.657289E-11	NaN
75	1.000000	0.548755	7.36578e+06	-42389.1	955.819	-29783.3	0.000000	0.000000	6.548959	0.027158	NaN	0.000000	0.001577	0.001642	28.11	0.123976	0.002088	59.3809	-170.85	11.9766	0.052789	0.547372	-0.603691	-0.605073	0.027158	59.3809	-0.604034	-9.462440E+7	-2.870081E-10	NaN
75	1.000000	0.590776	7.36578e+06	-42389.1	955.818	-29783.3	0.000000	0.000000	6.590980	0.014768	NaN	0.000000	0.001589	0.001673	28.0817	0.026244	0.001904	13.7848	10.5512	-166.413	-0.015791	0.589501	-0.561669	-0.562945	0.014768	13.7848	-0.562473	-2.526841E+7	-5.844323E-10	NaN
75	1.000000	0.632781	7.36578e+06	-42389.1	955.819	-29783.3	0.000000	0.000000	6.632988	0.075366	NaN	0.000000	0.001675	0.001603	28.0885	0.065902	0.002097	31.425	31.3856	14.6796	0.052665	0.631433	-0.519664	-0.521012	0.075366	31.425	-0.521463	-6.82243e+06	-1.104679E-8	NaN
75	1.000000	0.674783	7.36578e+06	-42389.1	955.817	-29783.3	0.000000	0.000000	6.674986	0.006321	NaN	0.000000	0.001563	0.001619	28.1272	0.043949	0.001966	22.3491	-48.3116	-167.62	-0.002548	0.673509	-0.477663	-0.478937	0.006321	22.3491	-0.477875	-1.68178e+06	-3.758410E-9	NaN
75	1.000000	0.716827	7.36578e+06	-42389.1	955.819	-29783.3	0.000000	0.000000	6.717029	-0.024330	NaN	0.000000	0.001539	0.001672	28.109	0.102291	0.001961	52.1664	109.912	14.787	0.064743	0.715444	-0.435618	-0.437001	-0.024330	52.1664	-0.435269	-423205	5.748919E-8	NaN
75	1.000000	0.758842	7.36578e+06	-42389.1	955.818	-29783.3	0.000000	0.000000	6.759045	-0.004462	NaN	0.000000	0.001557	0.001671	28.0818	0.022348	0.002053	10.8827	-78.4729	-168.17	-0.052903	0.757606	-0.393603	-0.394839	-0.004462	10.8827	-0.393296	-107222	4.161520E-8	NaN
75	1.000000	0.800859	7.36578e+06	-42389.1	955.818	-29783.3	0.000000	0.000000	6.801064	0.045489	NaN	0.000000	0.001565	0.001714	28.0887	0.046255	0.001973	23.448	72.3597	10.2088	0.000741	0.799528	-0.351586	-0.352917	0.045489	23.448	-0.353041	-28256	-1.609868E-6	NaN
75	1.000000	0.842863	7.36578e+06	-42389.1	955.819	-29783.3	0.000000	0.000000	6.843065	-0.046552	NaN	0.000000	0.001589	0.001693	28.1284	0.082409	0.002046	40.278	72.9075	-162.896	-0.010492	0.841548	-0.309582	-0.310897	-0.046552	40.278	-0.308715	-6339.18	7.343612E-6	NaN
75	1.000000	0.884903	7.36578e+06	-42389.1	955.818	-29783.3	0.000000	0.000000	6.885110	0.090567	NaN	0.000000	0.001619	0.001699	28.1109	0.014245	0.001885	7.558776	-85.9874	14.6506	0.081411	0.883514	-0.267542	-0.268931	0.090567	7.558776	-0.276528	-2091.84	-4.329528E-5	NaN
75	1.000000	0.926896	7.36578e+06	-42389.1	955.819	-29783.3	0.000000	0.000000	6.927098	-0.033933	NaN	0.000000	0.001623	0.001744	28.0811	0.084040	0.002043	41.1432	-171.224	-165.767	0.013931	0.925559	-0.225550	-0.226886	-0.033933	41.1432	-0.224931	-332.842	0.000102	NaN
75	1.000000	0.968913	7.36578e+06	-42389.1	955.818	-29783.3	0.000000	0.000000	6.969116	0.004437	NaN	0.000000	0.001608	0.001708	28.0869	0.085838	0.001909	44.9657	-141.599	14.2344	0.014395	0.967619	-0.183533	-0.184826	0.004437	44.9657	-0.183607	-70.2452	-6.316025E-5	NaN
75	1.000000	1.010950	7.36578e+06	-42389.1	955.818	-29783.3	0.000000	0.000000	7.011155	0.034081	NaN	0.000000	0.001684	0.001745	28.1264	0.010790	0.001891	5.705866	120.143	-161.262	0.063702	1.009592	-0.141495	-0.142853	0.034081	5.705866	-0.145975	-15.2818	-0.002230	NaN
75	1.000000	1.052965	7.36578e+06	-42389.1	955.818	-29783.3	0.000000	0.000000	7.053171	0.074742	NaN	0.000000	0.001623	0.001701	28.1121	0.041948	0.001989	21.0945	-136.778	11.5171	0.039823	1.051583	-0.099481	-0.100863	0.074742	21.0945	-0.102138	-2.036578	-0.036700	NaN
75	1.000000	1.094989	7.36578e+06	-42389.1	955.816	-29783.3	0.000000	0.000000	7.095195	0.073425	NaN	0.000000	0.001554	0.001674	28.0829	0.077787	0.002105	36.9517	-94.8429	-162.935	0.034108	1.093664	-0.057456	-0.058781	0.073425	36.9517	-0.058947	-0.167949	-0.437188	NaN
75	1.000000	1.136996	7.36578e+06	-42389.1	955.818	-29783.3	0.000000	0.000000	7.137200	0.010760	NaN	0.000000	0.001618	0.001689	28.0869	0.051363	0.002222	23.1107	118.63	13.5507	0.023304	1.135612	-0.015449	-0.016833	0.010760	23.1107	-0.015798	-0.009759	-1.102586	NaN
75	2.000000	1.166549	7.36578e+06	-42389.1	955.817	-29783.3	0.000000	0.000000	7.167253	12.1925	NaN	0.000000	0.001597	0.001732	28.1261	11.6829	0.001853	6306.1	5.138741	-171.831	11.7804	1.166285	0.014104	0.013839	12.1925	6306.1	0.012654	0.012282	992.678	51986.7
75	2.000000	1.177025	7.36578e+06	-42389.1	955.817	-29783.3	0.000000	0.000000	7.178629	34.0791	NaN	0.000000	0.001672	0.001745	28.1119	21.6277	0.001793	12059.2	5.258092	1.683408	32.525	1.176644	0.024580	0.024199	34.0791	12059.2	0.022461	0.026557	1283.24	67608.1
75	2.000000	1.187484	7.36578e+06	-42389.1	955.817	-29783.3	0.000000	0.000000	7.190378	65.4688	NaN	0.000000	0.001600	0.001719	28.0822	31.4371	0.001845	17037.8	3.731188	-179.228	63.7133	1.187054	0.035038	0.034609	65.4688	17037.8	0.032157	0.045332	1444.2	73111
75	2.000000	1.197986	7.36578e+06	-42389.1	955.818	-29783.3	0.000000	0.000000	7.202469	104.132	NaN	0.000000	0.001584	0.001710	28.088	41.1582	0.001912	21525	5.005283	-1.594100	102.715	1.197564	0.045540	0.045118	104.132	21525	0.041912	0.069063	1507.78	74832.8
75	2.000000	1.208437	7.36578e+06	-42389.1	955.817	-29783.3	0.000000	0.000000	7.214963	153.846	NaN	0.000000	0.001630	0.001729	28.1263	50.9036	0.001816	28032.4	5.264039	175.525	151.406	1.208122	0.055992	0.055677	153.846	28032.4	0.051876	0.098298	1565.09	81688.5
75	2.000000	1.218942	7.36578e+06	-42389.1	955.817	-29783.3	0.000000	0.000000	7.227869	212.262	NaN	0.000000	0.001590	0.001674	28.1151	59.6235	0.001684	35396.7	3.970585	-4.980544	208.408	1.218604	0.066497	0.066159	212.262	35396.7	0.061999	0.133074	1595.06	88652
75	2.000000	1.229364	7.36578e+06	-42389.1	955.817	-29783.3	0.000000	0.000000	7.240796	273.221	NaN	0.000000	0.001620	0.001668	28.0824	72.539	0.001851	39181.1	4.711424	172.675	269.148	1.229078	0.076918	0.076633	273.221	39181.1	0.071688	0.171023	1597.57	86561
75	2.000000	1.239908	7.36578e+06	-42389.1	955.817	-29783.3	0.000000	0.000000	7.254166	341.961	NaN	0.000000	0.001580	0.001717	28.086	80.8637	0.001807	44761.5	4.213051	-7.448234	339	1.239508	0.087463	0.087063	341.961	44761.5	0.081733	0.215064	1590.04	88185
75	2.000000	1.250398	7.36578e+06	-42389.1	955.818	-29783.3	0.000000	0.000000	7.267908	421.107	NaN	0.000000	0.001589	0.001729	28.1246	90.4754	0.001827	49533.3	5.459407	170.845	420.714	1.250034	0.097952	0.097588	421.107	49533.3	0.091576	0.262768	1602.58	88284.5
75	2.000000	1.260867	7.36578e+06	-42389.1	955.817	-29783.3	0.000000	0.000000	7.281864	505.934	NaN	0.000000	0.001616	0.001785	28.1148	99.3636	0.001679	59180.6	7.025704	-12.0374	503.513	1.260616	0.108422	0.108171	505.934	59180.6	0.102010	0.318180	1590.09	95855.3