Folder: unikorn_login/remote_trans/data/nanoindenter/0828-1/data/Data_2025-08-06,11h17m57s (part 46)

File: 2025-07-22_16-23-58_1_109.txt
2025-07-22, 16:23:58, 1
Index	Phase	Displacement	Time	Pos X	Pos Y	Pos Z	Rot A	Rot B	Piezo Z	Force A	Force B	Gripper	Voltage A	Voltage B	Temperature	Amplitude force	Amplitude pos	Stiffness	Phase shift	Phase excitation	Force A raw	Displacement raw	HMax	HMax raw	Real Force	Real Stiffness	Contact Depth	Area	Hardness	Reduced Mod.
[#]	[#]	[um]	[s]	[um]	[um]	[um]	[m°]	[m°]	[um]	[uN]	[uN]	[V]	[V]	[V]	[°C]	[uN]	[um]	[N/m]	[°]	[°]	[uN]	[um]	[um]	[um]	[uN]	[N/m]	[um]	[um^2]	[MPa]	[MPa]
109	1.000000	0.002840	7.3661e+06	-44089.1	955.818	-29777.5	0.000000	0.000000	6.002835	0.083158	NaN	0.000000	0.001636	0.001632	28.0787	0.069985	0.000949	73.7255	93.8194	-166.732	0.048808	0.001579	-1.010481	-1.011742	0.083158	73.7255	-1.011327	-3.222821E+13	-2.580276E-15	NaN
109	1.000000	0.040780	7.3661e+06	-44089.1	955.818	-29777.5	0.000000	0.000000	6.040775	0.093497	NaN	0.000000	0.001658	0.001660	28.0939	0.094034	0.002145	43.8412	174.721	11.5873	0.094227	0.039390	-0.972540	-0.973931	0.093497	43.8412	-0.974140	-1.017301E+13	-9.190718E-15	NaN
109	1.000000	0.078788	7.3661e+06	-44089.1	955.818	-29777.5	0.000000	0.000000	6.078779	0.003917	NaN	0.000000	0.001637	0.001636	28.1287	0.023357	0.002067	11.3011	135.06	-167.674	0.015338	0.077443	-0.934533	-0.935878	0.003917	11.3011	-0.934793	-2.998326E+12	-1.306363E-15	NaN
109	1.000000	0.116784	7.36611e+06	-44089.1	955.818	-29777.5	0.000000	0.000000	6.116780	0.106946	NaN	0.000000	0.001575	0.001670	28.0981	0.081604	0.001970	41.4186	96.1701	13.1187	0.108693	0.115422	-0.896537	-0.897899	0.106946	41.4186	-0.898473	-9.692489E+11	-1.103391E-13	NaN
109	1.000000	0.154806	7.36611e+06	-44089.1	955.818	-29777.5	0.000000	0.000000	6.154801	0.075684	NaN	0.000000	0.001564	0.001707	28.0806	0.034675	0.002045	16.9524	-1.163748	-164.565	0.069708	0.153455	-0.858514	-0.859865	0.075684	16.9524	-0.861863	-3.099778E+11	-2.441609E-13	NaN
109	1.000000	0.192791	7.36611e+06	-44089.1	955.818	-29777.5	0.000000	0.000000	6.192784	0.042346	NaN	0.000000	0.001560	0.001725	28.0957	0.042554	0.002025	21.0154	-168.877	8.865272	0.015068	0.191481	-0.820529	-0.821839	0.042346	21.0154	-0.822040	-8.951159E+10	-4.730777E-13	NaN
109	1.000000	0.230851	7.36611e+06	-44089.1	955.818	-29777.5	0.000000	0.000000	6.230845	0.068539	NaN	0.000000	0.001531	0.001729	28.1304	0.145104	0.001920	75.5652	-30.196	-166.292	0.060449	0.229503	-0.782470	-0.783817	0.068539	75.5652	-0.783150	-2.654812E+10	-2.581680E-12	NaN
109	1.000000	0.268839	7.36611e+06	-44089.1	955.819	-29777.5	0.000000	0.000000	6.268831	0.014714	NaN	0.000000	0.001563	0.001696	28.0953	0.157752	0.002180	72.3677	-23.1146	14.8375	0.010816	0.267549	-0.744481	-0.745771	0.014714	72.3677	-0.744634	-7.946206E+9	-1.851714E-12	NaN
109	1.000000	0.306876	7.36611e+06	-44089.1	955.818	-29777.5	0.000000	0.000000	6.306872	0.102690	NaN	0.000000	0.001578	0.001694	28.0801	0.041812	0.002031	20.5837	114.745	-163.592	0.042028	0.305558	-0.706444	-0.707762	0.102690	20.5837	-0.710186	-2.695154E+9	-3.810188E-11	NaN
109	1.000000	0.344890	7.36611e+06	-44089.1	955.819	-29777.5	0.000000	0.000000	6.344883	0.035828	NaN	0.000000	0.001578	0.001689	28.0956	0.071140	0.001972	36.0831	175.507	13.6577	0.023035	0.343520	-0.668431	-0.669800	0.035828	36.0831	-0.669175	-7.414855E+8	-4.831872E-11	NaN
109	1.000000	0.382892	7.36611e+06	-44089.1	955.818	-29777.5	0.000000	0.000000	6.382886	0.069914	NaN	0.000000	0.001575	0.001668	28.1301	0.078103	0.001982	39.4079	-168.802	-167.216	0.043897	0.381608	-0.630429	-0.631713	0.069914	39.4079	-0.631760	-2.276064E+8	-3.071709E-10	NaN
109	1.000000	0.420912	7.36611e+06	-44089.1	955.819	-29777.5	0.000000	0.000000	6.420906	0.063561	NaN	0.000000	0.001591	0.001653	28.0967	0.078975	0.002044	38.6316	-155.895	14.5726	0.009901	0.419584	-0.592408	-0.593737	0.063561	38.6316	-0.593642	-6.805723E+7	-9.339393E-10	NaN
109	1.000000	0.458942	7.36611e+06	-44089.1	955.819	-29777.5	0.000000	0.000000	6.458936	0.071945	NaN	0.000000	0.001590	0.001604	28.0792	0.044682	0.001892	23.6172	-51.8482	-165.645	0.010835	0.457643	-0.554379	-0.555677	0.071945	23.6172	-0.556664	-2.099978E+7	-3.426004E-9	NaN
109	1.000000	0.496943	7.36611e+06	-44089.1	955.818	-29777.5	0.000000	0.000000	6.496939	0.121458	NaN	0.000000	0.001556	0.001687	28.0965	0.063624	0.002018	31.5309	62.4066	14.7509	0.133639	0.495606	-0.516378	-0.517714	0.121458	31.5309	-0.519267	-6.35919e+06	-1.909967E-8	NaN
109	1.000000	0.534959	7.36611e+06	-44089.1	955.819	-29777.5	0.000000	0.000000	6.534953	0.069728	NaN	0.000000	0.001550	0.001657	28.1292	0.038035	0.001865	20.3941	-88.7847	-164.937	0.055049	0.533588	-0.478361	-0.479732	0.069728	20.3941	-0.480926	-1.8556e+06	-3.757728E-8	NaN
109	1.000000	0.572981	7.36611e+06	-44089.1	955.818	-29777.5	0.000000	0.000000	6.572972	-0.005287	NaN	0.000000	0.001583	0.001622	28.0943	0.084597	0.002028	41.7051	-142.227	14.0565	-0.050259	0.571595	-0.440339	-0.441726	-0.005287	41.7051	-0.440244	-497517	1.062697E-8	NaN
109	1.000000	0.611008	7.36611e+06	-44089.1	955.819	-29777.5	0.000000	0.000000	6.611002	0.059493	NaN	0.000000	0.001639	0.001633	28.0798	0.071975	0.002035	35.3651	13.1547	-165.356	0.048438	0.609689	-0.402312	-0.403632	0.059493	35.3651	-0.403574	-150292	-3.958492E-7	NaN
109	1.000000	0.649004	7.36611e+06	-44089.1	955.818	-29777.5	0.000000	0.000000	6.649000	0.112542	NaN	0.000000	0.001555	0.001690	28.0959	0.086286	0.002066	41.7679	-162.706	15.9781	0.125962	0.647651	-0.364316	-0.365669	0.112542	41.7679	-0.366337	-43988.8	-2.558431E-6	NaN
109	1.000000	0.687036	7.36611e+06	-44089.1	955.819	-29777.5	0.000000	0.000000	6.687027	-0.018285	NaN	0.000000	0.001559	0.001611	28.1304	0.033533	0.002017	16.6268	-35.6063	-168.509	-0.014426	0.685661	-0.326284	-0.327660	-0.018285	16.6268	-0.325460	-11191.3	1.633887E-6	NaN
109	1.000000	0.725059	7.36611e+06	-44089.1	955.818	-29777.5	0.000000	0.000000	6.725052	0.046396	NaN	0.000000	0.001617	0.001609	28.094	0.015710	0.002083	7.542030	136.695	12.7344	0.045770	0.723690	-0.288262	-0.289630	0.046396	7.542030	-0.292876	-3684.19	-1.259325E-5	NaN
109	1.000000	0.763053	7.36611e+06	-44089.1	955.819	-29777.5	0.000000	0.000000	6.763049	0.111615	NaN	0.000000	0.001511	0.001674	28.0806	0.076102	0.002046	37.1873	53.2022	-163.684	0.027634	0.761725	-0.250268	-0.251595	0.111615	37.1873	-0.252519	-899.242	-0.000124	NaN
109	1.000000	0.801066	7.36611e+06	-44089.1	955.818	-29777.5	0.000000	0.000000	6.801059	0.038805	NaN	0.000000	0.001566	0.001685	28.0978	0.060681	0.001963	30.9173	6.704188	13.1321	0.052345	0.799715	-0.212255	-0.213606	0.038805	30.9173	-0.213196	-216.005	-0.000180	NaN
109	1.000000	0.839088	7.36611e+06	-44089.1	955.818	-29777.5	0.000000	0.000000	6.839080	0.034966	NaN	0.000000	0.001526	0.001655	28.1277	0.093335	0.002047	45.5929	-145.14	-166.723	0.093556	0.837776	-0.174233	-0.175545	0.034966	45.5929	-0.174808	-49.737	-0.000703	NaN
109	1.000000	0.877077	7.36611e+06	-44089.1	955.818	-29777.5	0.000000	0.000000	6.877071	0.050517	NaN	0.000000	0.001538	0.001672	28.0928	0.030667	0.002038	15.0449	-72.4925	13.3751	0.080997	0.875739	-0.136243	-0.137582	0.050517	15.0449	-0.138761	-11.2113	-0.004506	NaN
109	1.000000	0.915127	7.36611e+06	-44089.1	955.818	-29777.5	0.000000	0.000000	6.915116	-0.043615	NaN	0.000000	0.001568	0.001677	28.0775	0.094526	0.001786	52.9166	-120.772	-168.697	-0.061112	0.913805	-0.098194	-0.099516	-0.043615	52.9166	-0.097576	-1.613163	0.027037	NaN
109	1.000000	0.953128	7.36611e+06	-44089.1	955.818	-29777.5	0.000000	0.000000	6.953122	0.057515	NaN	0.000000	0.001584	0.001668	28.0998	0.125613	0.001953	64.3084	-104.278	14.7763	0.076927	0.951809	-0.060192	-0.061512	0.057515	64.3084	-0.060863	-0.190627	-0.301714	NaN
109	1.000000	0.991174	7.36611e+06	-44089.1	955.818	-29777.5	0.000000	0.000000	6.991164	-0.031402	NaN	0.000000	0.001588	0.001657	28.1286	0.059801	0.002067	28.9365	-117.623	-168.133	-0.003933	0.989859	-0.022147	-0.023461	-0.031402	28.9365	-0.021333	-0.013580	2.312450	NaN
109	2.000000	1.024266	7.36611e+06	-44089.1	955.818	-29777.5	0.000000	0.000000	7.024676	10.1869	NaN	0.000000	0.001631	0.001638	28.094	10.1923	0.001627	6264.19	5.583923	7.119069	10.1509	1.023932	0.010945	0.010612	10.1869	6264.19	0.009726	0.008878	1147.41	60740.2
109	2.000000	1.033715	7.36611e+06	-44089.1	955.818	-29777.5	0.000000	0.000000	7.034725	24.777	NaN	0.000000	0.001642	0.001640	28.0775	19.9602	0.001727	11557	9.821116	179.884	25.6563	1.033341	0.020394	0.020021	24.777	11557	0.018786	0.020671	1198.63	73440.6
109	2.000000	1.043152	7.36611e+06	-44089.1	955.818	-29777.5	0.000000	0.000000	7.045041	46.1664	NaN	0.000000	0.001559	0.001633	28.0998	28.6327	0.001666	17185.8	6.328250	-2.323834	44.7021	1.042823	0.029831	0.029502	46.1664	17185.8	0.027817	0.036340	1270.42	82367
109	2.000000	1.052663	7.36611e+06	-44089.1	955.818	-29777.5	0.000000	0.000000	7.055659	73.1017	NaN	0.000000	0.001576	0.001603	28.1272	39.0624	0.001771	22059.9	4.998602	177.367	74.0602	1.052380	0.039342	0.039059	73.1017	22059.9	0.036857	0.056158	1301.71	85049.2
109	2.000000	1.062072	7.36611e+06	-44089.1	955.818	-29777.5	0.000000	0.000000	7.066637	111.27	NaN	0.000000	0.001573	0.001673	28.0922	46.9745	0.001819	25824.8	6.397821	-5.319006	107.824	1.061684	0.048751	0.048363	111.27	25824.8	0.045520	0.079070	1407.24	83908.4
109	2.000000	1.071583	7.36611e+06	-44089.1	955.818	-29777.5	0.000000	0.000000	7.077844	152.541	NaN	0.000000	0.001565	0.001621	28.0793	56.4355	0.001878	30043.3	7.796025	172.52	150.903	1.071186	0.058262	0.057866	152.541	30043.3	0.054454	0.106676	1429.95	84040.2
109	2.000000	1.081048	7.36611e+06	-44089.1	955.818	-29777.5	0.000000	0.000000	7.089116	196.503	NaN	0.000000	0.001533	0.001709	28.1015	66.1083	0.001795	36828.3	4.060392	-6.471614	192.198	1.080766	0.067728	0.067445	196.503	36828.3	0.063726	0.139507	1408.56	90086
109	2.000000	1.090580	7.36611e+06	-44089.1	955.818	-29777.5	0.000000	0.000000	7.101049	254.898	NaN	0.000000	0.001543	0.001640	28.1287	75.7866	0.001898	39929.2	4.186308	172.735	252.799	1.090263	0.077260	0.076942	254.898	39929.2	0.072472	0.174290	1462.5	87383.1
109	2.000000	1.100033	7.36611e+06	-44089.1	955.819	-29777.5	0.000000	0.000000	7.113340	323.947	NaN	0.000000	0.001558	0.001655	28.0922	81.606	0.001774	45995.7	3.816558	-7.389056	318.33	1.099629	0.086713	0.086308	323.947	45995.7	0.081431	0.213669	1516.12	90911.7
109	2.000000	1.109619	7.36611e+06	-44089.1	955.819	-29777.5	0.000000	0.000000	7.125305	381.823	NaN	0.000000	0.001507	0.001664	28.078	91.7529	0.001710	53659.6	5.603397	169.933	384.951	1.109200	0.096299	0.095880	381.823	53659.6	0.090962	0.259661	1470.47	96209.4
109	2.000000	1.119047	7.36611e+06	-44089.1	955.82	-29777.5	0.000000	0.000000	7.137743	455.054	NaN	0.000000	0.001563	0.001662	28.1016	101.025	0.001889	53487.8	3.827717	-7.969517	453.966	1.118641	0.105726	0.105320	455.054	53487.8	0.099346	0.303559	1499.06	88696.5
109	2.000000	1.121025	7.36611e+06	-44089.1	955.819	-29777.5	0.000000	0.000000	7.140185	466.368	NaN	0.000000	0.001566	0.001648	28.1008	102.822	0.001745	58912.8	2.948857	-8.596236	461.194	1.120732	0.107704	0.107411	466.368	58912.8	0.101767	0.316832	1471.97	95624.2

File: 2025-07-22_16-23-58_1_110.txt
2025-07-22, 16:23:58, 1
Index	Phase	Displacement	Time	Pos X	Pos Y	Pos Z	Rot A	Rot B	Piezo Z	Force A	Force B	Gripper	Voltage A	Voltage B	Temperature	Amplitude force	Amplitude pos	Stiffness	Phase shift	Phase excitation	Force A raw	Displacement raw	HMax	HMax raw	Real Force	Real Stiffness	Contact Depth	Area	Hardness	Reduced Mod.
[#]	[#]	[um]	[s]	[um]	[um]	[um]	[m°]	[m°]	[um]	[uN]	[uN]	[V]	[V]	[V]	[°C]	[uN]	[um]	[N/m]	[°]	[°]	[uN]	[um]	[um]	[um]	[uN]	[N/m]	[um]	[um^2]	[MPa]	[MPa]
110	1.000000	0.002252	7.36611e+06	-44139.1	955.819	-29777.2	0.000000	0.000000	6.002791	0.047188	NaN	0.000000	0.001562	0.001653	28.1074	0.035645	0.000911	39.1078	-164.136	-163.142	-0.020186	0.000991	-1.047797	-1.049057	0.047188	39.1078	-1.048702	-1.025557E+14	-4.601245E-16	NaN
110	1.000000	0.042202	7.36611e+06	-44139.1	955.819	-29777.2	0.000000	0.000000	6.042738	-0.048767	NaN	0.000000	0.001558	0.001654	28.1052	0.078708	0.001963	40.0906	-170.281	-167.217	-0.070332	0.040921	-1.007846	-1.009127	-0.048767	40.0906	-1.006934	-2.812648E+13	1.733830E-15	NaN
110	1.000000	0.082234	7.36611e+06	-44139.1	955.819	-29777.2	0.000000	0.000000	6.082770	-0.034905	NaN	0.000000	0.001586	0.001618	28.1066	0.096727	0.001848	52.3547	-110.704	-161.228	-0.016164	0.080842	-0.967814	-0.969206	-0.034905	52.3547	-0.967314	-8.231241E+12	4.240591E-15	NaN
110	1.000000	0.122263	7.36611e+06	-44139.1	955.818	-29777.2	0.000000	0.000000	6.122803	0.046378	NaN	0.000000	0.001630	0.001673	28.1054	0.014813	0.002102	7.047503	92.8394	-164.765	0.095754	0.120976	-0.927785	-0.929072	0.046378	7.047503	-0.932720	-2.811329E+12	-1.649681E-14	NaN
110	1.000000	0.162252	7.36611e+06	-44139.1	955.818	-29777.2	0.000000	0.000000	6.162788	-0.033462	NaN	0.000000	0.001588	0.001699	28.1086	0.025555	0.001953	13.0877	16.0868	-165.089	-0.001819	0.160943	-0.887796	-0.889105	-0.033462	13.0877	-0.885879	-6.549393E+11	5.109136E-14	NaN
110	1.000000	0.202283	7.36611e+06	-44139.1	955.819	-29777.2	0.000000	0.000000	6.202818	-0.060393	NaN	0.000000	0.001582	0.001699	28.107	0.077858	0.002014	38.6625	-95.3559	-166.176	-0.035483	0.200968	-0.847766	-0.849081	-0.060393	38.6625	-0.846594	-1.925811E+11	3.135993E-13	NaN
110	1.000000	0.242292	7.36612e+06	-44139.1	955.818	-29777.2	0.000000	0.000000	6.242831	0.027143	NaN	0.000000	0.001560	0.001669	28.1083	0.134703	0.002033	66.2438	-164.356	-164.396	0.076770	0.241004	-0.807756	-0.809045	0.027143	66.2438	-0.808063	-5.784843E+10	-4.692144E-13	NaN
110	1.000000	0.282342	7.36612e+06	-44139.1	955.818	-29777.2	0.000000	0.000000	6.282883	0.077250	NaN	0.000000	0.001605	0.001689	28.1066	0.087027	0.001898	45.8629	132.795	-167.111	0.104357	0.281013	-0.767706	-0.769036	0.077250	45.8629	-0.768969	-1.703295E+10	-4.535316E-12	NaN
110	1.000000	0.322326	7.36612e+06	-44139.1	955.819	-29777.2	0.000000	0.000000	6.322863	-0.032472	NaN	0.000000	0.001586	0.001723	28.1073	0.107309	0.002064	52.0027	173.936	-167.874	-0.031439	0.321065	-0.727722	-0.728983	-0.032472	52.0027	-0.727254	-4.606519E+9	7.049175E-12	NaN
110	1.000000	0.362383	7.36612e+06	-44139.1	955.818	-29777.2	0.000000	0.000000	6.362920	-0.013459	NaN	0.000000	0.001556	0.001672	28.107	0.181995	0.001864	97.6512	47.2194	-170.049	0.059639	0.361006	-0.687665	-0.689042	-0.013459	97.6512	-0.687562	-1.323103E+9	1.017223E-11	NaN
110	1.000000	0.402357	7.36612e+06	-44139.1	955.818	-29777.2	0.000000	0.000000	6.402895	-0.005648	NaN	0.000000	0.001577	0.001682	28.1082	0.059041	0.002008	29.4016	126.256	-163.764	-0.035812	0.401051	-0.647691	-0.648997	-0.005648	29.4016	-0.647547	-3.748054E+8	1.506939E-11	NaN
110	1.000000	0.442397	7.36612e+06	-44139.1	955.818	-29777.2	0.000000	0.000000	6.442938	0.074002	NaN	0.000000	0.001556	0.001706	28.1089	0.072268	0.002066	34.9876	-110.528	-163.771	0.053698	0.441044	-0.607651	-0.609005	0.074002	34.9876	-0.609237	-1.115885E+8	-6.631665E-10	NaN
110	1.000000	0.482393	7.36612e+06	-44139.1	955.818	-29777.2	0.000000	0.000000	6.482932	0.033491	NaN	0.000000	0.001592	0.001684	28.1104	0.043592	0.002006	21.7313	-47.4086	-167.592	0.040432	0.481141	-0.567655	-0.568908	0.033491	21.7313	-0.568811	-3.091752E+7	-1.083244E-9	NaN
110	1.000000	0.522421	7.36612e+06	-44139.1	955.819	-29777.2	0.000000	0.000000	6.522960	0.041068	NaN	0.000000	0.001546	0.001697	28.1096	0.113021	0.002066	54.6946	-151.927	-164.953	-0.039805	0.521171	-0.527627	-0.528877	0.041068	54.6946	-0.528190	-8.46135e+06	-4.853574E-9	NaN
110	1.000000	0.562432	7.36612e+06	-44139.1	955.818	-29777.2	0.000000	0.000000	6.562970	0.010917	NaN	0.000000	0.001546	0.001711	28.1097	0.039359	0.002023	19.4525	-79.3072	-166.713	-0.027117	0.561077	-0.487616	-0.488971	0.010917	19.4525	-0.488037	-2.33323e+06	-4.678954E-9	NaN
110	1.000000	0.602453	7.36612e+06	-44139.1	955.818	-29777.2	0.000000	0.000000	6.602991	0.018964	NaN	0.000000	0.001562	0.001734	28.1085	0.024949	0.001936	12.8887	173.237	-171.019	-0.060605	0.601163	-0.447595	-0.448885	0.018964	12.8887	-0.448699	-654663	-2.896727E-8	NaN
110	1.000000	0.642453	7.36612e+06	-44139.1	955.819	-29777.2	0.000000	0.000000	6.642993	0.042457	NaN	0.000000	0.001562	0.001704	28.1103	0.016088	0.001976	8.142868	129.7	-165.247	0.005941	0.641161	-0.407595	-0.408888	0.042457	8.142868	-0.411506	-194898	-2.178425E-7	NaN
110	1.000000	0.682481	7.36612e+06	-44139.1	955.819	-29777.2	0.000000	0.000000	6.683021	0.061525	NaN	0.000000	0.001598	0.001707	28.1104	0.056875	0.001951	29.1444	-6.548066	-168.68	0.074468	0.681147	-0.367567	-0.368901	0.061525	29.1444	-0.369150	-48293.7	-1.273967E-6	NaN
110	1.000000	0.722502	7.36612e+06	-44139.1	955.818	-29777.2	0.000000	0.000000	6.723039	-0.003655	NaN	0.000000	0.001553	0.001721	28.1107	0.047141	0.002012	23.4302	127.341	-163.274	-0.058959	0.721165	-0.327547	-0.328883	-0.003655	23.4302	-0.327430	-11961.5	3.055507E-7	NaN
110	1.000000	0.762486	7.36612e+06	-44139.1	955.818	-29777.2	0.000000	0.000000	6.763022	-0.055206	NaN	0.000000	0.001564	0.001683	28.1101	0.069890	0.002052	34.0655	149.281	-163.788	-0.024672	0.761168	-0.287562	-0.288880	-0.055206	34.0655	-0.286347	-2941.04	1.877094E-5	NaN
110	1.000000	0.802526	7.36612e+06	-44139.1	955.818	-29777.2	0.000000	0.000000	6.803064	0.012307	NaN	0.000000	0.001579	0.001691	28.1116	0.105323	0.002009	52.429	176.611	-164.567	0.097808	0.801210	-0.247523	-0.248838	0.012307	52.429	-0.247699	-757.419	-1.624885E-5	NaN
110	1.000000	0.842541	7.36612e+06	-44139.1	955.818	-29777.2	0.000000	0.000000	6.843081	0.041814	NaN	0.000000	0.001585	0.001669	28.11	0.050846	0.002001	25.4041	31.6516	-165.103	0.019994	0.841254	-0.207507	-0.208794	0.041814	25.4041	-0.208741	-182.987	-0.000229	NaN
110	1.000000	0.882555	7.36612e+06	-44139.1	955.818	-29777.2	0.000000	0.000000	6.883092	-0.008935	NaN	0.000000	0.001579	0.001704	28.1105	0.044678	0.002057	21.7232	-76.1931	-167.902	-0.067728	0.881200	-0.167494	-0.168848	-0.008935	21.7232	-0.167185	-36.6929	0.000243	NaN
110	1.000000	0.922571	7.36612e+06	-44139.1	955.818	-29777.2	0.000000	0.000000	6.923106	-0.059689	NaN	0.000000	0.001571	0.001723	28.1099	0.068474	0.002001	34.2246	107.385	-163.617	-0.026603	0.921292	-0.127478	-0.128756	-0.059689	34.2246	-0.126170	-6.413345	0.009307	NaN
110	1.000000	0.962620	7.36612e+06	-44139.1	955.819	-29777.2	0.000000	0.000000	6.963158	0.005946	NaN	0.000000	0.001551	0.001691	28.1126	0.109065	0.001994	54.6945	-125.774	-167.096	0.055206	0.961308	-0.087429	-0.088740	0.005946	54.6945	-0.087510	-0.943956	-0.006299	NaN
110	1.000000	1.002605	7.36612e+06	-44139.1	955.819	-29777.2	0.000000	0.000000	7.003144	0.032689	NaN	0.000000	0.001559	0.001688	28.1125	0.087844	0.001918	45.7992	-54.0428	-164.923	0.043167	1.001300	-0.047444	-0.048748	0.032689	45.7992	-0.047979	-0.079235	-0.412563	NaN
110	1.000000	1.042605	7.36612e+06	-44139.1	955.818	-29777.2	0.000000	0.000000	7.043143	0.006950	NaN	0.000000	0.001537	0.001618	28.113	0.028679	0.001930	14.8577	155.669	-163.105	-0.036720	1.041338	-0.007443	-0.008710	0.006950	14.8577	-0.007794	-0.005111	-1.359779	NaN
110	2.000000	1.066287	7.36612e+06	-44139.1	955.819	-29777.2	0.000000	0.000000	7.067388	13.7148	NaN	0.000000	0.001564	0.001638	28.1128	14.2386	0.001958	7272.86	6.691555	-174.755	13.1985	1.065941	0.016238	0.015892	13.7148	7272.86	0.014824	0.015052	911.186	54161.1
110	2.000000	1.076245	7.36612e+06	-44139.1	955.82	-29777.2	0.000000	0.000000	7.078287	36.5914	NaN	0.000000	0.001573	0.001617	28.1119	24.5532	0.001841	13337.4	4.011216	-175.629	37.1743	1.075907	0.026197	0.025859	36.5914	13337.4	0.024139	0.029468	1241.72	70985.3
110	2.000000	1.086214	7.36612e+06	-44139.1	955.819	-29777.2	0.000000	0.000000	7.089503	66.9506	NaN	0.000000	0.001573	0.001636	28.1111	34.4032	0.001806	19053.7	2.799290	-179.735	64.539	1.085870	0.036165	0.035822	66.9506	19053.7	0.033530	0.048379	1383.88	79145.3
110	2.000000	1.096202	7.36612e+06	-44139.1	955.819	-29777.2	0.000000	0.000000	7.101173	107.865	NaN	0.000000	0.001507	0.001611	28.1121	45.6586	0.001824	25036.1	4.440327	177.003	106.908	1.095851	0.046154	0.045803	107.865	25036.1	0.042922	0.071799	1502.33	85365.4
110	2.000000	1.106147	7.36612e+06	-44139.1	955.819	-29777.2	0.000000	0.000000	7.113036	154.511	NaN	0.000000	0.001503	0.001606	28.1125	55.6018	0.001771	31399.7	4.894388	173.422	151.796	1.105984	0.056099	0.055936	154.511	31399.7	0.052408	0.100002	1545.08	90718.3
110	2.000000	1.116212	7.36612e+06	-44139.1	955.819	-29777.2	0.000000	0.000000	7.125715	218.111	NaN	0.000000	0.001513	0.001627	28.1141	66.3735	0.001856	35770.8	4.355345	173.489	218.132	1.115932	0.066163	0.065884	218.111	35770.8	0.061590	0.131573	1657.72	90098.7
110	2.000000	1.126153	7.36612e+06	-44139.1	955.82	-29777.2	0.000000	0.000000	7.138666	291.343	NaN	0.000000	0.001544	0.001638	28.1131	77.1803	0.001899	40646.1	8.314843	170.076	290.959	1.125673	0.076105	0.075625	291.343	40646.1	0.070729	0.167067	1743.87	90854.4
110	2.000000	1.136166	7.36612e+06	-44139.1	955.82	-29777.2	0.000000	0.000000	7.151539	360.928	NaN	0.000000	0.001543	0.001670	28.1148	87.0041	0.001764	49334	7.710390	167.832	360.327	1.135923	0.086118	0.085875	360.928	49334	0.080631	0.210001	1718.7	98357.8
110	2.000000	1.146104	7.36612e+06	-44139.1	955.819	-29777.2	0.000000	0.000000	7.165120	449.555	NaN	0.000000	0.001567	0.001631	28.1125	95.8247	0.001790	53521.4	3.237727	172.418	446.602	1.145794	0.096055	0.095746	449.555	53521.4	0.089756	0.253609	1772.63	97099.9
110	2.000000	1.156071	7.36612e+06	-44139.1	955.82	-29777.2	0.000000	0.000000	7.178647	536.15	NaN	0.000000	0.001541	0.001589	28.1139	107.494	0.001848	58181.3	7.493630	167.542	533.37	1.155819	0.106023	0.105771	536.15	58181.3	0.099112	0.302290	1773.63	96681.8
110	2.000000	1.159166	7.36612e+06	-44139.1	955.819	-29777.2	0.000000	0.000000	7.182693	559.305	NaN	0.000000	0.001523	0.001608	28.0866	109.846	0.001701	64589.1	4.471382	169.685	560.034	1.158979	0.109118	0.108931	559.305	64589.1	0.102623	0.321589	1739.19	104059