Folder: unikorn_login/remote_trans/data/nanoindenter/0828-1/data/Data_2025-08-06,11h17m57s (part 145)

File: 2025-07-22_16-23-58_1_307.txt
2025-07-22, 16:23:58, 1
Index	Phase	Displacement	Time	Pos X	Pos Y	Pos Z	Rot A	Rot B	Piezo Z	Force A	Force B	Gripper	Voltage A	Voltage B	Temperature	Amplitude force	Amplitude pos	Stiffness	Phase shift	Phase excitation	Force A raw	Displacement raw	HMax	HMax raw	Real Force	Real Stiffness	Contact Depth	Area	Hardness	Reduced Mod.
[#]	[#]	[um]	[s]	[um]	[um]	[um]	[m°]	[m°]	[um]	[uN]	[uN]	[V]	[V]	[V]	[°C]	[uN]	[um]	[N/m]	[°]	[°]	[uN]	[um]	[um]	[um]	[uN]	[N/m]	[um]	[um^2]	[MPa]	[MPa]
307	1.000000	0.002642	7.36807e+06	-53989.1	955.819	-29745	0.000000	0.000000	6.002777	-0.030642	NaN	0.000000	0.001601	0.001601	28.0788	0.057054	0.001009	56.5693	95.7916	-168.625	-0.030389	0.001416	-1.001600	-1.002827	-0.030642	56.5693	-1.001194	-2.354203E+13	1.301580E-15	NaN
307	1.000000	0.042649	7.36807e+06	-53989.1	955.819	-29745	0.000000	0.000000	6.042785	0.004383	NaN	0.000000	0.001636	0.001635	28.0792	0.123702	0.002125	58.2186	-28.0033	-165.921	0.010514	0.041304	-0.961594	-0.962939	0.004383	58.2186	-0.961650	-6.904241E+12	-6.347708E-16	NaN
307	1.000000	0.082657	7.36807e+06	-53989.1	955.819	-29745	0.000000	0.000000	6.082792	-0.014776	NaN	0.000000	0.001668	0.001649	28.0787	0.143886	0.002034	70.7428	138.724	-166.701	0.029990	0.081330	-0.921586	-0.922912	-0.014776	70.7428	-0.921429	-1.979239E+12	7.465282E-15	NaN
307	1.000000	0.122653	7.36807e+06	-53989.1	955.819	-29745	0.000000	0.000000	6.122791	0.042277	NaN	0.000000	0.001642	0.001637	28.0799	0.084974	0.001904	44.6208	-173.172	-163.534	-0.028118	0.121262	-0.881589	-0.882980	0.042277	44.6208	-0.882300	-5.858819E+11	-7.216040E-14	NaN
307	1.000000	0.162668	7.36807e+06	-53989.1	955.819	-29745	0.000000	0.000000	6.162802	-0.038203	NaN	0.000000	0.001629	0.001651	28.0797	0.059896	0.002053	29.1788	140.599	-163.376	-0.026876	0.161335	-0.841575	-0.842908	-0.038203	29.1788	-0.840593	-1.597074E+11	2.392068E-13	NaN
307	1.000000	0.202681	7.36807e+06	-53989.1	955.818	-29745	0.000000	0.000000	6.202816	-0.028402	NaN	0.000000	0.001600	0.001633	28.0797	0.197793	0.002060	95.9945	-9.498062	-165.04	-0.063355	0.201374	-0.801561	-0.802868	-0.028402	95.9945	-0.801339	-4.688571E+10	6.057676E-13	NaN
307	1.000000	0.242700	7.36807e+06	-53989.1	955.818	-29745	0.000000	0.000000	6.242836	0.011843	NaN	0.000000	0.001661	0.001625	28.0783	0.046240	0.002034	22.7362	-129.027	-162.59	0.026190	0.241365	-0.761543	-0.762877	0.011843	22.7362	-0.761933	-1.366478E+10	-8.666631E-13	NaN
307	1.000000	0.282694	7.36807e+06	-53989.1	955.817	-29745	0.000000	0.000000	6.282829	-0.033667	NaN	0.000000	0.001681	0.001667	28.0784	0.116124	0.001976	58.7809	-24.9482	-165.52	0.011085	0.281352	-0.721549	-0.722890	-0.033667	58.7809	-0.721119	-3.799564E+9	8.860866E-12	NaN
307	1.000000	0.322707	7.36807e+06	-53989.1	955.819	-29745	0.000000	0.000000	6.322843	-0.022111	NaN	0.000000	0.001659	0.001658	28.0784	0.047921	0.002009	23.8497	91.686	-163.584	0.011815	0.321441	-0.681535	-0.682801	-0.022111	23.8497	-0.680840	-1.070755E+9	2.065012E-11	NaN
307	1.000000	0.362738	7.36807e+06	-53989.1	955.819	-29745	0.000000	0.000000	6.362873	-0.031181	NaN	0.000000	0.001666	0.001640	28.0786	0.022193	0.001999	11.0999	154.423	-164.459	-0.147608	0.361392	-0.641504	-0.642850	-0.031181	11.0999	-0.639398	-2.897507E+8	1.076145E-10	NaN
307	1.000000	0.402735	7.36807e+06	-53989.1	955.819	-29745	0.000000	0.000000	6.402869	-0.057636	NaN	0.000000	0.001651	0.001700	28.0795	0.137301	0.001926	71.2761	110.953	-166.084	-0.084132	0.401421	-0.601507	-0.602822	-0.057636	71.2761	-0.600900	-8.567641E+7	6.727193E-10	NaN
307	1.000000	0.442782	7.36807e+06	-53989.1	955.819	-29745	0.000000	0.000000	6.442920	0.043824	NaN	0.000000	0.001624	0.001673	28.0795	0.013971	0.002064	6.767756	92.3383	-164.304	0.019044	0.441482	-0.561460	-0.562760	0.043824	6.767756	-0.566317	-2.855791E+7	-1.534552E-9	NaN
307	1.000000	0.482803	7.36807e+06	-53989.1	955.818	-29745	0.000000	0.000000	6.482939	-0.026323	NaN	0.000000	0.001594	0.001687	28.0796	0.059999	0.001789	33.5369	-85.3427	-163.705	0.040390	0.481474	-0.521439	-0.522768	-0.026323	33.5369	-0.520850	-6.68997e+06	3.934678E-9	NaN
307	1.000000	0.522820	7.36807e+06	-53989.1	955.818	-29745	0.000000	0.000000	6.522953	-0.073055	NaN	0.000000	0.001611	0.001708	28.0785	0.095259	0.002029	46.9404	78.7707	-167.447	-0.105010	0.521567	-0.481423	-0.482676	-0.073055	46.9404	-0.480256	-1.81595e+06	4.022966E-8	NaN
307	1.000000	0.562833	7.36807e+06	-53989.1	955.817	-29745	0.000000	0.000000	6.562968	-0.039149	NaN	0.000000	0.001627	0.001647	28.0784	0.024194	0.001926	12.5642	-143.159	-165.436	-0.039725	0.561540	-0.441409	-0.442703	-0.039149	12.5642	-0.439072	-478928	8.174221E-8	NaN
307	1.000000	0.602855	7.36807e+06	-53989.1	955.818	-29745	0.000000	0.000000	6.602990	-0.045536	NaN	0.000000	0.001628	0.001693	28.0784	0.054497	0.001988	27.4094	-127.511	-164.586	-0.020294	0.601575	-0.401387	-0.402667	-0.045536	27.4094	-0.400141	-134279	3.391164E-7	NaN
307	1.000000	0.642892	7.36807e+06	-53989.1	955.819	-29745	0.000000	0.000000	6.643027	-0.026906	NaN	0.000000	0.001582	0.001694	28.0785	0.056449	0.002049	27.5523	-129.664	-163.905	-0.068583	0.641546	-0.361351	-0.362697	-0.026906	27.5523	-0.360618	-36373.3	7.397192E-7	NaN
307	1.000000	0.682884	7.36807e+06	-53989.1	955.818	-29745	0.000000	0.000000	6.683018	-0.049856	NaN	0.000000	0.001554	0.001639	28.0798	0.127339	0.002041	62.3959	-69.7487	-165.401	-0.106204	0.681601	-0.321359	-0.322641	-0.049856	62.3959	-0.320759	-9545.81	5.222819E-6	NaN
307	1.000000	0.722894	7.36807e+06	-53989.1	955.817	-29745	0.000000	0.000000	6.723032	0.024041	NaN	0.000000	0.001570	0.001679	28.0798	0.016329	0.001911	8.542756	-153.597	-163.277	0.075627	0.721603	-0.281348	-0.282639	0.024041	8.542756	-0.283459	-2661.25	-9.033588E-6	NaN
307	1.000000	0.762910	7.36807e+06	-53989.1	955.818	-29745	0.000000	0.000000	6.763046	-0.003741	NaN	0.000000	0.001570	0.001680	28.0798	0.091071	0.002114	43.0839	-52.0738	-164.49	-0.067133	0.761587	-0.241332	-0.242656	-0.003741	43.0839	-0.241267	-601.633	6.218212E-6	NaN
307	1.000000	0.802907	7.36807e+06	-53989.1	955.82	-29745	0.000000	0.000000	6.803042	-0.033653	NaN	0.000000	0.001645	0.001609	28.0787	0.041747	0.001902	21.9517	158.172	-165.832	-0.131786	0.801633	-0.201335	-0.202610	-0.033653	21.9517	-0.200185	-132.661	0.000254	NaN
307	1.000000	0.842953	7.36807e+06	-53989.1	955.818	-29745	0.000000	0.000000	6.843089	-0.009278	NaN	0.000000	0.001699	0.001641	28.0788	0.061514	0.001950	31.5406	-112.924	-165.67	-0.000272	0.841620	-0.161289	-0.162622	-0.009278	31.5406	-0.161069	-28.6387	0.000324	NaN
307	1.000000	0.882956	7.36807e+06	-53989.1	955.818	-29745	0.000000	0.000000	6.883093	0.010407	NaN	0.000000	0.001641	0.001652	28.0783	0.095247	0.002091	45.543	101.366	-166.191	-0.047293	0.881679	-0.121287	-0.122564	0.010407	45.543	-0.121458	-5.169175	-0.002013	NaN
307	1.000000	0.923001	7.36807e+06	-53989.1	955.819	-29745	0.000000	0.000000	6.923137	-0.006602	NaN	0.000000	0.001647	0.001680	28.0797	0.061630	0.001926	32.0061	66.1306	-164.892	0.031788	0.921719	-0.081241	-0.082524	-0.006602	32.0061	-0.081087	-0.658812	0.010021	NaN
307	1.000000	0.963009	7.36807e+06	-53989.1	955.819	-29745	0.000000	0.000000	6.963145	0.008820	NaN	0.000000	0.001650	0.001670	28.0797	0.120987	0.002064	58.6109	50.2624	-166.649	0.021423	0.961713	-0.041234	-0.042529	0.008820	58.6109	-0.041347	-0.049698	-0.177475	NaN
307	1.000000	1.003017	7.36807e+06	-53989.1	955.819	-29745	0.000000	0.000000	7.003152	-0.023702	NaN	0.000000	0.001691	0.001643	28.0807	0.101104	0.002073	48.7781	104.682	-166.409	-0.011709	1.001723	-0.001226	-0.002520	-0.023702	48.7781	-0.000861	-0.000633	37.4409	NaN
307	1.000000	1.043028	7.36807e+06	-53989.1	955.818	-29745	0.000000	0.000000	7.043186	0.529894	NaN	0.000000	0.001610	0.001659	28.0796	0.501101	0.002095	239.146	21.8325	-164.599	0.454416	1.041758	0.038785	0.037515	0.529894	239.146	0.037124	0.056806	9.328116	916.723
307	1.000000	1.083050	7.36807e+06	-53989.1	955.817	-29745	0.000000	0.000000	7.083284	2.392400	NaN	0.000000	0.001624	0.001656	28.0784	2.527713	0.002090	1209.65	29.3907	-167.349	2.350672	1.081731	0.078807	0.077489	2.392400	1209.65	0.077324	0.195151	12.2592	2501.78
307	2.000000	1.104661	7.36807e+06	-53989.1	955.818	-29745	0.000000	0.000000	7.105161	8.850517	NaN	0.000000	0.001624	0.001713	28.0781	6.867069	0.001953	3516.77	14.085	-171.959	8.781980	1.104299	0.100418	0.100056	8.850517	3516.77	0.098531	0.299152	29.5854	5874.5
307	2.000000	1.114635	7.36807e+06	-53989.1	955.818	-29745	0.000000	0.000000	7.115178	9.887854	NaN	0.000000	0.001618	0.001674	28.0791	8.574926	0.002087	4108.58	9.935817	-167.807	10.0304	1.114238	0.110393	0.109996	9.887854	4108.58	0.108588	0.355654	27.8019	6294.35
307	2.000000	1.124587	7.36807e+06	-53989.1	955.818	-29745	0.000000	0.000000	7.125338	14.9447	NaN	0.000000	0.001637	0.001632	28.0801	11.641	0.001964	5926.66	12.4488	-173.749	14.8427	1.124338	0.120344	0.120095	14.9447	5926.66	0.118453	0.415538	35.9647	8399.97
307	2.000000	1.134601	7.36807e+06	-53989.1	955.818	-29745	0.000000	0.000000	7.135760	24.8715	NaN	0.000000	0.001675	0.001612	28.0797	15.9157	0.001873	8497.16	10.4131	-175.83	25.1529	1.134266	0.130358	0.130024	24.8715	8497.16	0.128163	0.478794	51.9462	11219.5
307	2.000000	1.144528	7.36807e+06	-53989.1	955.818	-29745	0.000000	0.000000	7.146966	55.9617	NaN	0.000000	0.001676	0.001632	28.0801	29.7457	0.001825	16296.9	6.063058	-179.768	54.1342	1.144209	0.140285	0.139967	55.9617	16296.9	0.137710	0.545184	102.647	20165.4
307	2.000000	1.154524	7.36807e+06	-53989.1	955.818	-29745	0.000000	0.000000	7.158288	88.1889	NaN	0.000000	0.001675	0.001629	28.0798	39.8815	0.001845	21610.3	7.059704	175.867	87.0258	1.154267	0.150282	0.150024	88.1889	21610.3	0.147221	0.615500	143.28	25166.4
307	2.000000	1.164546	7.36807e+06	-53989.1	955.818	-29745	0.000000	0.000000	7.169735	122.842	NaN	0.000000	0.001631	0.001614	28.0785	47.381	0.001926	24597.9	4.627811	177.871	121.832	1.164236	0.160304	0.159994	122.842	24597.9	0.156558	0.688610	178.391	27082.3
307	2.000000	1.174507	7.36807e+06	-53989.1	955.818	-29745	0.000000	0.000000	7.181261	160.901	NaN	0.000000	0.001623	0.001610	28.0783	55.3982	0.001877	29509.8	5.591069	174.804	160.756	1.174209	0.170264	0.169966	160.901	29509.8	0.166175	0.768190	209.455	30761.3
307	2.000000	1.184651	7.36807e+06	-53989.1	955.819	-29745	0.000000	0.000000	7.193172	203.836	NaN	0.000000	0.001632	0.001627	28.0781	65.2098	0.001799	36238.8	3.612783	175.08	210.353	1.184208	0.180409	0.179965	203.836	36238.8	0.176190	0.855736	238.199	35791.3
307	2.000000	1.194479	7.36807e+06	-53989.1	955.818	-29745	0.000000	0.000000	7.205323	260.313	NaN	0.000000	0.001644	0.001638	28.0795	71.9521	0.001739	41368.1	1.951498	175.834	260.398	1.194203	0.190236	0.189960	260.313	41368.1	0.185517	0.941591	276.461	38950.1
307	2.000000	1.196995	7.36807e+06	-53989.1	955.818	-29745	0.000000	0.000000	7.208273	270.875	NaN	0.000000	0.001658	0.001631	28.0796	75.015	0.001913	39211.5	5.226175	-6.560920	267.494	1.196648	0.192752	0.192406	270.875	39211.5	0.187571	0.961067	281.849	36543.4

File: 2025-07-22_16-23-58_1_308.txt
2025-07-22, 16:23:58, 1
Index	Phase	Displacement	Time	Pos X	Pos Y	Pos Z	Rot A	Rot B	Piezo Z	Force A	Force B	Gripper	Voltage A	Voltage B	Temperature	Amplitude force	Amplitude pos	Stiffness	Phase shift	Phase excitation	Force A raw	Displacement raw	HMax	HMax raw	Real Force	Real Stiffness	Contact Depth	Area	Hardness	Reduced Mod.
[#]	[#]	[um]	[s]	[um]	[um]	[um]	[m°]	[m°]	[um]	[uN]	[uN]	[V]	[V]	[V]	[°C]	[uN]	[um]	[N/m]	[°]	[°]	[uN]	[um]	[um]	[um]	[uN]	[N/m]	[um]	[um^2]	[MPa]	[MPa]
308	1.000000	0.002724	7.36808e+06	-54039.1	955.817	-29744.9	0.000000	0.000000	6.002781	-0.024758	NaN	0.000000	0.001650	0.001638	28.0777	0.075062	0.000957	78.4143	104.838	-172.752	-0.086641	0.001476	-1.092260	-1.093508	-0.024758	78.4143	-1.092023	-3.917243E+14	6.320255E-17	NaN
308	1.000000	0.044700	7.36808e+06	-54039.1	955.819	-29744.9	0.000000	0.000000	6.044758	0.007804	NaN	0.000000	0.001673	0.001651	28.0774	0.086237	0.002033	42.4168	-74.1383	15.2829	0.014737	0.043371	-1.050284	-1.051613	0.007804	42.4168	-1.050422	-1.081652E+14	-7.214621E-17	NaN
308	1.000000	0.086688	7.36808e+06	-54039.1	955.819	-29744.9	0.000000	0.000000	6.086742	-0.091051	NaN	0.000000	0.001581	0.001656	28.0777	0.050777	0.002064	24.5963	-161.076	-166.513	-0.063017	0.085422	-1.008296	-1.009562	-0.091051	24.5963	-1.005519	-2.691985E+13	3.382283E-15	NaN
308	1.000000	0.128690	7.36808e+06	-54039.1	955.819	-29744.9	0.000000	0.000000	6.128751	0.068399	NaN	0.000000	0.001664	0.001641	28.0789	0.043582	0.002013	21.6502	-96.2084	11.4263	0.005235	0.127326	-0.966294	-0.967658	0.068399	21.6502	-0.968663	-8.583127E+12	-7.969034E-15	NaN
308	1.000000	0.170728	7.36808e+06	-54039.1	955.818	-29744.9	0.000000	0.000000	6.170786	-0.009505	NaN	0.000000	0.001684	0.001681	28.0786	0.056545	0.002073	27.2702	-6.020837	-165.939	-0.066542	0.169389	-0.924256	-0.925595	-0.009505	27.2702	-0.923995	-2.143554E+12	4.434211E-15	NaN
308	1.000000	0.212788	7.36808e+06	-54039.1	955.819	-29744.9	0.000000	0.000000	6.212847	0.028851	NaN	0.000000	0.001612	0.001629	28.0789	0.032187	0.002166	14.861	-163.997	15.1038	0.055786	0.211382	-0.882196	-0.883602	0.028851	14.861	-0.883652	-6.110752E+11	-4.721381E-14	NaN
308	1.000000	0.254793	7.36808e+06	-54039.1	955.819	-29744.9	0.000000	0.000000	6.254852	0.017159	NaN	0.000000	0.001667	0.001685	28.0779	0.174814	0.002060	84.8467	-162.644	-166.509	0.019314	0.253522	-0.840191	-0.841462	0.017159	84.8467	-0.840343	-1.584658E+11	-1.082799E-13	NaN
308	1.000000	0.296800	7.36808e+06	-54039.1	955.819	-29744.9	0.000000	0.000000	6.296858	-0.016380	NaN	0.000000	0.001678	0.001712	28.0779	0.036818	0.002094	17.5812	2.936832	13.6554	-0.020117	0.295411	-0.798184	-0.799573	-0.016380	17.5812	-0.797485	-4.156421E+10	3.940825E-13	NaN
308	1.000000	0.338826	7.36808e+06	-54039.1	955.819	-29744.9	0.000000	0.000000	6.338885	0.027212	NaN	0.000000	0.001723	0.001690	28.0777	0.066965	0.002038	32.8647	46.8457	-166.757	-0.081304	0.337521	-0.756158	-0.757462	0.027212	32.8647	-0.756779	-1.162726E+10	-2.340369E-12	NaN
308	1.000000	0.380857	7.36808e+06	-54039.1	955.818	-29744.9	0.000000	0.000000	6.380915	-0.014249	NaN	0.000000	0.001664	0.001675	28.0789	0.073380	0.001919	38.231	162.526	10.1984	-0.000537	0.379441	-0.714126	-0.715543	-0.014249	38.231	-0.713847	-3.023701E+9	4.712535E-12	NaN
308	1.000000	0.422831	7.36808e+06	-54039.1	955.818	-29744.9	0.000000	0.000000	6.422891	0.051270	NaN	0.000000	0.001708	0.001678	28.079	0.093227	0.002025	46.029	166.468	-165.844	0.032499	0.421548	-0.672153	-0.673436	0.051270	46.029	-0.672988	-8.361499E+8	-6.131698E-11	NaN
308	1.000000	0.464850	7.36808e+06	-54039.1	955.818	-29744.9	0.000000	0.000000	6.464907	-0.025260	NaN	0.000000	0.001665	0.001617	28.0793	0.029528	0.002005	14.7239	142.933	12.5821	0.056878	0.463547	-0.630134	-0.631437	-0.025260	14.7239	-0.628848	-2.075849E+8	1.216830E-10	NaN
308	1.000000	0.506919	7.36808e+06	-54039.1	955.819	-29744.9	0.000000	0.000000	6.506977	-0.003154	NaN	0.000000	0.001608	0.001626	28.0782	0.083809	0.002003	41.8433	121.4	-162.763	-0.086876	0.505563	-0.588064	-0.589421	-0.003154	41.8433	-0.588008	-5.691128E+7	5.541632E-11	NaN
308	1.000000	0.548895	7.36808e+06	-54039.1	955.818	-29744.9	0.000000	0.000000	6.548954	0.015887	NaN	0.000000	0.001646	0.001636	28.0782	0.018347	0.001994	9.199005	59.9547	14.8766	-0.015162	0.547555	-0.546089	-0.547428	0.015887	9.199005	-0.547384	-1.562117E+7	-1.016989E-9	NaN
308	1.000000	0.590945	7.36808e+06	-54039.1	955.819	-29744.9	0.000000	0.000000	6.591004	0.029339	NaN	0.000000	0.001621	0.001641	28.078	0.094536	0.001971	47.9563	-31.6381	-165.174	-0.004251	0.589635	-0.504039	-0.505349	0.029339	47.9563	-0.504498	-3.96041e+06	-7.408175E-9	NaN
308	1.000000	0.632936	7.36808e+06	-54039.1	955.818	-29744.9	0.000000	0.000000	6.632994	0.001950	NaN	0.000000	0.001590	0.001598	28.0794	0.046994	0.001949	24.1107	-0.875983	10.7393	-0.021503	0.631564	-0.462048	-0.463420	0.001950	24.1107	-0.462109	-1.01075e+06	-1.929346E-9	NaN
308	1.000000	0.674996	7.36808e+06	-54039.1	955.818	-29744.9	0.000000	0.000000	6.675055	0.028662	NaN	0.000000	0.001580	0.001575	28.0792	0.063570	0.002064	30.7947	35.1564	-168.626	-0.014495	0.673641	-0.419988	-0.421343	0.028662	30.7947	-0.420686	-263111	-1.089353E-7	NaN
308	1.000000	0.716984	7.36808e+06	-54039.1	955.818	-29744.9	0.000000	0.000000	6.717042	-0.001296	NaN	0.000000	0.001594	0.001558	28.0792	0.060992	0.002010	30.3487	130.966	12.9153	-0.080534	0.715631	-0.378000	-0.379353	-0.001296	30.3487	-0.377968	-64672.4	2.003561E-8	NaN
308	1.000000	0.758974	7.36808e+06	-54039.1	955.819	-29744.9	0.000000	0.000000	6.759032	0.013414	NaN	0.000000	0.001565	0.001604	28.0792	0.088234	0.002064	42.7408	131.144	-169.137	-0.013176	0.757709	-0.336010	-0.337275	0.013414	42.7408	-0.336246	-16098.3	-8.332408E-7	NaN
308	1.000000	0.801004	7.36808e+06	-54039.1	955.818	-29744.9	0.000000	0.000000	6.801060	-0.040876	NaN	0.000000	0.001637	0.001592	28.0781	0.106995	0.002061	51.911	-19.7003	11.1029	-0.065739	0.799618	-0.293980	-0.295366	-0.040876	51.911	-0.293389	-3749.94	1.090048E-5	NaN
308	1.000000	0.843051	7.36808e+06	-54039.1	955.819	-29744.9	0.000000	0.000000	6.843108	-0.021173	NaN	0.000000	0.001620	0.001587	28.0779	0.116134	0.002002	58.0136	21.0686	-165.007	-0.043258	0.841714	-0.251933	-0.253270	-0.021173	58.0136	-0.251659	-872.184	2.427615E-5	NaN
308	1.000000	0.885051	7.36808e+06	-54039.1	955.819	-29744.9	0.000000	0.000000	6.885109	-0.012099	NaN	0.000000	0.001672	0.001571	28.0777	0.092705	0.001981	46.804	175.854	16.2456	0.034367	0.883705	-0.209933	-0.211278	-0.012099	46.804	-0.209739	-189.928	6.370262E-5	NaN
308	1.000000	0.927085	7.36808e+06	-54039.1	955.819	-29744.9	0.000000	0.000000	6.927143	-0.004593	NaN	0.000000	0.001674	0.001580	28.079	0.032990	0.002094	15.7519	84.686	-163.585	-0.034797	0.925756	-0.167899	-0.169227	-0.004593	15.7519	-0.167680	-37.4301	0.000123	NaN
308	1.000000	0.969088	7.36808e+06	-54039.1	955.818	-29744.9	0.000000	0.000000	6.969145	-0.041636	NaN	0.000000	0.001621	0.001593	28.0793	0.055251	0.001929	28.6413	-135.97	12.2643	0.016648	0.967734	-0.125896	-0.127249	-0.041636	28.6413	-0.124805	-6.027573	0.006908	NaN
308	1.000000	1.011096	7.36808e+06	-54039.1	955.818	-29744.9	0.000000	0.000000	7.011153	-0.027245	NaN	0.000000	0.001633	0.001594	28.0793	0.082563	0.001933	42.7094	120.918	-166.677	-0.012480	1.009775	-0.083887	-0.085209	-0.027245	42.7094	-0.083409	-0.751580	0.036250	NaN
308	1.000000	1.053116	7.36808e+06	-54039.1	955.818	-29744.9	0.000000	0.000000	7.053176	0.032246	NaN	0.000000	0.001621	0.001557	28.078	0.027649	0.001963	14.0881	171.884	12.5802	0.007795	1.051733	-0.041868	-0.043251	0.032246	14.0881	-0.043584	-0.058170	-0.554348	NaN
308	1.000000	1.095133	7.36808e+06	-54039.1	955.818	-29744.9	0.000000	0.000000	7.095201	0.216188	NaN	0.000000	0.001628	0.001617	28.0779	0.403426	0.002027	199.042	0.179123	-165.128	-0.004028	1.093830	0.000150	-0.001154	0.216188	199.042	-0.000665	-0.000491	-440.689	NaN
308	2.000000	1.112138	7.36808e+06	-54039.1	955.818	-29744.9	0.000000	0.000000	7.113238	25.3172	NaN	0.000000	0.001632	0.001623	28.078	18.8868	0.001687	11194.8	4.417349	1.445837	23.3024	1.111855	0.017155	0.016871	25.3172	11194.8	0.015458	0.015902	1592.12	81109.3
308	2.000000	1.122590	7.36808e+06	-54039.1	955.817	-29744.9	0.000000	0.000000	7.124771	51.6175	NaN	0.000000	0.001623	0.001599	28.0778	29.1329	0.001863	15640.5	6.017188	179.186	49.4673	1.122286	0.027606	0.027303	51.6175	15640.5	0.025131	0.031254	1651.55	80829.8
308	2.000000	1.133095	7.36808e+06	-54039.1	955.818	-29744.9	0.000000	0.000000	7.136827	89.3009	NaN	0.000000	0.001662	0.001649	28.0792	38.2172	0.001765	21649.8	0.970844	2.634924	87.4051	1.132656	0.038112	0.037672	89.3009	21649.8	0.035018	0.051788	1724.36	86918.8
308	2.000000	1.143521	7.36808e+06	-54039.1	955.818	-29744.9	0.000000	0.000000	7.148847	128.069	NaN	0.000000	0.001659	0.001611	28.0796	47.5134	0.001742	27270.6	4.827039	174.601	124.28	1.143277	0.048538	0.048293	128.069	27270.6	0.045015	0.077631	1649.71	89423.2
308	2.000000	1.154085	7.36808e+06	-54039.1	955.818	-29744.9	0.000000	0.000000	7.161397	176.357	NaN	0.000000	0.001599	0.001696	28.0789	56.1992	0.001677	33520.3	5.931964	-7.138999	175.437	1.153651	0.059101	0.058667	176.357	33520.3	0.055155	0.109011	1617.79	92756.9
308	2.000000	1.164568	7.36808e+06	-54039.1	955.817	-29744.9	0.000000	0.000000	7.174244	233.817	NaN	0.000000	0.001618	0.001624	28.0779	67.3095	0.001834	36691	6.056857	172.959	232.676	1.164185	0.069585	0.069202	233.817	36691	0.064805	0.143600	1628.25	88461.7
308	2.000000	1.174934	7.36808e+06	-54039.1	955.818	-29744.9	0.000000	0.000000	7.187132	295.144	NaN	0.000000	0.001624	0.001643	28.0779	77.4954	0.001668	46451.4	3.769296	-8.150625	286.813	1.174677	0.079950	0.079694	295.144	46451.4	0.075185	0.185816	1588.37	98453.3
308	2.000000	1.185620	7.36808e+06	-54039.1	955.817	-29744.9	0.000000	0.000000	7.200630	363.492	NaN	0.000000	0.001573	0.001660	28.0776	88.2161	0.001804	48911.1	9.306664	166.392	367.86	1.185205	0.090636	0.090221	363.492	48911.1	0.085062	0.230699	1575.61	93037.3
308	2.000000	1.195944	7.36808e+06	-54039.1	955.818	-29744.9	0.000000	0.000000	7.214716	454.964	NaN	0.000000	0.001681	0.001661	28.0791	98.3774	0.001869	52644.2	6.608792	-11.0655	450.146	1.195564	0.100960	0.100580	454.964	52644.2	0.094478	0.277681	1638.44	91274.8
308	2.000000	1.202454	7.36808e+06	-54039.1	955.819	-29744.9	0.000000	0.000000	7.223482	509.798	NaN	0.000000	0.001743	0.001643	28.0794	103.958	0.001813	57346.3	1.980338	173.233	508.286	1.202140	0.107471	0.107156	509.798	57346.3	0.100803	0.311518	1636.5	93872.2