Folder: unikorn_login/remote_trans/data/nanoindenter/0828-1/data/Data_2025-08-06,11h17m57s (part 107)

File: 2025-07-22_16-23-58_1_231.txt
2025-07-22, 16:23:58, 1
Index	Phase	Displacement	Time	Pos X	Pos Y	Pos Z	Rot A	Rot B	Piezo Z	Force A	Force B	Gripper	Voltage A	Voltage B	Temperature	Amplitude force	Amplitude pos	Stiffness	Phase shift	Phase excitation	Force A raw	Displacement raw	HMax	HMax raw	Real Force	Real Stiffness	Contact Depth	Area	Hardness	Reduced Mod.
[#]	[#]	[um]	[s]	[um]	[um]	[um]	[m°]	[m°]	[um]	[uN]	[uN]	[V]	[V]	[V]	[°C]	[uN]	[um]	[N/m]	[°]	[°]	[uN]	[um]	[um]	[um]	[uN]	[N/m]	[um]	[um^2]	[MPa]	[MPa]
231	1.000000	0.002041	7.3673e+06	-50189.1	955.818	-29756.9	0.000000	0.000000	6.002802	0.012703	NaN	0.000000	0.001648	0.001710	28.0763	0.012629	0.000827	15.279	-156.607	-165.761	0.020998	0.000776	-1.008240	-1.009504	0.012703	15.279	-1.008863	-2.985959E+13	-4.254386E-16	NaN
231	1.000000	0.041988	7.3673e+06	-50189.1	955.818	-29756.9	0.000000	0.000000	6.042750	0.016083	NaN	0.000000	0.001620	0.001650	28.0767	0.027053	0.002006	13.4866	-144.62	-163.608	0.051965	0.040700	-0.968293	-0.969581	0.016083	13.4866	-0.969187	-8.723815E+12	-1.843619E-15	NaN
231	1.000000	0.082008	7.3673e+06	-50189.1	955.819	-29756.9	0.000000	0.000000	6.082771	0.067732	NaN	0.000000	0.001649	0.001703	28.0765	0.016358	0.001966	8.319480	-156.58	-166.399	0.129118	0.080673	-0.928273	-0.929608	0.067732	8.319480	-0.934379	-2.960021E+12	-2.288237E-14	NaN
231	1.000000	0.122004	7.36731e+06	-50189.1	955.819	-29756.9	0.000000	0.000000	6.122762	-0.044336	NaN	0.000000	0.001633	0.001659	28.0766	0.087218	0.001804	48.355	81.9165	-163.205	-0.021119	0.120770	-0.888277	-0.889511	-0.044336	48.355	-0.887590	-6.907641E+11	6.418453E-14	NaN
231	1.000000	0.162032	7.36731e+06	-50189.1	955.818	-29756.9	0.000000	0.000000	6.162793	0.014548	NaN	0.000000	0.001625	0.001668	28.0778	0.068419	0.002036	33.6083	-19.027	-164.678	-0.005514	0.160720	-0.848249	-0.849560	0.014548	33.6083	-0.848574	-2.048438E+11	-7.102235E-14	NaN
231	1.000000	0.202043	7.36731e+06	-50189.1	955.819	-29756.9	0.000000	0.000000	6.202803	-0.026223	NaN	0.000000	0.001701	0.001643	28.0776	0.019608	0.001936	10.1283	138.47	-162.372	-0.048988	0.200742	-0.808237	-0.809539	-0.026223	10.1283	-0.806296	-5.474022E+10	4.790459E-13	NaN
231	1.000000	0.242065	7.36731e+06	-50189.1	955.818	-29756.9	0.000000	0.000000	6.242826	0.008646	NaN	0.000000	0.001731	0.001641	28.0777	0.100499	0.001892	53.1257	119.127	-165.392	0.077465	0.240764	-0.768216	-0.769517	0.008646	53.1257	-0.768338	-1.669968E+10	-5.177536E-13	NaN
231	1.000000	0.282078	7.36731e+06	-50189.1	955.82	-29756.9	0.000000	0.000000	6.282838	-0.025789	NaN	0.000000	0.001723	0.001650	28.0764	0.130186	0.002013	64.659	-67.261	-165.7	-0.024768	0.280830	-0.728203	-0.729451	-0.025789	64.659	-0.727904	-4.701505E+9	5.485341E-12	NaN
231	1.000000	0.322079	7.36731e+06	-50189.1	955.819	-29756.9	0.000000	0.000000	6.322841	0.035853	NaN	0.000000	0.001649	0.001660	28.0763	0.042495	0.001891	22.4762	120.713	-166.32	-0.002908	0.320847	-0.688202	-0.689434	0.035853	22.4762	-0.689398	-1.401820E+9	-2.557585E-11	NaN
231	1.000000	0.362135	7.36731e+06	-50189.1	955.818	-29756.9	0.000000	0.000000	6.362896	0.012309	NaN	0.000000	0.001682	0.001616	28.0768	0.044306	0.001863	23.7811	-11.1788	-167.571	0.032041	0.360825	-0.648146	-0.649455	0.012309	23.7811	-0.648534	-3.866719E+8	-3.183258E-11	NaN
231	1.000000	0.402116	7.36731e+06	-50189.1	955.818	-29756.9	0.000000	0.000000	6.402876	-0.019391	NaN	0.000000	0.001661	0.001663	28.0763	0.019169	0.001984	9.660685	88.8336	-165.815	0.033085	0.400797	-0.608165	-0.609484	-0.019391	9.660685	-0.606659	-1.028358E+8	1.885579E-10	NaN
231	1.000000	0.442144	7.36731e+06	-50189.1	955.818	-29756.9	0.000000	0.000000	6.442904	-0.017308	NaN	0.000000	0.001727	0.001669	28.0777	0.074113	0.002059	35.9861	158.295	-161.679	0.052200	0.440829	-0.568137	-0.569452	-0.017308	35.9861	-0.567776	-2.991609E+7	5.785469E-10	NaN
231	1.000000	0.482185	7.36731e+06	-50189.1	955.818	-29756.9	0.000000	0.000000	6.482943	-0.050425	NaN	0.000000	0.001751	0.001666	28.0776	0.095894	0.002061	46.528	176.57	-162.846	-0.059091	0.480897	-0.528096	-0.529384	-0.050425	46.528	-0.527283	-8.21934e+06	6.134861E-9	NaN
231	1.000000	0.522199	7.36731e+06	-50189.1	955.818	-29756.9	0.000000	0.000000	6.522959	-0.018517	NaN	0.000000	0.001745	0.001634	28.0778	0.052675	0.001981	26.5866	-106.822	-165.58	-0.010744	0.520875	-0.488081	-0.489406	-0.018517	26.5866	-0.487559	-2.2976e+06	8.059446E-9	NaN
231	1.000000	0.562190	7.36731e+06	-50189.1	955.819	-29756.9	0.000000	0.000000	6.562950	-0.015844	NaN	0.000000	0.001727	0.001635	28.0764	0.030720	0.001961	15.6653	-32.5229	-167.024	-0.053119	0.560923	-0.448091	-0.449358	-0.015844	15.6653	-0.447332	-626278	2.529810E-8	NaN
231	1.000000	0.602198	7.36731e+06	-50189.1	955.818	-29756.9	0.000000	0.000000	6.602959	0.006965	NaN	0.000000	0.001648	0.001627	28.0764	0.035244	0.002048	17.2112	43.2997	-165.938	-0.054465	0.600940	-0.408083	-0.409341	0.006965	17.2112	-0.408386	-175973	-3.957840E-8	NaN
231	1.000000	0.642215	7.36731e+06	-50189.1	955.819	-29756.9	0.000000	0.000000	6.642975	-0.030646	NaN	0.000000	0.001666	0.001630	28.0764	0.178283	0.001955	91.1726	-123.614	-163.142	-0.024939	0.640958	-0.368066	-0.369323	-0.030646	91.1726	-0.367814	-46198.5	6.633492E-7	NaN
231	1.000000	0.682294	7.36731e+06	-50189.1	955.818	-29756.9	0.000000	0.000000	6.683055	0.006727	NaN	0.000000	0.001684	0.001611	28.077	0.041896	0.001985	21.1036	108.073	-163.803	-0.003674	0.680925	-0.327986	-0.329356	0.006727	21.1036	-0.328226	-12287.2	-5.474983E-7	NaN
231	1.000000	0.722291	7.36731e+06	-50189.1	955.817	-29756.9	0.000000	0.000000	6.723050	-0.030933	NaN	0.000000	0.001633	0.001666	28.0778	0.031274	0.002081	15.0281	-123.498	-165.574	-0.045770	0.720942	-0.287990	-0.289339	-0.030933	15.0281	-0.286446	-2951.2	1.048161E-5	NaN
231	1.000000	0.762291	7.36731e+06	-50189.1	955.818	-29756.9	0.000000	0.000000	6.763051	-0.018652	NaN	0.000000	0.001676	0.001622	28.0778	0.032295	0.001984	16.2772	102.833	-166.275	-0.033779	0.760976	-0.247989	-0.249305	-0.018652	16.2772	-0.247130	-742.197	2.513100E-5	NaN
231	1.000000	0.802328	7.36731e+06	-50189.1	955.818	-29756.9	0.000000	0.000000	6.803091	0.059949	NaN	0.000000	0.001648	0.001553	28.0777	0.065740	0.001966	33.4305	87.9833	-164.15	-0.035519	0.801014	-0.207953	-0.209267	0.059949	33.4305	-0.209298	-186.827	-0.000321	NaN
231	1.000000	0.842318	7.36731e+06	-50189.1	955.819	-29756.9	0.000000	0.000000	6.843078	-0.030949	NaN	0.000000	0.001678	0.001569	28.0763	0.049323	0.002027	24.3286	-175.284	-166.334	-0.048305	0.841042	-0.167963	-0.169239	-0.030949	24.3286	-0.167009	-36.4331	0.000849	NaN
231	1.000000	0.882345	7.36731e+06	-50189.1	955.819	-29756.9	0.000000	0.000000	6.883105	-0.012088	NaN	0.000000	0.001668	0.001588	28.0764	0.028305	0.001958	14.4563	-169.885	-164.46	0.017949	0.881057	-0.127936	-0.129224	-0.012088	14.4563	-0.127309	-6.752806	0.001790	NaN
231	1.000000	0.922340	7.36731e+06	-50189.1	955.819	-29756.9	0.000000	0.000000	6.923100	-0.020790	NaN	0.000000	0.001689	0.001619	28.0764	0.088985	0.002002	44.4464	46.4465	-161.538	-0.032981	0.921076	-0.087941	-0.089204	-0.020790	44.4464	-0.087590	-0.948099	0.021929	NaN
231	1.000000	0.962376	7.36731e+06	-50189.1	955.818	-29756.9	0.000000	0.000000	6.963136	-0.028261	NaN	0.000000	0.001637	0.001586	28.0777	0.023560	0.001946	12.1055	-153.975	-165.626	-0.007463	0.961086	-0.047904	-0.049194	-0.028261	12.1055	-0.046154	-0.069703	0.405453	NaN
231	1.000000	1.002361	7.36731e+06	-50189.1	955.819	-29756.9	0.000000	0.000000	7.003124	0.041663	NaN	0.000000	0.001614	0.001606	28.0774	0.057651	0.001933	29.8293	102.998	-162.279	0.026824	1.001098	-0.007919	-0.009182	0.041663	29.8293	-0.008967	-0.005794	-7.190846	NaN
231	1.000000	1.042385	7.36731e+06	-50189.1	955.818	-29756.9	0.000000	0.000000	7.043461	7.670891	NaN	0.000000	0.001598	0.001683	28.0773	3.418294	0.001960	1744.32	13.5763	-166.838	7.088782	1.041126	0.032104	0.030845	7.670891	1744.32	0.028806	0.038305	200.26	8142.8
231	2.000000	1.055002	7.36731e+06	-50189.1	955.817	-29756.9	0.000000	0.000000	7.056095	8.063463	NaN	0.000000	0.001682	0.001588	28.0777	5.409851	0.001939	2790.54	13.846	-170.738	8.070703	1.054632	0.044722	0.044351	8.063463	2790.54	0.042554	0.070796	113.896	9581.98
231	2.000000	1.064950	7.36731e+06	-50189.1	955.819	-29756.9	0.000000	0.000000	7.066214	12.2474	NaN	0.000000	0.001688	0.001643	28.0766	9.325718	0.001935	4818.68	11.7381	-171.454	11.8209	1.064622	0.054669	0.054342	12.2474	4818.68	0.052763	0.101144	121.088	13843
231	2.000000	1.074956	7.36731e+06	-50189.1	955.818	-29756.9	0.000000	0.000000	7.076784	25.9742	NaN	0.000000	0.001728	0.001595	28.0765	17.5553	0.001889	9295.86	11.5283	-178.3	25.2826	1.074642	0.064675	0.064361	25.9742	9295.86	0.062579	0.135219	192.09	23096.4
231	2.000000	1.084896	7.36731e+06	-50189.1	955.818	-29756.9	0.000000	0.000000	7.088498	69.1083	NaN	0.000000	0.001724	0.001616	28.0777	27.993	0.001785	15679.9	7.672528	179.037	68.5268	1.084663	0.074615	0.074382	69.1083	15679.9	0.071309	0.169455	407.826	34800.7
231	2.000000	1.094899	7.36731e+06	-50189.1	955.819	-29756.9	0.000000	0.000000	7.101201	134.756	NaN	0.000000	0.001610	0.001606	28.0793	38.9924	0.001791	21774.4	5.583534	177.414	133.82	1.094668	0.084618	0.084387	134.756	21774.4	0.079977	0.207023	650.923	43723.1
231	2.000000	1.104835	7.36731e+06	-50189.1	955.818	-29756.9	0.000000	0.000000	7.114718	221.825	NaN	0.000000	0.001601	0.001641	28.0782	48.0646	0.001762	27282.7	5.229357	175.88	218.779	1.104535	0.094555	0.094254	221.825	27282.7	0.088457	0.247166	897.47	50137.8
231	2.000000	1.114719	7.36731e+06	-50189.1	955.818	-29756.9	0.000000	0.000000	7.129458	339.908	NaN	0.000000	0.001567	0.001584	28.078	55.1433	0.001823	30240.7	2.963232	177.521	333.21	1.114476	0.104439	0.104195	339.908	30240.7	0.096009	0.285702	1189.73	51690.3
231	2.000000	1.124768	7.36731e+06	-50189.1	955.82	-29756.9	0.000000	0.000000	7.144759	467.672	NaN	0.000000	0.001573	0.001621	28.0778	64.2246	0.001885	34066.4	3.819463	175.255	461.341	1.124455	0.114487	0.114174	467.672	34066.4	0.104191	0.330385	1415.54	54148.8
231	2.000000	1.134868	7.36731e+06	-50189.1	955.819	-29756.9	0.000000	0.000000	7.158555	557.527	NaN	0.000000	0.001590	0.001608	28.0764	70.8206	0.001817	38985	2.747447	174.848	556.07	1.134705	0.124587	0.124424	557.527	38985	0.113861	0.387117	1440.2	57246.5
231	2.000000	1.144399	7.36731e+06	-50189.1	955.82	-29756.9	0.000000	0.000000	7.172815	672.538	NaN	0.000000	0.001589	0.001585	28.0773	79.1932	0.001849	42837.4	4.591442	-7.427703	669.244	1.144147	0.134118	0.133866	672.538	42837.4	0.122343	0.440367	1527.22	58977.8

File: 2025-07-22_16-23-58_1_232.txt
2025-07-22, 16:23:58, 1
Index	Phase	Displacement	Time	Pos X	Pos Y	Pos Z	Rot A	Rot B	Piezo Z	Force A	Force B	Gripper	Voltage A	Voltage B	Temperature	Amplitude force	Amplitude pos	Stiffness	Phase shift	Phase excitation	Force A raw	Displacement raw	HMax	HMax raw	Real Force	Real Stiffness	Contact Depth	Area	Hardness	Reduced Mod.
[#]	[#]	[um]	[s]	[um]	[um]	[um]	[m°]	[m°]	[um]	[uN]	[uN]	[V]	[V]	[V]	[°C]	[uN]	[um]	[N/m]	[°]	[°]	[uN]	[um]	[um]	[um]	[uN]	[N/m]	[um]	[um^2]	[MPa]	[MPa]
232	1.000000	0.001925	7.36731e+06	-50239.1	955.818	-29756.8	0.000000	0.000000	6.002808	-0.002938	NaN	0.000000	0.001698	0.001619	28.0788	0.053071	0.000991	53.5275	103.994	-170.199	-0.060680	0.000632	-1.012094	-1.013387	-0.002938	53.5275	-1.012053	-3.296176E+13	8.914628E-17	NaN
232	1.000000	0.041872	7.36731e+06	-50239.1	955.819	-29756.8	0.000000	0.000000	6.042753	-0.056441	NaN	0.000000	0.001765	0.001622	28.0774	0.010305	0.001998	5.157420	-158.754	-165.61	-0.021473	0.040574	-0.972147	-0.973445	-0.056441	5.157420	-0.963939	-7.412633E+12	7.614167E-15	NaN
232	1.000000	0.081889	7.36731e+06	-50239.1	955.819	-29756.8	0.000000	0.000000	6.082773	0.022005	NaN	0.000000	0.001647	0.001598	28.0773	0.055199	0.002038	27.0876	-85.7811	-166.891	0.036014	0.080559	-0.932130	-0.933460	0.022005	27.0876	-0.932740	-2.812997E+12	-7.822647E-15	NaN
232	1.000000	0.121873	7.36731e+06	-50239.1	955.819	-29756.8	0.000000	0.000000	6.122756	-0.007186	NaN	0.000000	0.001655	0.001660	28.0771	0.104999	0.001981	52.9959	147.947	-163.245	0.009406	0.120626	-0.892146	-0.893393	-0.007186	52.9959	-0.892044	-7.935065E+11	9.055553E-15	NaN
232	1.000000	0.161902	7.36731e+06	-50239.1	955.818	-29756.8	0.000000	0.000000	6.162786	0.018541	NaN	0.000000	0.001660	0.001615	28.0783	0.061767	0.002131	28.9891	73.7315	-172.202	0.128347	0.160581	-0.852117	-0.853438	0.018541	28.9891	-0.852597	-2.322183E+11	-7.984501E-14	NaN
232	1.000000	0.201935	7.36732e+06	-50239.1	955.819	-29756.8	0.000000	0.000000	6.202819	0.006138	NaN	0.000000	0.001691	0.001561	28.0785	0.042570	0.002127	20.0109	-70.6759	-168.292	-0.100454	0.200549	-0.812084	-0.813470	0.006138	20.0109	-0.812314	-6.606405E+10	-9.290353E-14	NaN
232	1.000000	0.241944	7.36732e+06	-50239.1	955.819	-29756.8	0.000000	0.000000	6.242829	0.032331	NaN	0.000000	0.001680	0.001570	28.0784	0.039050	0.001939	20.1439	113.899	-169.807	-0.025883	0.240664	-0.772075	-0.773355	0.032331	20.1439	-0.773279	-1.949296E+10	-1.658587E-12	NaN
232	1.000000	0.282000	7.36732e+06	-50239.1	955.818	-29756.8	0.000000	0.000000	6.282885	0.017270	NaN	0.000000	0.001619	0.001557	28.0783	0.046935	0.002069	22.6854	112.728	-164.933	-0.000704	0.280672	-0.732019	-0.733347	0.017270	22.6854	-0.732590	-5.446267E+9	-3.170921E-12	NaN
232	1.000000	0.322000	7.36732e+06	-50239.1	955.817	-29756.8	0.000000	0.000000	6.322885	0.017705	NaN	0.000000	0.001720	0.001585	28.0771	0.099812	0.001967	50.7395	-162.165	-164.271	-0.021517	0.320618	-0.692019	-0.693402	0.017705	50.7395	-0.692280	-1.534898E+9	-1.153527E-11	NaN
232	1.000000	0.362003	7.36732e+06	-50239.1	955.819	-29756.8	0.000000	0.000000	6.362888	0.022923	NaN	0.000000	0.001681	0.001609	28.0772	0.094819	0.002067	45.8663	6.960044	-165.946	0.020730	0.360675	-0.652016	-0.653344	0.022923	45.8663	-0.652391	-4.367239E+8	-5.248899E-11	NaN
232	1.000000	0.402021	7.36732e+06	-50239.1	955.818	-29756.8	0.000000	0.000000	6.402907	0.044075	NaN	0.000000	0.001772	0.001645	28.0773	0.141547	0.001876	75.4417	148.072	-168.711	0.032400	0.400735	-0.611998	-0.613284	0.044075	75.4417	-0.612436	-1.234881E+8	-3.569202E-10	NaN
232	1.000000	0.442042	7.36732e+06	-50239.1	955.818	-29756.8	0.000000	0.000000	6.442925	-0.004174	NaN	0.000000	0.001703	0.001641	28.0786	0.089990	0.002138	42.0829	47.9482	-166.666	-0.011611	0.440717	-0.571977	-0.573302	-0.004174	42.0829	-0.571902	-3.411264E+7	1.223686E-10	NaN
232	1.000000	0.482059	7.36732e+06	-50239.1	955.819	-29756.8	0.000000	0.000000	6.482945	0.068280	NaN	0.000000	0.001640	0.001614	28.0785	0.088323	0.001956	45.1473	-98.4234	-163.28	0.084949	0.480744	-0.531960	-0.533275	0.068280	45.1473	-0.533094	-9.89774e+06	-6.898589E-9	NaN
232	1.000000	0.522078	7.36732e+06	-50239.1	955.818	-29756.8	0.000000	0.000000	6.522959	-0.048970	NaN	0.000000	0.001665	0.001613	28.0786	0.114265	0.002110	54.1559	133.522	-165.326	-0.045798	0.520821	-0.491941	-0.493198	-0.048970	54.1559	-0.491263	-2.58845e+06	1.891847E-8	NaN
232	1.000000	0.562068	7.36732e+06	-50239.1	955.818	-29756.8	0.000000	0.000000	6.562953	0.040666	NaN	0.000000	0.001657	0.001706	28.0774	0.080131	0.001941	41.2834	-107.5	-163.507	-0.036820	0.560759	-0.451951	-0.453260	0.040666	41.2834	-0.452690	-745100	-5.457753E-8	NaN
232	1.000000	0.602080	7.36732e+06	-50239.1	955.819	-29756.8	0.000000	0.000000	6.602963	-0.008109	NaN	0.000000	0.001682	0.001605	28.0774	0.025547	0.002021	12.6382	-140.536	-164.608	0.073032	0.600817	-0.411939	-0.413202	-0.008109	12.6382	-0.411458	-194594	4.166885E-8	NaN
232	1.000000	0.642127	7.36732e+06	-50239.1	955.818	-29756.8	0.000000	0.000000	6.643011	0.026124	NaN	0.000000	0.001656	0.001638	28.0773	0.042352	0.002051	20.6492	-123.912	-168.046	0.051417	0.640790	-0.371892	-0.373229	0.026124	20.6492	-0.372841	-54578.7	-4.786552E-7	NaN
232	1.000000	0.682160	7.36732e+06	-50239.1	955.819	-29756.8	0.000000	0.000000	6.683042	-0.026014	NaN	0.000000	0.001698	0.001650	28.0771	0.060242	0.002052	29.361	-175.142	-163.491	0.067351	0.680822	-0.331859	-0.333197	-0.026014	29.361	-0.331195	-13581.3	1.915400E-6	NaN
232	1.000000	0.722191	7.36732e+06	-50239.1	955.817	-29756.8	0.000000	0.000000	6.723077	0.077791	NaN	0.000000	0.001660	0.001650	28.0784	0.029867	0.002026	14.7432	-47.2045	-166.356	0.039894	0.720840	-0.291828	-0.293179	0.077791	14.7432	-0.295786	-4072.1	-1.910328E-5	NaN
232	1.000000	0.762156	7.36732e+06	-50239.1	955.818	-29756.8	0.000000	0.000000	6.763039	-0.004818	NaN	0.000000	0.001677	0.001584	28.0785	0.074158	0.001949	38.0494	-42.9289	-166.401	0.066375	0.760874	-0.251863	-0.253145	-0.004818	38.0494	-0.251768	-875.567	5.502942E-6	NaN
232	1.000000	0.802200	7.36732e+06	-50239.1	955.818	-29756.8	0.000000	0.000000	6.803083	-0.010038	NaN	0.000000	0.001660	0.001581	28.0784	0.036249	0.002073	17.4859	-42.5289	-164.335	0.050911	0.800875	-0.211819	-0.213144	-0.010038	17.4859	-0.211388	-201.967	4.970088E-5	NaN
232	1.000000	0.842215	7.36732e+06	-50239.1	955.819	-29756.8	0.000000	0.000000	6.843099	0.022520	NaN	0.000000	0.001699	0.001618	28.0772	0.055843	0.001984	28.1445	-74.1607	-166.455	0.067595	0.840912	-0.171804	-0.173107	0.022520	28.1445	-0.172404	-45.2121	-0.000498	NaN
232	1.000000	0.882245	7.36732e+06	-50239.1	955.819	-29756.8	0.000000	0.000000	6.883130	0.033070	NaN	0.000000	0.001628	0.001574	28.0775	0.112643	0.001892	59.5343	25.9648	-165.951	0.015536	0.880922	-0.131774	-0.133097	0.033070	59.5343	-0.132191	-8.402374	-0.003936	NaN
232	1.000000	0.922217	7.36732e+06	-50239.1	955.818	-29756.8	0.000000	0.000000	6.923100	-0.006195	NaN	0.000000	0.001647	0.001564	28.0771	0.046767	0.002020	23.1483	45.9757	-165.731	-0.062100	0.920927	-0.091802	-0.093092	-0.006195	23.1483	-0.091602	-1.178192	0.005258	NaN
232	1.000000	0.962248	7.36732e+06	-50239.1	955.818	-29756.8	0.000000	0.000000	6.963130	-0.041692	NaN	0.000000	0.001648	0.001598	28.0771	0.071308	0.002019	35.3131	-33.69	-165.96	0.030899	0.960944	-0.051771	-0.053075	-0.041692	35.3131	-0.050886	-0.097045	0.429614	NaN
232	1.000000	1.002257	7.36732e+06	-50239.1	955.819	-29756.8	0.000000	0.000000	7.003141	0.012202	NaN	0.000000	0.001669	0.001615	28.0784	0.067633	0.001793	37.7191	117.552	-166.697	0.054221	1.000994	-0.011762	-0.013025	0.012202	37.7191	-0.012004	-0.007531	-1.620271	NaN
232	2.000000	1.030895	7.36732e+06	-50239.1	955.818	-29756.8	0.000000	0.000000	7.032313	12.9899	NaN	0.000000	0.001721	0.001571	28.0786	13.4536	0.001743	7720.12	8.682742	-175.492	13.543	1.030539	0.016876	0.016520	12.9899	7720.12	0.015614	0.016113	806.158	55565.3
232	2.000000	1.040776	7.36732e+06	-50239.1	955.819	-29756.8	0.000000	0.000000	7.043067	34.2111	NaN	0.000000	0.001685	0.001615	28.0786	23.4325	0.001733	13523.2	4.295954	-176.913	33.1027	1.040465	0.026757	0.026446	34.2111	13523.2	0.024860	0.030761	1112.15	70445
232	2.000000	1.050747	7.36732e+06	-50239.1	955.818	-29756.8	0.000000	0.000000	7.054041	58.6266	NaN	0.000000	0.001580	0.001585	28.0774	33.5979	0.001769	18988.9	6.454570	177.86	56.8749	1.050363	0.036728	0.036343	58.6266	18988.9	0.034412	0.050386	1163.55	77289.3
232	2.000000	1.060808	7.36732e+06	-50239.1	955.819	-29756.8	0.000000	0.000000	7.065197	85.2419	NaN	0.000000	0.001642	0.001630	28.0774	42.3668	0.001767	23974.5	4.484626	177.745	85.9846	1.060500	0.046789	0.046481	85.2419	23974.5	0.044122	0.075115	1134.82	79920.8
232	2.000000	1.070818	7.36732e+06	-50239.1	955.819	-29756.8	0.000000	0.000000	7.076717	121.982	NaN	0.000000	0.001635	0.001646	28.0775	53.6599	0.001847	29047	11.8894	169.921	125.319	1.070387	0.056799	0.056368	121.982	29047	0.053649	0.104025	1172.62	82282.2
232	2.000000	1.080699	7.36732e+06	-50239.1	955.819	-29756.8	0.000000	0.000000	7.088547	169.346	NaN	0.000000	0.001617	0.001633	28.0783	63.5534	0.001805	35208.2	5.393938	173.611	168.111	1.080474	0.066680	0.066455	169.346	35208.2	0.063073	0.137058	1235.58	86889.1
232	2.000000	1.090668	7.36732e+06	-50239.1	955.819	-29756.8	0.000000	0.000000	7.100669	221.729	NaN	0.000000	0.001655	0.001585	28.0786	72.5682	0.001874	38733	5.098355	173.1	220.055	1.090331	0.076649	0.076312	221.729	38733	0.072356	0.173802	1275.75	84884.1
232	2.000000	1.100669	7.36732e+06	-50239.1	955.82	-29756.8	0.000000	0.000000	7.112870	275.231	NaN	0.000000	0.001627	0.001654	28.0785	81.4169	0.001905	42728.2	6.046022	172.256	273.331	1.100419	0.086650	0.086400	275.231	42728.2	0.081819	0.215459	1277.42	84101.8
232	2.000000	1.110643	7.36732e+06	-50239.1	955.818	-29756.8	0.000000	0.000000	7.125734	345.506	NaN	0.000000	0.001655	0.001592	28.0785	89.7337	0.001671	53701.4	5.527766	170.869	343.353	1.110329	0.096624	0.096310	345.506	53701.4	0.091798	0.263895	1309.25	95508.8
232	2.000000	1.120561	7.36732e+06	-50239.1	955.819	-29756.8	0.000000	0.000000	7.138353	411.203	NaN	0.000000	0.001639	0.001555	28.0773	97.4249	0.001771	55011.5	1.011604	175.365	405.73	1.120333	0.106542	0.106314	411.203	55011.5	0.100936	0.312244	1316.93	89945.5
232	2.000000	1.125592	7.36732e+06	-50239.1	955.819	-29756.8	0.000000	0.000000	7.145203	455.418	NaN	0.000000	0.001682	0.001614	28.0773	102.29	0.001837	55678.2	1.210874	175.125	452.508	1.125282	0.111573	0.111263	455.418	55678.2	0.105439	0.337469	1349.51	87567.1