Folder: unikorn_login/remote_trans/data/nanoindenter/0828-1/data/Data_2025-08-06,11h17m57s (part 31)

File: 2025-07-22_16-23-58_1_60.txt
2025-07-22, 16:23:58, 1
Index	Phase	Displacement	Time	Pos X	Pos Y	Pos Z	Rot A	Rot B	Piezo Z	Force A	Force B	Gripper	Voltage A	Voltage B	Temperature	Amplitude force	Amplitude pos	Stiffness	Phase shift	Phase excitation	Force A raw	Displacement raw	HMax	HMax raw	Real Force	Real Stiffness	Contact Depth	Area	Hardness	Reduced Mod.
[#]	[#]	[um]	[s]	[um]	[um]	[um]	[m°]	[m°]	[um]	[uN]	[uN]	[V]	[V]	[V]	[°C]	[uN]	[um]	[N/m]	[°]	[°]	[uN]	[um]	[um]	[um]	[uN]	[N/m]	[um]	[um^2]	[MPa]	[MPa]
60	1.000000	0.002696	7.36563e+06	-41639.1	955.819	-29786.3	0.000000	0.000000	6.002786	-0.034382	NaN	0.000000	0.001665	0.001722	28.081	0.064711	0.000924	70.0561	-104.237	-165.102	-0.035672	0.001402	-0.981885	-0.983178	-0.034382	70.0561	-0.981517	-1.278926E+13	2.688381E-15	NaN
60	1.000000	0.040682	7.36563e+06	-41639.1	955.818	-29786.3	0.000000	0.000000	6.040772	-0.023027	NaN	0.000000	0.001613	0.001730	28.0894	0.093449	0.001928	48.4777	22.5131	14.0979	0.004563	0.039300	-0.943899	-0.945281	-0.023027	48.4777	-0.943543	-3.934860E+12	5.851960E-15	NaN
60	1.000000	0.078665	7.36563e+06	-41639.1	955.818	-29786.3	0.000000	0.000000	6.078754	-0.065244	NaN	0.000000	0.001574	0.001740	28.1286	0.061476	0.002040	30.1368	-120.512	-162.248	0.013568	0.077423	-0.905915	-0.907157	-0.065244	30.1368	-0.904292	-1.161592E+12	5.616742E-14	NaN
60	1.000000	0.116713	7.36563e+06	-41639.1	955.818	-29786.3	0.000000	0.000000	6.116807	0.054073	NaN	0.000000	0.001628	0.001705	28.1068	0.093358	0.001977	47.2256	-137.064	20.6176	0.028381	0.115360	-0.867867	-0.869221	0.054073	47.2256	-0.868726	-3.838930E+11	-1.408551E-13	NaN
60	1.000000	0.154709	7.36563e+06	-41639.1	955.818	-29786.3	0.000000	0.000000	6.154800	-0.002126	NaN	0.000000	0.001630	0.001707	28.0791	0.020488	0.001952	10.4937	-112.913	-162.778	-0.068809	0.153428	-0.829872	-0.831153	-0.002126	10.4937	-0.829720	-1.137600E+11	1.868664E-14	NaN
60	1.000000	0.192727	7.36563e+06	-41639.1	955.818	-29786.3	0.000000	0.000000	6.192819	0.002298	NaN	0.000000	0.001618	0.001718	28.0899	0.005190	0.002006	2.587292	133.022	11.6266	-0.027890	0.191374	-0.791854	-0.793207	0.002298	2.587292	-0.792520	-3.558800E+10	-6.457846E-14	NaN
60	1.000000	0.230757	7.36563e+06	-41639.1	955.819	-29786.3	0.000000	0.000000	6.230848	-0.020347	NaN	0.000000	0.001584	0.001724	28.1271	0.024378	0.002053	11.8767	65.6898	-163.551	0.041828	0.229413	-0.753824	-0.755167	-0.020347	11.8767	-0.752539	-1.018072E+10	1.998560E-12	NaN
60	1.000000	0.268768	7.36563e+06	-41639.1	955.819	-29786.3	0.000000	0.000000	6.268860	0.018829	NaN	0.000000	0.001610	0.001761	28.1062	0.045423	0.001828	24.8444	78.7269	15.833	0.074633	0.267424	-0.715813	-0.717157	0.018829	24.8444	-0.716381	-3.274270E+9	-5.750474E-12	NaN
60	1.000000	0.306793	7.36563e+06	-41639.1	955.818	-29786.3	0.000000	0.000000	6.306885	0.019349	NaN	0.000000	0.001585	0.001748	28.0794	0.076052	0.002086	36.4563	-61.2934	-162.958	0.036606	0.305452	-0.677788	-0.679128	0.019349	36.4563	-0.678186	-9.849107E+8	-1.964526E-11	NaN
60	1.000000	0.344785	7.36563e+06	-41639.1	955.819	-29786.3	0.000000	0.000000	6.344875	-0.031911	NaN	0.000000	0.001614	0.001729	28.0907	0.058280	0.002035	28.6427	-115.12	14.8424	-0.039679	0.343486	-0.639796	-0.641094	-0.031911	28.6427	-0.638960	-2.857722E+8	1.116643E-10	NaN
60	1.000000	0.382811	7.36563e+06	-41639.1	955.817	-29786.3	0.000000	0.000000	6.382901	-0.043215	NaN	0.000000	0.001569	0.001654	28.1275	0.081703	0.001966	41.5566	-116.151	-161.699	-0.041189	0.381495	-0.601769	-0.603085	-0.043215	41.5566	-0.600989	-8.591841E+7	5.029723E-10	NaN
60	1.000000	0.420837	7.36563e+06	-41639.1	955.819	-29786.3	0.000000	0.000000	6.420926	-0.058416	NaN	0.000000	0.001600	0.001683	28.1043	0.022914	0.002139	10.7121	37.3133	15.7344	-0.007083	0.419486	-0.563744	-0.565095	-0.058416	10.7121	-0.559654	-2.309886E+7	2.528974E-9	NaN
60	1.000000	0.458829	7.36563e+06	-41639.1	955.818	-29786.3	0.000000	0.000000	6.458920	-0.023370	NaN	0.000000	0.001616	0.001675	28.0787	0.056625	0.001892	29.9253	72.5389	-166.071	-0.022469	0.457512	-0.525751	-0.527069	-0.023370	29.9253	-0.525165	-7.68087e+06	3.042636E-9	NaN
60	1.000000	0.496879	7.36563e+06	-41639.1	955.818	-29786.3	0.000000	0.000000	6.496971	-0.002498	NaN	0.000000	0.001613	0.001663	28.0916	0.080651	0.002097	38.4616	154.008	18.8244	0.062779	0.495486	-0.487701	-0.489095	-0.002498	38.4616	-0.487653	-2.30454e+06	1.084031E-9	NaN
60	1.000000	0.534850	7.36563e+06	-41639.1	955.819	-29786.3	0.000000	0.000000	6.534943	0.035837	NaN	0.000000	0.001552	0.001690	28.1291	0.068866	0.001914	35.9866	40.6343	-165.518	0.026626	0.533504	-0.449731	-0.451077	0.035837	35.9866	-0.450478	-693537	-5.167258E-8	NaN
60	1.000000	0.572872	7.36563e+06	-41639.1	955.819	-29786.3	0.000000	0.000000	6.572963	-0.003665	NaN	0.000000	0.001632	0.001704	28.1048	0.032872	0.002005	16.3946	-10.6915	15.6207	0.002808	0.571575	-0.411709	-0.413006	-0.003665	16.3946	-0.411541	-195124	1.878445E-8	NaN
60	1.000000	0.610879	7.36563e+06	-41639.1	955.819	-29786.3	0.000000	0.000000	6.610973	0.037409	NaN	0.000000	0.001575	0.001664	28.0801	0.090129	0.001894	47.5985	121.642	-165.713	-0.009885	0.609611	-0.373701	-0.374969	0.037409	47.5985	-0.374291	-57262.6	-6.532845E-7	NaN
60	1.000000	0.648908	7.36563e+06	-41639.1	955.819	-29786.3	0.000000	0.000000	6.649000	0.021816	NaN	0.000000	0.001557	0.001655	28.0913	0.110441	0.001981	55.7389	-108.595	14.1166	0.079520	0.647552	-0.335673	-0.337028	0.021816	55.7389	-0.335966	-15947.9	-1.367934E-6	NaN
60	1.000000	0.686934	7.36563e+06	-41639.1	955.818	-29786.3	0.000000	0.000000	6.687026	0.002885	NaN	0.000000	0.001573	0.001684	28.1284	0.051925	0.002030	25.582	-10.6525	-160.677	-0.009411	0.685608	-0.297647	-0.298972	0.002885	25.582	-0.297731	-4353.48	-6.627169E-7	NaN
60	1.000000	0.724948	7.36563e+06	-41639.1	955.818	-29786.3	0.000000	0.000000	6.725040	-0.008026	NaN	0.000000	0.001569	0.001673	28.1027	0.132010	0.001948	67.7551	-179.355	21.5248	-0.077328	0.723558	-0.259632	-0.261023	-0.008026	67.7551	-0.259543	-1153.23	6.959779E-6	NaN
60	1.000000	0.762965	7.36563e+06	-41639.1	955.819	-29786.3	0.000000	0.000000	6.763056	-0.013740	NaN	0.000000	0.001541	0.001670	28.0795	0.053064	0.002055	25.8196	-27.055	-168.849	0.009769	0.761696	-0.221616	-0.222884	-0.013740	25.8196	-0.221217	-290.474	4.730221E-5	NaN
60	1.000000	0.800998	7.36563e+06	-41639.1	955.819	-29786.3	0.000000	0.000000	6.801091	0.021371	NaN	0.000000	0.001555	0.001685	28.0929	0.021788	0.001933	11.2737	-88.8132	16.8378	-0.048951	0.799613	-0.183582	-0.184968	0.021371	11.2737	-0.185004	-74.1651	-0.000288	NaN
60	1.000000	0.839017	7.36563e+06	-41639.1	955.818	-29786.3	0.000000	0.000000	6.839109	-0.003152	NaN	0.000000	0.001555	0.001692	28.13	0.072827	0.002026	35.9507	-116.406	-166.373	0.022430	0.837710	-0.145563	-0.146870	-0.003152	35.9507	-0.145497	-14.9748	0.000211	NaN
60	1.000000	0.877019	7.36563e+06	-41639.1	955.818	-29786.3	0.000000	0.000000	6.877113	0.054759	NaN	0.000000	0.001582	0.001708	28.1019	0.101349	0.001973	51.3802	-59.8701	16.526	0.016748	0.875629	-0.107562	-0.108952	0.054759	51.3802	-0.108361	-2.774447	-0.019737	NaN
60	1.000000	0.915035	7.36563e+06	-41639.1	955.818	-29786.3	0.000000	0.000000	6.915127	0.015939	NaN	0.000000	0.001585	0.001662	28.0806	0.081899	0.001985	41.2632	-163.956	-162.88	-0.049516	0.913685	-0.069546	-0.070896	0.015939	41.2632	-0.069835	-0.337657	-0.047204	NaN
60	1.000000	0.953068	7.36563e+06	-41639.1	955.819	-29786.3	0.000000	0.000000	6.953159	0.000692	NaN	0.000000	0.001609	0.001659	28.0908	0.074848	0.002094	35.7388	0.597604	16.6126	0.021512	0.951734	-0.031513	-0.032846	0.000692	35.7388	-0.031527	-0.025406	-0.027249	NaN
60	1.000000	0.991034	7.36563e+06	-41639.1	955.819	-29786.3	0.000000	0.000000	6.991189	1.554685	NaN	0.000000	0.001597	0.001639	28.1292	1.436251	0.001773	810.286	22.2576	-167.346	1.352608	0.989697	0.006453	0.005117	1.554685	810.286	0.005014	0.004146	374.941	11496.7
60	2.000000	1.011082	7.36563e+06	-41639.1	955.818	-29786.3	0.000000	0.000000	7.011904	17.7602	NaN	0.000000	0.001597	0.001672	28.1003	13.6615	0.001846	7400.32	3.273765	10.3036	17.6632	1.010689	0.026502	0.026109	17.7602	7400.32	0.024702	0.030476	582.769	38730
60	2.000000	1.020550	7.36563e+06	-41639.1	955.819	-29786.3	0.000000	0.000000	7.021877	30.0519	NaN	0.000000	0.001577	0.001674	28.0811	22.1731	0.001795	12352.3	4.711347	-175.473	30.164	1.020199	0.035970	0.035618	30.0519	12352.3	0.034145	0.049774	603.766	50584.8
60	2.000000	1.030001	7.36563e+06	-41639.1	955.819	-29786.3	0.000000	0.000000	7.032102	48.8854	NaN	0.000000	0.001541	0.001695	28.0933	28.718	0.001750	16414.3	1.733311	4.784438	47.5517	1.029727	0.045420	0.045146	48.8854	16414.3	0.043187	0.072523	674.071	55687.7
60	2.000000	1.039465	7.36563e+06	-41639.1	955.819	-29786.3	0.000000	0.000000	7.042746	77.5896	NaN	0.000000	0.001585	0.001645	28.1307	36.9232	0.001792	20600.7	3.203650	-177.922	76.4161	1.039126	0.054885	0.054545	77.5896	20600.7	0.052060	0.098887	784.628	59852.8
60	2.000000	1.048976	7.36563e+06	-41639.1	955.82	-29786.3	0.000000	0.000000	7.053585	109.916	NaN	0.000000	0.001622	0.001695	28.1008	46.4885	0.001775	26186.9	3.640327	-1.203876	109.069	1.048605	0.064396	0.064024	109.916	26186.9	0.061248	0.130320	843.427	66275.1
60	2.000000	1.058450	7.36563e+06	-41639.1	955.82	-29786.3	0.000000	0.000000	7.064924	155.296	NaN	0.000000	0.001575	0.001670	28.0799	56.5736	0.001885	30009.4	4.430143	177.231	156.027	1.058182	0.073869	0.073601	155.296	30009.4	0.069988	0.164040	946.695	67694.9
60	2.000000	1.067939	7.36564e+06	-41639.1	955.819	-29786.3	0.000000	0.000000	7.076690	210.695	NaN	0.000000	0.001587	0.001647	28.0926	65.8278	0.001788	36814.1	4.432273	-4.834420	209.65	1.067542	0.083359	0.082962	210.695	36814.1	0.079066	0.202910	1038.37	74668.1
60	2.000000	1.077487	7.36564e+06	-41639.1	955.818	-29786.3	0.000000	0.000000	7.088793	272.875	NaN	0.000000	0.001576	0.001649	28.1294	76.2202	0.001887	40387.7	2.952446	176.179	276.57	1.077108	0.092906	0.092528	272.875	40387.7	0.087839	0.244129	1117.75	74681.4
60	2.000000	1.086920	7.36564e+06	-41639.1	955.82	-29786.3	0.000000	0.000000	7.101527	353.172	NaN	0.000000	0.001623	0.001662	28.0997	84.1825	0.001798	46807.4	5.100596	-7.023527	348.996	1.086543	0.102340	0.101963	353.172	46807.4	0.096681	0.289258	1220.96	79514.3
60	2.000000	1.096348	7.36564e+06	-41639.1	955.82	-29786.3	0.000000	0.000000	7.114637	442.788	NaN	0.000000	0.001608	0.001684	28.0801	92.1573	0.001775	51923.2	3.103874	174.394	439.49	1.096006	0.111767	0.111426	442.788	51923.2	0.105371	0.337085	1313.58	81708.1
60	2.000000	1.103362	7.36564e+06	-41639.1	955.82	-29786.3	0.000000	0.000000	7.124603	514.607	NaN	0.000000	0.001601	0.001667	28.1304	100.916	0.001829	55175.8	8.928803	167.976	512.696	1.103067	0.118782	0.118487	514.607	55175.8	0.111787	0.374589	1373.79	82365.4

File: 2025-07-22_16-23-58_1_61.txt
2025-07-22, 16:23:58, 1
Index	Phase	Displacement	Time	Pos X	Pos Y	Pos Z	Rot A	Rot B	Piezo Z	Force A	Force B	Gripper	Voltage A	Voltage B	Temperature	Amplitude force	Amplitude pos	Stiffness	Phase shift	Phase excitation	Force A raw	Displacement raw	HMax	HMax raw	Real Force	Real Stiffness	Contact Depth	Area	Hardness	Reduced Mod.
[#]	[#]	[um]	[s]	[um]	[um]	[um]	[m°]	[m°]	[um]	[uN]	[uN]	[V]	[V]	[V]	[°C]	[uN]	[um]	[N/m]	[°]	[°]	[uN]	[um]	[um]	[um]	[uN]	[N/m]	[um]	[um^2]	[MPa]	[MPa]
61	1.000000	0.002752	7.36564e+06	-41689.1	955.819	-29786	0.000000	0.000000	6.002778	0.018328	NaN	0.000000	0.001584	0.001674	28.0973	0.105192	0.000945	111.369	-168.565	-168.564	-0.060334	0.001555	-1.087154	-1.088351	0.018328	111.369	-1.087277	-3.382597E+14	-5.418334E-17	NaN
61	1.000000	0.042727	7.36564e+06	-41689.1	955.817	-29786	0.000000	0.000000	6.042756	0.093329	NaN	0.000000	0.001655	0.001634	28.0983	0.050971	0.001904	26.7699	54.5897	-167.389	-0.007508	0.041431	-1.047179	-1.048475	0.093329	26.7699	-1.049794	-1.060820E+14	-8.797774E-16	NaN
61	1.000000	0.082736	7.36564e+06	-41689.1	955.819	-29786	0.000000	0.000000	6.082761	0.013343	NaN	0.000000	0.001657	0.001661	28.0991	0.021333	0.001903	11.209	-154.981	-168.401	0.075721	0.081414	-1.007170	-1.008492	0.013343	11.209	-1.008063	-2.912792E+13	-4.580863E-16	NaN
61	1.000000	0.122761	7.36564e+06	-41689.1	955.817	-29786	0.000000	0.000000	6.122786	0.017978	NaN	0.000000	0.001674	0.001691	28.0992	0.074913	0.002042	36.6901	-51.4718	-167.227	0.091759	0.121460	-0.967146	-0.968446	0.017978	36.6901	-0.967513	-8.282189E+12	-2.170740E-15	NaN
61	1.000000	0.162811	7.36564e+06	-41689.1	955.817	-29786	0.000000	0.000000	6.162834	-0.026728	NaN	0.000000	0.001659	0.001633	28.0983	0.173664	0.002107	82.417	-122.39	-165.486	-0.014828	0.161465	-0.927095	-0.928441	-0.026728	82.417	-0.926852	-2.342669E+12	1.140901E-14	NaN
61	1.000000	0.202774	7.36564e+06	-41689.1	955.818	-29786	0.000000	0.000000	6.202800	0.030874	NaN	0.000000	0.001611	0.001668	28.0982	0.078157	0.001996	39.1582	-83.9897	-162.093	0.062854	0.201448	-0.887132	-0.888458	0.030874	39.1582	-0.887723	-6.936439E+11	-4.450983E-14	NaN
61	1.000000	0.242785	7.36564e+06	-41689.1	955.819	-29786	0.000000	0.000000	6.242811	0.026288	NaN	0.000000	0.001677	0.001639	28.0965	0.058750	0.002030	28.9365	119.414	-164.913	0.024337	0.241496	-0.847121	-0.848410	0.026288	28.9365	-0.847802	-1.999757E+11	-1.314553E-13	NaN
61	1.000000	0.282814	7.36564e+06	-41689.1	955.818	-29786	0.000000	0.000000	6.282840	0.031030	NaN	0.000000	0.001687	0.001655	28.0975	0.039064	0.001886	20.7105	12.3749	-162.894	-0.025724	0.281550	-0.807092	-0.808356	0.031030	20.7105	-0.808216	-5.812559E+10	-5.338487E-13	NaN
61	1.000000	0.322845	7.36564e+06	-41689.1	955.818	-29786	0.000000	0.000000	6.322872	0.053891	NaN	0.000000	0.001655	0.001693	28.096	0.067437	0.001989	33.9063	-128.07	-167.311	0.021659	0.321532	-0.767061	-0.768374	0.053891	33.9063	-0.768253	-1.665519E+10	-3.235675E-12	NaN
61	1.000000	0.362849	7.36564e+06	-41689.1	955.818	-29786	0.000000	0.000000	6.362872	-0.023033	NaN	0.000000	0.001611	0.001781	28.0984	0.046838	0.002008	23.3235	169.953	-165.203	0.030630	0.361605	-0.727058	-0.728301	-0.023033	23.3235	-0.726317	-4.473077E+9	5.149181E-12	NaN
61	1.000000	0.402898	7.36564e+06	-41689.1	955.819	-29786	0.000000	0.000000	6.402922	-0.003926	NaN	0.000000	0.001619	0.001677	28.0972	0.081112	0.002002	40.5102	-159.997	-164.369	0.046262	0.401526	-0.687008	-0.688380	-0.003926	40.5102	-0.686936	-1.297289E+9	3.026573E-12	NaN
61	1.000000	0.442907	7.36564e+06	-41689.1	955.819	-29786	0.000000	0.000000	6.442932	-0.004204	NaN	0.000000	0.001614	0.001795	28.0981	0.014398	0.002007	7.174447	-84.4151	-166.478	0.031788	0.441581	-0.646999	-0.648325	-0.004204	7.174447	-0.646560	-3.632996E+8	1.157150E-11	NaN
61	1.000000	0.482932	7.36564e+06	-41689.1	955.819	-29786	0.000000	0.000000	6.482957	0.019371	NaN	0.000000	0.001618	0.001739	28.0964	0.077616	0.001978	39.2336	-119.716	-164.993	0.061717	0.481626	-0.606974	-0.608280	0.019371	39.2336	-0.607345	-1.050932E+8	-1.843181E-10	NaN
61	1.000000	0.522914	7.36564e+06	-41689.1	955.82	-29786	0.000000	0.000000	6.522941	0.065631	NaN	0.000000	0.001632	0.001756	28.0971	0.024924	0.002109	11.8151	-31.5399	-162.574	0.028357	0.521624	-0.566993	-0.568282	0.065631	11.8151	-0.571159	-3.331505E+7	-1.970022E-9	NaN
61	1.000000	0.562955	7.36564e+06	-41689.1	955.818	-29786	0.000000	0.000000	6.562981	0.044088	NaN	0.000000	0.001613	0.001760	28.0939	0.063683	0.002016	31.5816	90.0258	-164.793	-0.032855	0.561621	-0.526951	-0.528286	0.044088	31.5816	-0.527998	-8.40957e+06	-5.242643E-9	NaN
61	1.000000	0.602941	7.36564e+06	-41689.1	955.819	-29786	0.000000	0.000000	6.602968	0.054052	NaN	0.000000	0.001672	0.001719	28.0959	0.008249	0.001912	4.314960	-87.7492	-163.228	0.038721	0.601665	-0.486965	-0.488241	0.054052	4.314960	-0.496360	-3.04943e+06	-1.772510E-8	NaN
61	1.000000	0.642984	7.36564e+06	-41689.1	955.818	-29786	0.000000	0.000000	6.643009	0.001201	NaN	0.000000	0.001670	0.001708	28.0956	0.045570	0.002040	22.341	-13.6948	-166.915	0.036009	0.641680	-0.446922	-0.448227	0.001201	22.341	-0.446962	-618804	-1.940271E-9	NaN
61	1.000000	0.683014	7.36564e+06	-41689.1	955.819	-29786	0.000000	0.000000	6.683039	0.017602	NaN	0.000000	0.001632	0.001717	28.0965	0.068927	0.002038	33.8125	173.602	-166.699	-0.019308	0.681706	-0.406893	-0.408201	0.017602	33.8125	-0.407283	-169726	-1.037100E-7	NaN
61	1.000000	0.723001	7.36564e+06	-41689.1	955.819	-29786	0.000000	0.000000	6.723030	0.086566	NaN	0.000000	0.001622	0.001704	28.0966	0.067009	0.002071	32.362	168.148	-165.17	0.096929	0.721721	-0.366905	-0.368185	0.086566	32.362	-0.368911	-47911.6	-1.806793E-6	NaN
61	1.000000	0.763045	7.36564e+06	-41689.1	955.818	-29786	0.000000	0.000000	6.763073	0.078288	NaN	0.000000	0.001608	0.001703	28.0951	0.105825	0.002065	51.249	-12.93	-166.305	0.092874	0.761706	-0.326861	-0.328201	0.078288	51.249	-0.328007	-12196.9	-6.418666E-6	NaN
61	1.000000	0.803066	7.36564e+06	-41689.1	955.818	-29786	0.000000	0.000000	6.803092	0.027957	NaN	0.000000	0.001590	0.001726	28.095	0.072294	0.002028	35.6438	-43.9015	-165.252	-0.014071	0.801758	-0.286840	-0.288148	0.027957	35.6438	-0.287428	-3053.1	-9.157040E-6	NaN
61	1.000000	0.843057	7.36564e+06	-41689.1	955.818	-29786	0.000000	0.000000	6.843087	0.131443	NaN	0.000000	0.001598	0.001709	28.0949	0.036029	0.001902	18.9391	170.62	-160.866	0.082062	0.841753	-0.246849	-0.248154	0.131443	18.9391	-0.252054	-884.519	-0.000149	NaN
61	1.000000	0.883075	7.36564e+06	-41689.1	955.817	-29786	0.000000	0.000000	6.883102	0.049631	NaN	0.000000	0.001621	0.001719	28.0981	0.014658	0.002008	7.299367	-126.995	-167.837	0.067210	0.881793	-0.206831	-0.208113	0.049631	7.299367	-0.211930	-206.082	-0.000241	NaN
61	1.000000	0.923061	7.36564e+06	-41689.1	955.818	-29786	0.000000	0.000000	6.923088	0.039988	NaN	0.000000	0.001617	0.001734	28.0965	0.020950	0.002011	10.4198	-126.16	-165.184	0.020971	0.921797	-0.166845	-0.168109	0.039988	10.4198	-0.169723	-40.6261	-0.000984	NaN
61	1.000000	0.963115	7.36564e+06	-41689.1	955.817	-29786	0.000000	0.000000	6.963139	0.000244	NaN	0.000000	0.001617	0.001707	28.095	0.044780	0.001980	22.6206	-116.375	-164.907	-0.001970	0.961812	-0.126792	-0.128094	0.000244	22.6206	-0.126800	-6.599058	-3.692999E-5	NaN
61	1.000000	1.003114	7.36564e+06	-41689.1	955.819	-29786	0.000000	0.000000	7.003138	-0.016366	NaN	0.000000	0.001619	0.001658	28.096	0.039806	0.002041	19.5059	125.914	-164.543	0.057658	1.001812	-0.086793	-0.088095	-0.016366	19.5059	-0.086163	-0.876460	0.018672	NaN
61	1.000000	1.043128	7.36564e+06	-41689.1	955.82	-29786	0.000000	0.000000	7.043154	0.049202	NaN	0.000000	0.001638	0.001674	28.0924	0.032287	0.002004	16.1121	44.8431	-163.891	0.022467	1.041846	-0.046779	-0.048060	0.049202	16.1121	-0.049069	-0.085514	-0.575371	NaN
61	1.000000	1.083177	7.36564e+06	-41689.1	955.818	-29786	0.000000	0.000000	7.083204	0.059911	NaN	0.000000	0.001634	0.001666	28.0939	0.074705	0.002005	37.2509	168.531	-166.546	0.033848	1.081892	-0.006729	-0.008014	0.059911	37.2509	-0.007936	-0.005194	-11.5347	NaN
61	2.000000	1.104652	7.36564e+06	-41689.1	955.817	-29786	0.000000	0.000000	7.105501	20.073	NaN	0.000000	0.001647	0.001684	28.0928	15.7654	0.001702	9262.31	1.113859	-170.859	19.4321	1.104323	0.014745	0.014417	20.073	9262.31	0.013120	0.012859	1560.96	74624.6
61	2.000000	1.114651	7.36564e+06	-41689.1	955.818	-29786	0.000000	0.000000	7.116405	42.0796	NaN	0.000000	0.001635	0.001675	28.096	25.9125	0.001815	14279.9	6.707799	-178.778	43.3226	1.114302	0.024745	0.024396	42.0796	14279.9	0.022535	0.026682	1577.05	79870.5
61	2.000000	1.124571	7.36564e+06	-41689.1	955.818	-29786	0.000000	0.000000	7.127586	72.7508	NaN	0.000000	0.001612	0.001660	28.0934	34.9071	0.001836	19014.6	4.198530	-178.896	72.3217	1.124241	0.034665	0.034335	72.7508	19014.6	0.031795	0.044547	1633.13	82309.8
61	2.000000	1.134633	7.36564e+06	-41689.1	955.817	-29786	0.000000	0.000000	7.138965	104.8	NaN	0.000000	0.001598	0.001674	28.0949	44.0711	0.001803	24445.8	5.122152	177.611	105.89	1.134305	0.044727	0.044398	104.8	24445.8	0.041512	0.067994	1541.3	85652.9
61	2.000000	1.144576	7.36564e+06	-41689.1	955.818	-29786	0.000000	0.000000	7.150674	147.773	NaN	0.000000	0.001572	0.001666	28.0941	53.2975	0.001878	28375.9	1.721251	179.47	148.595	1.144274	0.054670	0.054368	147.773	28375.9	0.050764	0.094790	1558.95	84205.5
61	2.000000	1.154544	7.36564e+06	-41689.1	955.82	-29786	0.000000	0.000000	7.162708	198.043	NaN	0.000000	0.001634	0.001674	28.0946	61.7355	0.001899	32514.9	6.272878	175.387	197.609	1.154104	0.064638	0.064198	198.043	32514.9	0.060070	0.126060	1571.03	83669.7
61	2.000000	1.164543	7.36564e+06	-41689.1	955.818	-29786	0.000000	0.000000	7.174865	250.568	NaN	0.000000	0.001613	0.001674	28.0917	71.6846	0.001839	38975.9	5.834682	173.386	251.843	1.164276	0.074636	0.074370	250.568	38975.9	0.069815	0.163335	1534.07	88110.9
61	2.000000	1.174511	7.36564e+06	-41689.1	955.819	-29786	0.000000	0.000000	7.187171	307.445	NaN	0.000000	0.001587	0.001691	28.0929	80.9181	0.001684	48062.1	0.138222	176.845	307.181	1.174345	0.084605	0.084439	307.445	48062.1	0.079807	0.206255	1490.61	96688.4
61	2.000000	1.184531	7.36565e+06	-41689.1	955.818	-29786	0.000000	0.000000	7.200099	378.198	NaN	0.000000	0.001545	0.001675	28.093	91.1928	0.001811	50362.4	6.273792	171.344	377.763	1.184150	0.094625	0.094244	378.198	50362.4	0.088993	0.249815	1513.91	92059.9
61	2.000000	1.194475	7.36565e+06	-41689.1	955.818	-29786	0.000000	0.000000	7.212857	446.667	NaN	0.000000	0.001581	0.001655	28.0948	98.4704	0.001785	55177.1	1.839784	174.212	444.289	1.194232	0.104569	0.104326	446.667	55177.1	0.098498	0.298973	1494	92196.9
61	2.000000	1.196960	7.36565e+06	-41689.1	955.819	-29786	0.000000	0.000000	7.216563	476.388	NaN	0.000000	0.001656	0.001699	28.131	100.374	0.001850	54252	3.505411	-6.621979	470.118	1.196529	0.107054	0.106623	476.388	54252	0.100468	0.309678	1538.33	89070.6