Folder: unikorn_login/remote_trans/data/nanoindenter/0828-1/data/Data_2025-08-06,11h17m57s (part 67)

File: 2025-07-22_16-23-58_1_151.txt
2025-07-22, 16:23:58, 1
Index	Phase	Displacement	Time	Pos X	Pos Y	Pos Z	Rot A	Rot B	Piezo Z	Force A	Force B	Gripper	Voltage A	Voltage B	Temperature	Amplitude force	Amplitude pos	Stiffness	Phase shift	Phase excitation	Force A raw	Displacement raw	HMax	HMax raw	Real Force	Real Stiffness	Contact Depth	Area	Hardness	Reduced Mod.
[#]	[#]	[um]	[s]	[um]	[um]	[um]	[m°]	[m°]	[um]	[uN]	[uN]	[V]	[V]	[V]	[°C]	[uN]	[um]	[N/m]	[°]	[°]	[uN]	[um]	[um]	[um]	[uN]	[N/m]	[um]	[um^2]	[MPa]	[MPa]
151	1.000000	0.002659	7.36651e+06	-46189.1	955.818	-29770.4	0.000000	0.000000	6.002806	-0.025132	NaN	0.000000	0.001718	0.001591	28.1225	0.013579	0.001006	13.4914	155.37	-162.231	-0.035844	0.001432	-1.136049	-1.137276	-0.025132	13.4914	-1.134651	-1.462209E+15	1.718768E-17	NaN
151	1.000000	0.044606	7.36651e+06	-46189.1	955.817	-29770.4	0.000000	0.000000	6.044756	0.076085	NaN	0.000000	0.001761	0.001670	28.084	0.055591	0.002025	27.4488	-23.3666	12.7148	0.105474	0.043282	-1.094102	-1.095426	0.076085	27.4488	-1.096181	-4.454487E+14	-1.708057E-16	NaN
151	1.000000	0.086596	7.36651e+06	-46189.1	955.819	-29770.4	0.000000	0.000000	6.086744	0.014777	NaN	0.000000	0.001709	0.001640	28.0805	0.077017	0.002022	38.0838	113.558	-163.401	0.057838	0.085269	-1.052112	-1.053439	0.014777	38.0838	-1.052403	-1.150032E+14	-1.284921E-16	NaN
151	1.000000	0.128626	7.36651e+06	-46189.1	955.819	-29770.4	0.000000	0.000000	6.128773	0.010140	NaN	0.000000	0.001664	0.001633	28.1165	0.023989	0.002019	11.8786	152.222	16.4143	0.010401	0.127246	-1.010082	-1.011462	0.010140	11.8786	-1.010722	-3.163048E+13	-3.205645E-16	NaN
151	1.000000	0.170649	7.36651e+06	-46189.1	955.818	-29770.4	0.000000	0.000000	6.170797	0.032479	NaN	0.000000	0.001701	0.001627	28.1218	0.059555	0.001938	30.7338	-134.748	-163.88	-0.001675	0.169301	-0.968059	-0.969407	0.032479	30.7338	-0.968852	-8.633564E+12	-3.761951E-15	NaN
151	1.000000	0.212642	7.36651e+06	-46189.1	955.819	-29770.4	0.000000	0.000000	6.212790	0.013495	NaN	0.000000	0.001703	0.001618	28.0843	0.049990	0.002019	24.764	-170.581	16.1598	0.005975	0.211322	-0.926066	-0.927386	0.013495	24.764	-0.926475	-2.315329E+12	-5.828402E-15	NaN
151	1.000000	0.254694	7.36652e+06	-46189.1	955.819	-29770.4	0.000000	0.000000	6.254841	-0.006092	NaN	0.000000	0.001688	0.001671	28.0809	0.081512	0.001976	41.2545	116.008	-163.849	0.041878	0.253363	-0.884014	-0.885344	-0.006092	41.2545	-0.883904	-6.158767E+11	9.892062E-15	NaN
151	1.000000	0.296664	7.36652e+06	-46189.1	955.818	-29770.4	0.000000	0.000000	6.296811	0.003599	NaN	0.000000	0.001702	0.001633	28.116	0.082768	0.001983	41.7315	-150.327	13.7744	-0.060003	0.295335	-0.842044	-0.843373	0.003599	41.7315	-0.842109	-1.674408E+11	-2.149656E-14	NaN
151	1.000000	0.338734	7.36652e+06	-46189.1	955.818	-29770.4	0.000000	0.000000	6.338880	-0.043220	NaN	0.000000	0.001759	0.001631	28.1228	0.066639	0.001956	34.0719	74.491	-165.293	-0.055028	0.337382	-0.799973	-0.801326	-0.043220	34.0719	-0.799022	-4.361011E+10	9.910507E-13	NaN
151	1.000000	0.380742	7.36652e+06	-46189.1	955.818	-29770.4	0.000000	0.000000	6.380888	-0.034334	NaN	0.000000	0.001739	0.001625	28.084	0.018056	0.002067	8.733938	55.5773	16.9388	-0.033680	0.379456	-0.757966	-0.759252	-0.034334	8.733938	-0.755018	-1.100302E+10	3.120405E-12	NaN
151	1.000000	0.422743	7.36652e+06	-46189.1	955.819	-29770.4	0.000000	0.000000	6.422891	0.008978	NaN	0.000000	0.001724	0.001611	28.0793	0.067507	0.001910	35.337	161.29	-163.791	0.008695	0.421428	-0.715965	-0.717279	0.008978	35.337	-0.716155	-3.251104E+9	-2.761386E-12	NaN
151	1.000000	0.464747	7.36652e+06	-46189.1	955.818	-29770.4	0.000000	0.000000	6.464895	0.006545	NaN	0.000000	0.001758	0.001635	28.1157	0.071743	0.001953	36.7305	-134.215	12.6459	0.070283	0.463414	-0.673960	-0.675294	0.006545	36.7305	-0.674094	-8.657975E+8	-7.559174E-12	NaN
151	1.000000	0.506779	7.36652e+06	-46189.1	955.818	-29770.4	0.000000	0.000000	6.506924	-0.049938	NaN	0.000000	0.001664	0.001623	28.1245	0.140830	0.001945	72.3916	-5.606012	-161.316	-0.063904	0.505502	-0.631929	-0.633206	-0.049938	72.3916	-0.631411	-2.251150E+8	2.218339E-10	NaN
151	1.000000	0.548820	7.36652e+06	-46189.1	955.818	-29770.4	0.000000	0.000000	6.548968	0.010172	NaN	0.000000	0.001674	0.001653	28.0864	0.131791	0.001994	66.1073	-109.742	16.6949	-0.019719	0.547485	-0.589888	-0.591222	0.010172	66.1073	-0.590003	-6.063311E+7	-1.677655E-10	NaN
151	1.000000	0.590825	7.36652e+06	-46189.1	955.818	-29770.4	0.000000	0.000000	6.590974	0.043238	NaN	0.000000	0.001694	0.001676	28.0806	0.067878	0.001919	35.3654	-133.9	-162.759	-0.021364	0.589520	-0.547883	-0.549188	0.043238	35.3654	-0.548800	-1.634306E+7	-2.645642E-9	NaN
151	1.000000	0.632848	7.36652e+06	-46189.1	955.819	-29770.4	0.000000	0.000000	6.632997	0.032914	NaN	0.000000	0.001697	0.001674	28.1132	0.051825	0.001958	26.4706	144.83	17.3014	-0.022528	0.631492	-0.505860	-0.507215	0.032914	26.4706	-0.506792	-4.26311e+06	-7.720632E-9	NaN
151	1.000000	0.674866	7.36652e+06	-46189.1	955.819	-29770.4	0.000000	0.000000	6.675012	-0.024866	NaN	0.000000	0.001722	0.001674	28.1241	0.060654	0.002067	29.3461	-16.7675	-165.312	-0.021436	0.673585	-0.463842	-0.465122	-0.024866	29.3461	-0.463207	-1.04728e+06	2.374345E-8	NaN
151	1.000000	0.716905	7.36652e+06	-46189.1	955.818	-29770.4	0.000000	0.000000	6.717053	0.019544	NaN	0.000000	0.001674	0.001664	28.085	0.062982	0.002144	29.3728	93.1872	14.2173	0.040429	0.715543	-0.421803	-0.423164	0.019544	29.3728	-0.422302	-277366	-7.046425E-8	NaN
151	1.000000	0.758891	7.36652e+06	-46189.1	955.819	-29770.4	0.000000	0.000000	6.759036	-0.055291	NaN	0.000000	0.001718	0.001695	28.0834	0.040023	0.002021	19.8015	93.287	-164.065	0.046466	0.757625	-0.379817	-0.381083	-0.055291	19.8015	-0.377722	-64148.9	8.619137E-7	NaN
151	1.000000	0.800933	7.36652e+06	-46189.1	955.818	-29770.4	0.000000	0.000000	6.801082	0.041858	NaN	0.000000	0.001699	0.001715	28.1134	0.058415	0.002118	27.5821	91.4099	14.7374	-0.063217	0.799541	-0.337775	-0.339167	0.041858	27.5821	-0.338913	-17607.7	-2.377231E-6	NaN
151	1.000000	0.842919	7.36652e+06	-46189.1	955.819	-29770.4	0.000000	0.000000	6.843064	-0.051262	NaN	0.000000	0.001718	0.001660	28.1268	0.044378	0.002125	20.8874	97.9831	-162.13	-0.009361	0.841589	-0.295789	-0.297119	-0.051262	20.8874	-0.293948	-3822.78	1.340949E-5	NaN
151	1.000000	0.884951	7.36652e+06	-46189.1	955.819	-29770.4	0.000000	0.000000	6.885098	0.002662	NaN	0.000000	0.001700	0.001653	28.0849	0.055484	0.001943	28.5565	44.9777	14.8352	0.015351	0.883612	-0.253757	-0.255096	0.002662	28.5565	-0.253827	-941.997	-2.826197E-6	NaN
151	1.000000	0.926972	7.36652e+06	-46189.1	955.819	-29770.4	0.000000	0.000000	6.927116	-0.085922	NaN	0.000000	0.001676	0.001670	28.0821	0.051125	0.001985	25.7607	-55.5304	-163.339	-0.051475	0.925649	-0.211736	-0.213059	-0.085922	25.7607	-0.209235	-186.388	0.000461	NaN
151	1.000000	0.968992	7.36652e+06	-46189.1	955.819	-29770.4	0.000000	0.000000	6.969139	-0.002846	NaN	0.000000	0.001696	0.001730	28.1099	0.073956	0.001962	37.6847	-18.3936	14.8922	-0.027618	0.967643	-0.169716	-0.171065	-0.002846	37.6847	-0.169660	-40.5229	7.023318E-5	NaN
151	1.000000	1.011015	7.36652e+06	-46189.1	955.817	-29770.4	0.000000	0.000000	7.011165	0.053891	NaN	0.000000	0.001674	0.001705	28.1271	0.101665	0.001997	50.9163	164.18	-165.253	0.130587	1.009733	-0.127693	-0.128975	0.053891	50.9163	-0.128487	-7.120885	-0.007568	NaN
151	1.000000	1.053033	7.36652e+06	-46189.1	955.819	-29770.4	0.000000	0.000000	7.053177	-0.078649	NaN	0.000000	0.001676	0.001762	28.0872	0.128685	0.001940	66.3492	102.528	15.8842	-0.038219	1.051705	-0.085675	-0.087003	-0.078649	66.3492	-0.084786	-0.811878	0.096873	NaN
151	1.000000	1.095039	7.36652e+06	-46189.1	955.819	-29770.4	0.000000	0.000000	7.095185	-0.020379	NaN	0.000000	0.001693	0.001723	28.0818	0.019251	0.001861	10.3429	-19.374	-165.977	0.000665	1.093720	-0.043669	-0.044988	-0.020379	10.3429	-0.042191	-0.052737	0.386416	NaN
151	1.000000	1.137056	7.36652e+06	-46189.1	955.819	-29770.4	0.000000	0.000000	7.137201	-0.047193	NaN	0.000000	0.001730	0.001681	28.1108	0.058481	0.002079	28.1262	-142.141	14.7517	0.031412	1.135700	-0.001652	-0.003008	-0.047193	28.1262	-0.000393	-0.000292	161.712	NaN
151	2.000000	1.156659	7.36652e+06	-46189.1	955.818	-29770.4	0.000000	0.000000	7.157525	17.4732	NaN	0.000000	0.001674	0.001670	28.1271	16.0764	0.001771	9078.34	10.5706	-177.119	18.1714	1.156367	0.017952	0.017659	17.4732	9078.34	0.016508	0.017349	1007.15	62971
151	2.000000	1.167096	7.36652e+06	-46189.1	955.818	-29770.4	0.000000	0.000000	7.168815	38.2275	NaN	0.000000	0.001702	0.001682	28.0854	25.2239	0.001734	14545	1.567311	6.435732	37.0299	1.166815	0.028388	0.028107	38.2275	14545	0.026417	0.033644	1136.23	72449
151	2.000000	1.177571	7.36652e+06	-46189.1	955.818	-29770.4	0.000000	0.000000	7.180414	65.5519	NaN	0.000000	0.001646	0.001648	28.0814	35.2563	0.001801	19572	5.556021	179.679	63.9057	1.177262	0.038863	0.038554	65.5519	19572	0.036351	0.054940	1193.16	76289.5
151	2.000000	1.188060	7.36652e+06	-46189.1	955.817	-29770.4	0.000000	0.000000	7.192524	105.006	NaN	0.000000	0.001674	0.001669	28.1097	44.6562	0.001834	24349.7	5.854388	-2.476801	102.653	1.187766	0.049352	0.049058	105.006	24349.7	0.046118	0.080793	1299.7	78267.4
151	2.000000	1.198550	7.36652e+06	-46189.1	955.817	-29770.4	0.000000	0.000000	7.204845	149.563	NaN	0.000000	0.001700	0.001685	28.1277	55.4365	0.001814	30566.8	3.373791	177.793	146.614	1.198221	0.059842	0.059513	149.563	30566.8	0.056172	0.112440	1330.16	83284
151	2.000000	1.209166	7.36652e+06	-46189.1	955.819	-29770.4	0.000000	0.000000	7.217660	203.032	NaN	0.000000	0.001674	0.001664	28.0875	66.8421	0.001842	36281.5	8.703923	-9.293665	207.814	1.208802	0.070459	0.070095	203.032	36281.5	0.066262	0.149214	1360.68	85813.1
151	2.000000	1.219510	7.36652e+06	-46189.1	955.819	-29770.4	0.000000	0.000000	7.230901	273.497	NaN	0.000000	0.001683	0.001658	28.0806	75.9282	0.001670	45477.8	4.115009	173.314	272.728	1.219164	0.080802	0.080456	273.497	45477.8	0.076292	0.190620	1434.77	95167.4
151	2.000000	1.230042	7.36652e+06	-46189.1	955.819	-29770.4	0.000000	0.000000	7.244389	345.425	NaN	0.000000	0.001643	0.001669	28.1081	86.1788	0.001820	47357.8	6.170648	-8.723759	345.669	1.229565	0.091334	0.090857	345.425	47357.8	0.085863	0.234537	1472.79	89342.6
151	2.000000	1.240493	7.36652e+06	-46189.1	955.818	-29770.4	0.000000	0.000000	7.258257	428.547	NaN	0.000000	0.001640	0.001667	28.1272	95.7713	0.001840	52036.5	4.552758	171.998	427.375	1.240012	0.101785	0.101304	428.547	52036.5	0.095608	0.283593	1511.14	89275.8
151	2.000000	1.247444	7.36652e+06	-46189.1	955.82	-29770.4	0.000000	0.000000	7.267354	480.731	NaN	0.000000	0.001641	0.001689	28.08	101.27	0.001805	56104.7	6.733037	168.38	476.076	1.247121	0.108736	0.108414	480.731	56104.7	0.102310	0.319846	1503.01	90636.2

File: 2025-07-22_16-23-58_1_152.txt
2025-07-22, 16:23:58, 1
Index	Phase	Displacement	Time	Pos X	Pos Y	Pos Z	Rot A	Rot B	Piezo Z	Force A	Force B	Gripper	Voltage A	Voltage B	Temperature	Amplitude force	Amplitude pos	Stiffness	Phase shift	Phase excitation	Force A raw	Displacement raw	HMax	HMax raw	Real Force	Real Stiffness	Contact Depth	Area	Hardness	Reduced Mod.
[#]	[#]	[um]	[s]	[um]	[um]	[um]	[m°]	[m°]	[um]	[uN]	[uN]	[V]	[V]	[V]	[°C]	[uN]	[um]	[N/m]	[°]	[°]	[uN]	[um]	[um]	[um]	[uN]	[N/m]	[um]	[um^2]	[MPa]	[MPa]
152	1.000000	0.001980	7.36652e+06	-46239.1	955.818	-29770.3	0.000000	0.000000	6.002816	-0.071844	NaN	0.000000	0.001712	0.001668	28.1308	0.036620	0.001085	33.7481	-12.0285	-164.293	-0.036401	0.000690	-1.042574	-1.043863	-0.071844	33.7481	-1.040977	-8.074293E+13	8.897867E-16	NaN
152	1.000000	0.041915	7.36652e+06	-46239.1	955.818	-29770.3	0.000000	0.000000	6.042753	-0.029557	NaN	0.000000	0.001732	0.001668	28.1292	0.071053	0.001915	37.1012	133.162	-168.267	-0.060553	0.040593	-1.002638	-1.003960	-0.029557	37.1012	-1.002041	-2.416812E+13	1.222980E-15	NaN
152	1.000000	0.081935	7.36652e+06	-46239.1	955.818	-29770.3	0.000000	0.000000	6.082775	0.029555	NaN	0.000000	0.001641	0.001690	28.1296	0.051199	0.002008	25.5007	-108.273	-166.976	0.063933	0.080616	-0.962619	-0.963938	0.029555	25.5007	-0.963488	-7.309567E+12	-4.043309E-15	NaN
152	1.000000	0.121941	7.36652e+06	-46239.1	955.819	-29770.3	0.000000	0.000000	6.122780	0.002572	NaN	0.000000	0.001648	0.001673	28.1306	0.096450	0.002053	46.991	36.0486	-165.719	0.025139	0.120662	-0.922612	-0.923891	0.002572	46.991	-0.922653	-2.056021E+12	-1.250724E-15	NaN
152	1.000000	0.161979	7.36652e+06	-46239.1	955.819	-29770.3	0.000000	0.000000	6.162818	-0.004571	NaN	0.000000	0.001676	0.001664	28.1314	0.026451	0.002068	12.7927	48.1165	-163.169	-0.002439	0.160626	-0.882574	-0.883927	-0.004571	12.7927	-0.882306	-5.859980E+11	7.799763E-15	NaN
152	1.000000	0.201985	7.36652e+06	-46239.1	955.818	-29770.3	0.000000	0.000000	6.202824	-0.018403	NaN	0.000000	0.001693	0.001661	28.1309	0.064617	0.002032	31.8073	-175.41	-165.692	-0.020578	0.200664	-0.842568	-0.843890	-0.018403	31.8073	-0.842134	-1.675723E+11	1.098233E-13	NaN
152	1.000000	0.241987	7.36652e+06	-46239.1	955.818	-29770.3	0.000000	0.000000	6.242826	0.002816	NaN	0.000000	0.001678	0.001673	28.1305	0.075568	0.001980	38.165	-171.796	-168.693	-0.033595	0.240679	-0.802566	-0.803874	0.002816	38.165	-0.802621	-4.880263E+10	-5.770861E-14	NaN
152	1.000000	0.281999	7.36653e+06	-46239.1	955.818	-29770.3	0.000000	0.000000	6.282836	-0.046025	NaN	0.000000	0.001667	0.001642	28.1299	0.026166	0.002067	12.658	-84.9278	-165.839	-0.048930	0.280708	-0.762554	-0.763846	-0.046025	12.658	-0.759827	-1.279247E+10	3.597841E-12	NaN
152	1.000000	0.322017	7.36653e+06	-46239.1	955.819	-29770.3	0.000000	0.000000	6.322854	-0.047322	NaN	0.000000	0.001658	0.001674	28.1305	0.036715	0.001974	18.5957	-76.2249	-168.433	0.070993	0.320788	-0.722536	-0.723765	-0.047322	18.5957	-0.720628	-3.741418E+9	1.264809E-11	NaN
152	1.000000	0.362054	7.36653e+06	-46239.1	955.819	-29770.3	0.000000	0.000000	6.362890	-0.050661	NaN	0.000000	0.001606	0.001650	28.1298	0.090712	0.002066	43.9073	-114.549	-167.115	-0.095726	0.360759	-0.682500	-0.683795	-0.050661	43.9073	-0.681634	-1.097887E+9	4.614370E-11	NaN
152	1.000000	0.402061	7.36653e+06	-46239.1	955.819	-29770.3	0.000000	0.000000	6.402898	-0.034853	NaN	0.000000	0.001703	0.001715	28.132	0.025897	0.002062	12.5588	-105.449	-169.784	-0.043813	0.400790	-0.642492	-0.643764	-0.034853	12.5588	-0.640411	-2.991776E+8	1.164944E-10	NaN
152	1.000000	0.442072	7.36653e+06	-46239.1	955.819	-29770.3	0.000000	0.000000	6.442910	-0.006096	NaN	0.000000	0.001683	0.001692	28.131	0.107874	0.002022	53.357	-164.847	-164.512	-0.065508	0.440782	-0.602482	-0.603772	-0.006096	53.357	-0.602396	-8.983712E+7	6.785280E-11	NaN
152	1.000000	0.482104	7.36653e+06	-46239.1	955.818	-29770.3	0.000000	0.000000	6.482943	0.002750	NaN	0.000000	0.001662	0.001678	28.1319	0.091319	0.002089	43.72	31.9381	-164.536	-0.018604	0.480777	-0.562450	-0.563777	0.002750	43.72	-0.562497	-2.528783E+7	-1.087610E-10	NaN
152	1.000000	0.522127	7.36653e+06	-46239.1	955.819	-29770.3	0.000000	0.000000	6.522965	-0.008514	NaN	0.000000	0.001695	0.001681	28.1303	0.109597	0.001921	57.0476	66.2686	-166.071	-0.055961	0.520802	-0.522427	-0.523752	-0.008514	57.0476	-0.522315	-7.01111e+06	1.214408E-9	NaN
152	1.000000	0.562166	7.36653e+06	-46239.1	955.818	-29770.3	0.000000	0.000000	6.563005	-0.009914	NaN	0.000000	0.001644	0.001729	28.1309	0.095902	0.002002	47.913	-167.132	-166.042	-0.011451	0.560816	-0.482387	-0.483738	-0.009914	47.913	-0.482232	-1.93539e+06	5.122695E-9	NaN
152	1.000000	0.602170	7.36653e+06	-46239.1	955.819	-29770.3	0.000000	0.000000	6.603013	0.091757	NaN	0.000000	0.001730	0.001697	28.1303	0.074460	0.001970	37.796	-136.72	-164.65	0.061834	0.600773	-0.442383	-0.443780	0.091757	37.796	-0.444204	-565805	-1.621710E-7	NaN
152	1.000000	0.642168	7.36653e+06	-46239.1	955.819	-29770.3	0.000000	0.000000	6.643008	0.021705	NaN	0.000000	0.001662	0.001724	28.1304	0.045150	0.001984	22.754	125.628	-165.725	0.076407	0.640859	-0.402385	-0.403694	0.021705	22.754	-0.403100	-147975	-1.466767E-7	NaN
152	1.000000	0.682189	7.36653e+06	-46239.1	955.819	-29770.3	0.000000	0.000000	6.683028	-0.007576	NaN	0.000000	0.001685	0.001735	28.1316	0.074092	0.002050	36.1341	-50.4933	-165.648	-0.026014	0.680864	-0.362364	-0.363690	-0.007576	36.1341	-0.362207	-38347.5	1.975716E-7	NaN
152	1.000000	0.722207	7.36653e+06	-46239.1	955.818	-29770.3	0.000000	0.000000	6.723045	-0.023428	NaN	0.000000	0.001667	0.001702	28.1321	0.027282	0.002011	13.5676	162.862	-169.788	0.021306	0.720898	-0.322346	-0.323655	-0.023428	13.5676	-0.321051	-9640.69	2.430125E-6	NaN
152	1.000000	0.762200	7.36653e+06	-46239.1	955.818	-29770.3	0.000000	0.000000	6.763040	0.025729	NaN	0.000000	0.001738	0.001686	28.1312	0.108934	0.002069	52.6491	172.11	-168.006	-0.012630	0.760832	-0.282354	-0.283721	0.025729	52.6491	-0.282720	-2594	-9.918547E-6	NaN
152	1.000000	0.802242	7.36653e+06	-46239.1	955.819	-29770.3	0.000000	0.000000	6.803080	-0.001479	NaN	0.000000	0.001710	0.001692	28.1306	0.102632	0.002087	49.1882	95.5997	-168.764	0.053767	0.800925	-0.242312	-0.243629	-0.001479	49.1882	-0.242289	-624.122	2.370192E-6	NaN
152	1.000000	0.842212	7.36653e+06	-46239.1	955.819	-29770.3	0.000000	0.000000	6.843049	-0.056679	NaN	0.000000	0.001706	0.001685	28.1305	0.077165	0.002007	38.4571	-109.294	-168.18	0.017316	0.840938	-0.202341	-0.203616	-0.056679	38.4571	-0.201236	-138.034	0.000411	NaN
152	1.000000	0.882285	7.36653e+06	-46239.1	955.819	-29770.3	0.000000	0.000000	6.883125	0.025504	NaN	0.000000	0.001729	0.001689	28.1309	0.073295	0.002038	35.9633	-4.776775	-163.452	0.019229	0.880998	-0.162269	-0.163555	0.025504	35.9633	-0.162801	-30.7317	-0.000830	NaN
152	1.000000	0.922273	7.36653e+06	-46239.1	955.818	-29770.3	0.000000	0.000000	6.923109	-0.065146	NaN	0.000000	0.001667	0.001695	28.1316	0.049424	0.001950	25.3407	141.29	-164.297	-0.118123	0.921026	-0.122280	-0.123528	-0.065146	25.3407	-0.120352	-4.911220	0.013265	NaN
152	1.000000	0.962303	7.36653e+06	-46239.1	955.819	-29770.3	0.000000	0.000000	6.963142	0.014638	NaN	0.000000	0.001679	0.001684	28.1324	0.050534	0.002073	24.3746	-175.342	-166.874	0.002756	0.961029	-0.082251	-0.083524	0.014638	24.3746	-0.082701	-0.722159	-0.020269	NaN
152	1.000000	1.002321	7.36653e+06	-46239.1	955.818	-29770.3	0.000000	0.000000	7.003158	-0.037110	NaN	0.000000	0.001651	0.001669	28.1321	0.071227	0.002110	33.7599	-133.843	-164.629	-0.037098	1.000987	-0.042233	-0.043566	-0.037110	33.7599	-0.041408	-0.049914	0.743485	NaN
152	1.000000	1.042332	7.36653e+06	-46239.1	955.817	-29770.3	0.000000	0.000000	7.043169	-0.041908	NaN	0.000000	0.001687	0.001701	28.1329	0.126305	0.002007	62.9395	42.2538	-168.334	-0.154642	1.041032	-0.002221	-0.003521	-0.041908	62.9395	-0.001722	-0.001246	33.6434	NaN
152	2.000000	1.058817	7.36653e+06	-46239.1	955.818	-29770.3	0.000000	0.000000	7.060628	23.6462	NaN	0.000000	0.001673	0.001686	28.1308	17.8306	0.001774	10052.3	2.184997	-172.63	23.303	1.058541	0.014263	0.013988	23.6462	10052.3	0.012499	0.012093	1955.32	83515.5
152	2.000000	1.068758	7.36653e+06	-46239.1	955.818	-29770.3	0.000000	0.000000	7.071616	49.1061	NaN	0.000000	0.001681	0.001671	28.1313	29.0463	0.001945	14936.4	8.949736	176.491	48.2716	1.068451	0.024205	0.023897	49.1061	14936.4	0.021739	0.025349	1937.22	85712
152	2.000000	1.078768	7.36653e+06	-46239.1	955.819	-29770.3	0.000000	0.000000	7.082981	82.0792	NaN	0.000000	0.001649	0.001660	28.1307	37.364	0.001816	20569.5	3.449181	179.112	80.7693	1.078441	0.034214	0.033888	82.0792	20569.5	0.031221	0.043313	1895.02	90299.9
152	2.000000	1.088712	7.36653e+06	-46239.1	955.819	-29770.3	0.000000	0.000000	7.094401	117.976	NaN	0.000000	0.001627	0.001668	28.1326	45.8645	0.001738	26386.7	4.789929	175.75	118.061	1.088417	0.044159	0.043863	117.976	26386.7	0.040806	0.066127	1784.09	93749.7
152	2.000000	1.098709	7.36653e+06	-46239.1	955.819	-29770.3	0.000000	0.000000	7.106242	162.855	NaN	0.000000	0.001692	0.001623	28.1321	55.844	0.001837	30395.1	5.458666	174.273	160.048	1.098363	0.054155	0.053810	162.855	30395.1	0.050137	0.092836	1754.23	91142
152	2.000000	1.108762	7.36653e+06	-46239.1	955.819	-29770.3	0.000000	0.000000	7.118304	211.704	NaN	0.000000	0.001655	0.001630	28.1326	64.9278	0.001928	33683.9	3.612242	175.061	211.245	1.108602	0.064209	0.064049	211.704	33683.9	0.059495	0.124004	1707.24	87393.3
152	2.000000	1.118719	7.36653e+06	-46239.1	955.82	-29770.3	0.000000	0.000000	7.131262	284.711	NaN	0.000000	0.001675	0.001687	28.1324	73.5088	0.001726	42598	3.435535	173.6	286.808	1.118399	0.074166	0.073845	284.711	42598	0.069153	0.160658	1772.15	97098.1
152	2.000000	1.128715	7.36653e+06	-46239.1	955.821	-29770.3	0.000000	0.000000	7.144343	359.751	NaN	0.000000	0.001597	0.001638	28.1317	84.1566	0.001899	44315.1	3.602049	173.31	358.845	1.128405	0.084162	0.083851	359.751	44315.1	0.078073	0.198470	1812.62	90882
152	2.000000	1.138716	7.36653e+06	-46239.1	955.819	-29770.3	0.000000	0.000000	7.157741	442.372	NaN	0.000000	0.001700	0.001676	28.1306	94.3597	0.001721	54828.4	3.889524	171.298	443.141	1.138388	0.094163	0.093835	442.372	54828.4	0.088112	0.245469	1802.15	101107
152	2.000000	1.148661	7.36653e+06	-46239.1	955.819	-29770.3	0.000000	0.000000	7.171045	524.07	NaN	0.000000	0.001657	0.001648	28.1311	104.192	0.001902	54787	3.142538	172.709	523.709	1.148386	0.104108	0.103832	524.07	54787	0.096934	0.290601	1803.4	92854.3
152	2.000000	1.149635	7.36653e+06	-46239.1	955.819	-29770.3	0.000000	0.000000	7.172512	536.099	NaN	0.000000	0.001645	0.001663	28.0788	105.538	0.001824	57845.8	6.468267	168.742	534.433	1.149289	0.105081	0.104736	536.099	57845.8	0.098131	0.296997	1805.06	96977