Folder: unikorn_login/remote_trans/data/nanoindenter/0828-1/data/Data_2025-08-06,11h17m57s (part 177)

File: 2025-07-22_16-23-58_1_371.txt
2025-07-22, 16:23:58, 1
Index	Phase	Displacement	Time	Pos X	Pos Y	Pos Z	Rot A	Rot B	Piezo Z	Force A	Force B	Gripper	Voltage A	Voltage B	Temperature	Amplitude force	Amplitude pos	Stiffness	Phase shift	Phase excitation	Force A raw	Displacement raw	HMax	HMax raw	Real Force	Real Stiffness	Contact Depth	Area	Hardness	Reduced Mod.
[#]	[#]	[um]	[s]	[um]	[um]	[um]	[m°]	[m°]	[um]	[uN]	[uN]	[V]	[V]	[V]	[°C]	[uN]	[um]	[N/m]	[°]	[°]	[uN]	[um]	[um]	[um]	[uN]	[N/m]	[um]	[um^2]	[MPa]	[MPa]
371	1.000000	0.002365	7.36869e+06	-57189.1	955.819	-29737.6	0.000000	0.000000	6.002791	-1.823295E-5	NaN	0.000000	0.001589	0.001644	28.0815	0.091202	0.000990	92.1327	-91.8041	-165.534	-0.040059	0.001133	-1.077505	-1.078737	-1.823295E-5	92.1327	-1.077505	-2.500369E+14	7.292106E-20	NaN
371	1.000000	0.042309	7.36869e+06	-57189.1	955.818	-29737.6	0.000000	0.000000	6.042737	0.058596	NaN	0.000000	0.001643	0.001656	28.0809	0.053845	0.001939	27.7687	122.652	-166.116	0.031430	0.041014	-1.037561	-1.038855	0.058596	27.7687	-1.039143	-7.628634E+13	-7.681093E-16	NaN
371	1.000000	0.082340	7.36869e+06	-57189.1	955.818	-29737.6	0.000000	0.000000	6.082764	-0.056298	NaN	0.000000	0.001649	0.001620	28.0798	0.099704	0.001941	51.3801	-86.3287	-165.656	-0.070387	0.081033	-0.997529	-0.998837	-0.056298	51.3801	-0.996708	-2.048514E+13	2.748230E-15	NaN
371	1.000000	0.122354	7.36869e+06	-57189.1	955.819	-29737.6	0.000000	0.000000	6.122782	0.033979	NaN	0.000000	0.001651	0.001656	28.0801	0.047256	0.002048	23.0734	65.1617	-166.666	0.083355	0.121054	-0.957515	-0.958816	0.033979	23.0734	-0.958620	-6.284382E+12	-5.406823E-15	NaN
371	1.000000	0.162392	7.36869e+06	-57189.1	955.819	-29737.6	0.000000	0.000000	6.162820	0.037891	NaN	0.000000	0.001652	0.001639	28.0798	0.030867	0.001992	15.4993	-22.1032	-164.345	0.044408	0.161066	-0.917477	-0.918803	0.037891	15.4993	-0.919310	-1.853089E+12	-2.044762E-14	NaN
371	1.000000	0.202376	7.36869e+06	-57189.1	955.818	-29737.6	0.000000	0.000000	6.202802	-0.006606	NaN	0.000000	0.001647	0.001689	28.0813	0.023680	0.002236	10.592	-148.128	-163.542	-0.088141	0.201106	-0.877494	-0.878764	-0.006606	10.592	-0.877026	-4.971469E+11	1.328790E-14	NaN
371	1.000000	0.242407	7.36869e+06	-57189.1	955.819	-29737.6	0.000000	0.000000	6.242833	-0.006055	NaN	0.000000	0.001641	0.001678	28.0812	0.071380	0.001911	37.3455	-24.679	-166.099	0.038827	0.241100	-0.837462	-0.838769	-0.006055	37.3455	-0.837340	-1.442980E+11	4.196177E-14	NaN
371	1.000000	0.282426	7.36869e+06	-57189.1	955.819	-29737.6	0.000000	0.000000	6.282851	-0.027370	NaN	0.000000	0.001648	0.001693	28.0812	0.059715	0.001964	30.3984	37.6294	-163.553	-0.043818	0.281136	-0.797443	-0.798734	-0.027370	30.3984	-0.796768	-4.064298E+10	6.734369E-13	NaN
371	1.000000	0.322443	7.36869e+06	-57189.1	955.818	-29737.6	0.000000	0.000000	6.322871	0.040454	NaN	0.000000	0.001750	0.001695	28.0812	0.075097	0.002162	34.7424	160.243	-164.959	0.047846	0.321124	-0.757426	-0.758746	0.040454	34.7424	-0.758299	-1.219449E+10	-3.317423E-12	NaN
371	1.000000	0.362437	7.36869e+06	-57189.1	955.819	-29737.6	0.000000	0.000000	6.362860	-0.079639	NaN	0.000000	0.001686	0.001669	28.0802	0.070469	0.001937	36.3723	150.252	-165.761	-0.120139	0.361125	-0.717433	-0.718744	-0.079639	36.3723	-0.715790	-3.214068E+9	2.477823E-11	NaN
371	1.000000	0.402454	7.36869e+06	-57189.1	955.818	-29737.6	0.000000	0.000000	6.402880	-0.013643	NaN	0.000000	0.001664	0.001681	28.0805	0.142729	0.001991	71.7007	-101.075	-162.758	-0.025152	0.401191	-0.677415	-0.678679	-0.013643	71.7007	-0.677273	-9.569758E+8	1.425625E-11	NaN
371	1.000000	0.442514	7.3687e+06	-57189.1	955.819	-29737.6	0.000000	0.000000	6.442943	0.056767	NaN	0.000000	0.001648	0.001666	28.0806	0.087053	0.002087	41.7029	-60.3356	-164.793	0.058875	0.441205	-0.637355	-0.638665	0.056767	41.7029	-0.638376	-2.805466E+8	-2.023433E-10	NaN
371	1.000000	0.482471	7.3687e+06	-57189.1	955.818	-29737.6	0.000000	0.000000	6.482896	-0.030543	NaN	0.000000	0.001637	0.001694	28.0816	0.112463	0.001955	57.5188	-121.761	-166.599	-0.022221	0.481192	-0.597398	-0.598677	-0.030543	57.5188	-0.597000	-7.570667E+7	4.034370E-10	NaN
371	1.000000	0.522538	7.3687e+06	-57189.1	955.818	-29737.6	0.000000	0.000000	6.522964	-0.009550	NaN	0.000000	0.001675	0.001686	28.0817	0.079787	0.002124	37.569	0.119814	-162.52	-0.058084	0.521243	-0.557331	-0.558627	-0.009550	37.569	-0.557141	-2.132139E+7	4.479173E-10	NaN
371	1.000000	0.562553	7.3687e+06	-57189.1	955.817	-29737.6	0.000000	0.000000	6.562978	-0.031233	NaN	0.000000	0.001691	0.001655	28.0816	0.108810	0.002051	53.059	28.8153	-163.251	-0.032922	0.561204	-0.517316	-0.518665	-0.031233	53.059	-0.516875	-5.89007e+06	5.302667E-9	NaN
371	1.000000	0.602530	7.3687e+06	-57189.1	955.818	-29737.6	0.000000	0.000000	6.602956	-2.763618E-5	NaN	0.000000	0.001680	0.001677	28.0801	0.141313	0.001975	71.5494	-157.892	-161.404	-0.031924	0.601259	-0.477340	-0.478611	-2.763618E-5	71.5494	-0.477340	-1.65301e+06	1.671870E-11	NaN
371	1.000000	0.642575	7.3687e+06	-57189.1	955.818	-29737.6	0.000000	0.000000	6.643002	0.022279	NaN	0.000000	0.001686	0.001666	28.08	0.100078	0.002132	46.939	-171.48	-165.921	0.021217	0.641268	-0.437294	-0.438601	0.022279	46.939	-0.437650	-457291	-4.871966E-8	NaN
371	1.000000	0.682576	7.3687e+06	-57189.1	955.817	-29737.6	0.000000	0.000000	6.683001	-0.022873	NaN	0.000000	0.001636	0.001637	28.0799	0.062015	0.002152	28.8111	-174.252	-164.831	-0.035631	0.681238	-0.397294	-0.398631	-0.022873	28.8111	-0.396698	-119919	1.907358E-7	NaN
371	1.000000	0.722650	7.3687e+06	-57189.1	955.818	-29737.6	0.000000	0.000000	6.723077	0.011418	NaN	0.000000	0.001632	0.001628	28.0797	0.049720	0.001971	25.2226	40.1006	-163.744	0.036301	0.721316	-0.357219	-0.358553	0.011418	25.2226	-0.357559	-32850.3	-3.475736E-7	NaN
371	1.000000	0.762640	7.3687e+06	-57189.1	955.819	-29737.6	0.000000	0.000000	6.763065	-0.023222	NaN	0.000000	0.001690	0.001596	28.0811	0.098527	0.002062	47.7875	154.331	-167.516	-0.046126	0.761354	-0.317229	-0.318516	-0.023222	47.7875	-0.316865	-8364.84	2.776155E-6	NaN
371	1.000000	0.802661	7.3687e+06	-57189.1	955.818	-29737.6	0.000000	0.000000	6.803087	-0.013249	NaN	0.000000	0.001709	0.001643	28.0812	0.081530	0.002003	40.7084	-8.376260	-166.486	-0.058989	0.801336	-0.277208	-0.278533	-0.013249	40.7084	-0.276964	-2123.84	6.238115E-6	NaN
371	1.000000	0.842654	7.3687e+06	-57189.1	955.818	-29737.6	0.000000	0.000000	6.843078	-0.059689	NaN	0.000000	0.001619	0.001689	28.0813	0.042225	0.001990	21.2169	-151.321	-165.676	-0.010773	0.841337	-0.237215	-0.238533	-0.059689	21.2169	-0.235105	-481.837	0.000124	NaN
371	1.000000	0.882691	7.3687e+06	-57189.1	955.818	-29737.6	0.000000	0.000000	6.883119	0.033737	NaN	0.000000	0.001615	0.001667	28.08	0.059778	0.001848	32.3489	168.167	-166.018	-0.035851	0.881295	-0.197178	-0.198574	0.033737	32.3489	-0.197960	-121.934	-0.000277	NaN
371	1.000000	0.922673	7.3687e+06	-57189.1	955.818	-29737.6	0.000000	0.000000	6.923098	-0.006588	NaN	0.000000	0.001656	0.001676	28.0804	0.045909	0.001882	24.3952	-0.150263	-164.588	0.075144	0.921374	-0.157197	-0.158496	-0.006588	24.3952	-0.156994	-24.2313	0.000272	NaN
371	1.000000	0.962701	7.3687e+06	-57189.1	955.819	-29737.6	0.000000	0.000000	6.963128	0.007606	NaN	0.000000	0.001668	0.001658	28.0807	0.056585	0.002068	27.3651	144.03	-164.136	0.031160	0.961349	-0.117168	-0.118520	0.007606	27.3651	-0.117376	-4.274094	-0.001780	NaN
371	1.000000	1.002722	7.3687e+06	-57189.1	955.819	-29737.6	0.000000	0.000000	7.003148	0.003614	NaN	0.000000	0.001729	0.001629	28.0804	0.064142	0.001913	33.5231	9.170544	-166.442	-0.060944	1.001382	-0.077148	-0.078488	0.003614	33.5231	-0.077229	-0.526907	-0.006859	NaN
371	1.000000	1.042741	7.3687e+06	-57189.1	955.819	-29737.6	0.000000	0.000000	7.043166	-0.030098	NaN	0.000000	0.001708	0.001633	28.0817	0.085711	0.002020	42.4213	-71.6904	-164.101	-0.027892	1.041372	-0.037128	-0.038497	-0.030098	42.4213	-0.036596	-0.035710	0.842838	NaN
371	1.000000	1.082707	7.3687e+06	-57189.1	955.818	-29737.6	0.000000	0.000000	7.083239	2.553472	NaN	0.000000	0.001695	0.001730	28.0815	3.189019	0.001749	1823.03	1.007578	-163.478	1.042129	1.081426	0.002838	0.001557	2.553472	1823.03	0.001788	0.001384	1845.37	44775.8
371	2.000000	1.097168	7.3687e+06	-57189.1	955.819	-29737.6	0.000000	0.000000	7.098634	25.2678	NaN	0.000000	0.001682	0.001676	28.0812	18.5613	0.001823	10182.5	4.654852	-174.986	23.9176	1.096904	0.017298	0.017035	25.2678	10182.5	0.015437	0.015873	1591.9	73841.9
371	2.000000	1.107157	7.3687e+06	-57189.1	955.817	-29737.6	0.000000	0.000000	7.109616	49.4104	NaN	0.000000	0.001583	0.001719	28.0802	29.0079	0.001973	14703.1	7.912175	-179.839	49.3336	1.106887	0.027288	0.027017	49.4104	14703.1	0.024767	0.030594	1615.04	76800.8
371	2.000000	1.117201	7.3687e+06	-57189.1	955.818	-29737.6	0.000000	0.000000	7.120716	75.0677	NaN	0.000000	0.001635	0.001747	28.0802	37.0744	0.001773	20905.2	4.688831	-179.965	77.2243	1.116873	0.037332	0.037003	75.0677	20905.2	0.034638	0.050908	1474.59	84651.7
371	2.000000	1.127092	7.3687e+06	-57189.1	955.818	-29737.6	0.000000	0.000000	7.132259	115.226	NaN	0.000000	0.001612	0.001722	28.0804	47.102	0.001803	26128.5	6.506009	175.342	113.584	1.126809	0.047222	0.046940	115.226	26128.5	0.043915	0.074536	1545.91	87438.6
371	2.000000	1.137062	7.3687e+06	-57189.1	955.817	-29737.6	0.000000	0.000000	7.143894	155.693	NaN	0.000000	0.001602	0.001723	28.0804	55.9685	0.001773	31574.4	1.913179	178.608	153.145	1.136840	0.057192	0.056970	155.693	31574.4	0.053494	0.103519	1504.01	89660.2
371	2.000000	1.147095	7.3687e+06	-57189.1	955.817	-29737.6	0.000000	0.000000	7.156308	213.543	NaN	0.000000	0.001652	0.001765	28.0814	65.4631	0.001870	35002.1	4.972773	174.791	211.582	1.146723	0.067226	0.066854	213.543	35002.1	0.062650	0.135484	1576.16	86880.9
371	2.000000	1.157091	7.3687e+06	-57189.1	955.818	-29737.6	0.000000	0.000000	7.168586	269.02	NaN	0.000000	0.001615	0.001726	28.0814	74.0028	0.001766	41895.2	3.107372	174.804	268.244	1.156852	0.077221	0.076983	269.02	41895.2	0.072405	0.174011	1546	91759.2
371	2.000000	1.167044	7.3687e+06	-57189.1	955.817	-29737.6	0.000000	0.000000	7.181276	335.561	NaN	0.000000	0.001600	0.001741	28.0812	83.2492	0.001743	47749.9	2.951050	174.152	333.475	1.166692	0.087174	0.086823	335.561	47749.9	0.081904	0.215852	1554.58	93900.5
371	2.000000	1.177002	7.3687e+06	-57189.1	955.816	-29737.6	0.000000	0.000000	7.194555	416.267	NaN	0.000000	0.001663	0.001754	28.0795	92.2488	0.001710	53945	3.965276	172.295	413.807	1.176649	0.097132	0.096780	416.267	53945	0.091345	0.261597	1591.25	96362.4
371	2.000000	1.187127	7.3687e+06	-57189.1	955.817	-29737.6	0.000000	0.000000	7.207764	491.217	NaN	0.000000	0.001672	0.001728	28.0794	103.497	0.001807	57263.8	2.801242	173.814	494.886	1.186856	0.107257	0.106987	491.217	57263.8	0.100824	0.311629	1576.29	93720.4

File: 2025-07-22_16-23-58_1_372.txt
2025-07-22, 16:23:58, 1
Index	Phase	Displacement	Time	Pos X	Pos Y	Pos Z	Rot A	Rot B	Piezo Z	Force A	Force B	Gripper	Voltage A	Voltage B	Temperature	Amplitude force	Amplitude pos	Stiffness	Phase shift	Phase excitation	Force A raw	Displacement raw	HMax	HMax raw	Real Force	Real Stiffness	Contact Depth	Area	Hardness	Reduced Mod.
[#]	[#]	[um]	[s]	[um]	[um]	[um]	[m°]	[m°]	[um]	[uN]	[uN]	[V]	[V]	[V]	[°C]	[uN]	[um]	[N/m]	[°]	[°]	[uN]	[um]	[um]	[um]	[uN]	[N/m]	[um]	[um^2]	[MPa]	[MPa]
372	1.000000	0.002969	7.3687e+06	-57239.1	955.817	-29737.6	0.000000	0.000000	6.002847	-0.038339	NaN	0.000000	0.001572	0.001718	28.0805	0.053311	0.000962	55.3976	59.1724	-164.094	0.003543	0.001655	-0.988698	-0.990011	-0.038339	55.3976	-0.988178	-1.572459E+13	2.438125E-15	NaN
372	1.000000	0.040893	7.3687e+06	-57239.1	955.818	-29737.6	0.000000	0.000000	6.040772	-0.028914	NaN	0.000000	0.001589	0.001775	28.0802	0.047885	0.002040	23.4728	-51.3708	15.3806	0.046011	0.039600	-0.950773	-0.952067	-0.028914	23.4728	-0.949849	-4.786219E+12	6.041059E-15	NaN
372	1.000000	0.078861	7.3687e+06	-57239.1	955.817	-29737.6	0.000000	0.000000	6.078740	-0.023069	NaN	0.000000	0.001577	0.001739	28.08	0.055922	0.001918	29.1593	140.78	-166.256	0.020192	0.077579	-0.912805	-0.914087	-0.023069	29.1593	-0.912212	-1.486054E+12	1.552345E-14	NaN
372	1.000000	0.116868	7.3687e+06	-57239.1	955.818	-29737.6	0.000000	0.000000	6.116750	0.042337	NaN	0.000000	0.001596	0.001793	28.0814	0.043236	0.001977	21.8747	166.563	14.1847	0.057516	0.115572	-0.874798	-0.876094	0.042337	21.8747	-0.876249	-4.852700E+11	-8.724485E-14	NaN
372	1.000000	0.154919	7.3687e+06	-57239.1	955.818	-29737.6	0.000000	0.000000	6.154799	0.000747	NaN	0.000000	0.001644	0.001747	28.0814	0.030025	0.001958	15.3343	159.894	-164.126	-0.065428	0.153550	-0.836747	-0.838116	0.000747	15.3343	-0.836784	-1.418126E+11	-5.269155E-15	NaN
372	1.000000	0.192931	7.3687e+06	-57239.1	955.818	-29737.6	0.000000	0.000000	6.192813	0.059030	NaN	0.000000	0.001618	0.001762	28.0813	0.048339	0.002208	21.8949	107.993	12.4854	0.162781	0.191601	-0.798735	-0.800065	0.059030	21.8949	-0.800757	-4.604066E+10	-1.282122E-12	NaN
372	1.000000	0.230931	7.3687e+06	-57239.1	955.819	-29737.6	0.000000	0.000000	6.230811	0.003225	NaN	0.000000	0.001706	0.001745	28.08	0.119897	0.001906	62.889	91.3927	-164.588	-0.052543	0.229610	-0.760735	-0.762057	0.003225	62.889	-0.760773	-1.317720E+10	-2.447084E-13	NaN
372	1.000000	0.268936	7.3687e+06	-57239.1	955.819	-29737.6	0.000000	0.000000	6.268815	-0.019116	NaN	0.000000	0.001706	0.001772	28.08	0.140906	0.001868	75.427	-116.555	18.401	-0.063283	0.267602	-0.722730	-0.724064	-0.019116	75.427	-0.722539	-3.972860E+9	4.811711E-12	NaN
372	1.000000	0.306976	7.3687e+06	-57239.1	955.818	-29737.6	0.000000	0.000000	6.306857	0.028274	NaN	0.000000	0.001601	0.001691	28.0799	0.074441	0.002077	35.837	131.573	-165.374	0.052218	0.305639	-0.684690	-0.686027	0.028274	35.837	-0.685282	-1.231490E+9	-2.295879E-11	NaN
372	1.000000	0.345002	7.3687e+06	-57239.1	955.819	-29737.6	0.000000	0.000000	6.344883	0.020304	NaN	0.000000	0.001586	0.001701	28.0799	0.090258	0.002002	45.0928	-85.0444	17.1369	-0.053762	0.343652	-0.646664	-0.648014	0.020304	45.0928	-0.647002	-3.684072E+8	-5.511255E-11	NaN
372	1.000000	0.383023	7.3687e+06	-57239.1	955.818	-29737.6	0.000000	0.000000	6.382902	-0.019520	NaN	0.000000	0.001596	0.001688	28.0816	0.055935	0.002043	27.3847	36.3538	-164.071	-0.067573	0.381687	-0.608643	-0.609979	-0.019520	27.3847	-0.608108	-1.076664E+8	1.812965E-10	NaN
372	1.000000	0.421029	7.3687e+06	-57239.1	955.817	-29737.6	0.000000	0.000000	6.420907	-0.060575	NaN	0.000000	0.001547	0.001703	28.081	0.129145	0.002002	64.5197	-141.23	18.2661	-0.038877	0.419692	-0.570637	-0.571974	-0.060575	64.5197	-0.569932	-3.204041E+7	1.890577E-9	NaN
372	1.000000	0.459058	7.36871e+06	-57239.1	955.818	-29737.6	0.000000	0.000000	6.458937	-0.010241	NaN	0.000000	0.001593	0.001679	28.0809	0.123154	0.001920	64.1276	-156.561	-165.063	0.003716	0.457750	-0.532608	-0.533916	-0.010241	64.1276	-0.532488	-9.70789e+06	1.054958E-9	NaN
372	1.000000	0.497061	7.36871e+06	-57239.1	955.817	-29737.6	0.000000	0.000000	6.496939	-0.028863	NaN	0.000000	0.001562	0.001796	28.0807	0.032809	0.002015	16.2853	172.373	18.5134	-0.015721	0.495756	-0.494605	-0.495910	-0.028863	16.2853	-0.493276	-2.76161e+06	1.045135E-8	NaN
372	1.000000	0.535032	7.36871e+06	-57239.1	955.817	-29737.6	0.000000	0.000000	6.534912	0.009300	NaN	0.000000	0.001582	0.001748	28.0799	0.019762	0.002124	9.303073	116.682	-165.152	0.019845	0.533727	-0.456634	-0.457939	0.009300	9.303073	-0.457384	-867450	-1.072053E-8	NaN
372	1.000000	0.573126	7.36871e+06	-57239.1	955.819	-29737.6	0.000000	0.000000	6.573007	0.050347	NaN	0.000000	0.001598	0.001750	28.0799	0.027677	0.001943	14.2442	47.9712	15.751	0.051841	0.571723	-0.418540	-0.419943	0.050347	14.2442	-0.421191	-267491	-1.882210E-7	NaN
372	1.000000	0.611118	7.36871e+06	-57239.1	955.817	-29737.6	0.000000	0.000000	6.610997	-0.013611	NaN	0.000000	0.001573	0.001788	28.0797	0.087315	0.002029	43.0414	135.584	-166.619	0.030157	0.609801	-0.380548	-0.381865	-0.013611	43.0414	-0.380311	-69879.9	1.947828E-7	NaN
372	1.000000	0.649124	7.36871e+06	-57239.1	955.818	-29737.6	0.000000	0.000000	6.649001	-0.052380	NaN	0.000000	0.001655	0.001746	28.0808	0.036581	0.001963	18.6332	53.1711	15.7094	0.029433	0.647781	-0.342542	-0.343885	-0.052380	18.6332	-0.340434	-18530.2	2.826716E-6	NaN
372	1.000000	0.687185	7.36871e+06	-57239.1	955.819	-29737.6	0.000000	0.000000	6.687066	0.025554	NaN	0.000000	0.001591	0.001726	28.0809	0.025444	0.001896	13.4212	51.0725	-162.534	-0.008559	0.685856	-0.304481	-0.305811	0.025554	13.4212	-0.305909	-5760.18	-4.436244E-6	NaN
372	1.000000	0.725166	7.36871e+06	-57239.1	955.818	-29737.6	0.000000	0.000000	6.725047	0.024252	NaN	0.000000	0.001575	0.001752	28.081	0.134533	0.001941	69.2987	7.201953	13.5819	0.060827	0.723801	-0.266500	-0.267865	0.024252	69.2987	-0.266762	-1486.84	-1.631118E-5	NaN
372	1.000000	0.763160	7.36871e+06	-57239.1	955.82	-29737.6	0.000000	0.000000	6.763040	-0.000625	NaN	0.000000	0.001634	0.001683	28.0808	0.058586	0.002054	28.5239	-71.5374	-167.831	0.024772	0.761926	-0.228506	-0.229740	-0.000625	28.5239	-0.228490	-379.006	1.649083E-6	NaN
372	1.000000	0.801182	7.36871e+06	-57239.1	955.819	-29737.6	0.000000	0.000000	6.801063	0.028417	NaN	0.000000	0.001602	0.001727	28.0793	0.131928	0.001961	67.2772	-4.782426	12.0435	-0.003693	0.799830	-0.190484	-0.191836	0.028417	67.2772	-0.190800	-92.7664	-0.000306	NaN
372	1.000000	0.839198	7.36871e+06	-57239.1	955.819	-29737.6	0.000000	0.000000	6.839076	-0.027822	NaN	0.000000	0.001613	0.001735	28.0796	0.144144	0.001984	72.6558	176.293	-167.067	-0.041517	0.837898	-0.152468	-0.153768	-0.027822	72.6558	-0.152181	-19.8456	0.001402	NaN
372	1.000000	0.877199	7.36871e+06	-57239.1	955.817	-29737.6	0.000000	0.000000	6.877079	0.016092	NaN	0.000000	0.001597	0.001764	28.0797	0.074003	0.001970	37.5567	149.271	15.0478	-0.009575	0.875879	-0.114467	-0.115787	0.016092	37.5567	-0.114788	-3.782165	-0.004255	NaN
372	1.000000	0.915218	7.36871e+06	-57239.1	955.818	-29737.6	0.000000	0.000000	6.915097	-0.002147	NaN	0.000000	0.001599	0.001782	28.0811	0.067784	0.002070	32.7382	-118.752	-160.479	-0.003126	0.913909	-0.076448	-0.077757	-0.002147	32.7382	-0.076399	-0.501812	0.004278	NaN
372	1.000000	0.953257	7.36871e+06	-57239.1	955.818	-29737.6	0.000000	0.000000	6.953136	-0.018091	NaN	0.000000	0.001630	0.001775	28.0812	0.038419	0.002124	18.0849	168.084	16.6448	-0.072673	0.951936	-0.038409	-0.039730	-0.018091	18.0849	-0.037659	-0.038425	0.470798	NaN
372	1.000000	0.991263	7.36871e+06	-57239.1	955.818	-29737.6	0.000000	0.000000	6.991152	0.225911	NaN	0.000000	0.001626	0.001740	28.0813	0.334706	0.001997	167.587	18.009	-166.405	-0.006841	0.989891	-0.000404	-0.001775	0.225911	167.587	-0.001415	-0.001029	-219.533	NaN
372	2.000000	1.006375	7.36871e+06	-57239.1	955.817	-29737.6	0.000000	0.000000	7.006950	16.9025	NaN	0.000000	0.001647	0.001765	28.0813	15.4329	0.001589	9710.92	2.392125	5.920216	14.9471	1.006047	0.014709	0.014381	16.9025	9710.92	0.013403	0.013215	1279.07	77180
372	2.000000	1.015866	7.36871e+06	-57239.1	955.819	-29737.6	0.000000	0.000000	7.017157	34.3036	NaN	0.000000	0.001570	0.001756	28.0803	25.5316	0.001854	13769.5	8.949892	178.945	32.7791	1.015537	0.024200	0.023871	34.3036	13769.5	0.022331	0.026339	1302.39	77516.1
372	2.000000	1.025346	7.36871e+06	-57239.1	955.819	-29737.6	0.000000	0.000000	7.027536	56.1404	NaN	0.000000	0.001579	0.001785	28.0798	34.2748	0.001923	17819.3	6.243388	-1.264582	55.687	1.024963	0.033680	0.033297	56.1404	17819.3	0.031317	0.043518	1290.06	78042.4
372	2.000000	1.034786	7.36871e+06	-57239.1	955.82	-29737.6	0.000000	0.000000	7.038169	85.1565	NaN	0.000000	0.001625	0.001760	28.0797	42.5219	0.001804	23574.2	3.653395	177.827	82.6833	1.034454	0.043120	0.042788	85.1565	23574.2	0.040411	0.065094	1308.21	84419.2
372	2.000000	1.044304	7.36871e+06	-57239.1	955.819	-29737.6	0.000000	0.000000	7.048969	116.296	NaN	0.000000	0.001629	0.001746	28.0796	51.9467	0.001789	29040.6	3.446625	-3.796043	114.936	1.044110	0.052638	0.052444	116.296	29040.6	0.049635	0.091288	1273.94	87815.4
372	2.000000	1.053797	7.36871e+06	-57239.1	955.821	-29737.6	0.000000	0.000000	7.060514	166.165	NaN	0.000000	0.001588	0.001738	28.0809	59.5603	0.001752	33989.6	3.395838	175.477	166.556	1.053457	0.062131	0.061791	166.165	33989.6	0.058465	0.120361	1380.56	89511
372	2.000000	1.063300	7.36871e+06	-57239.1	955.82	-29737.6	0.000000	0.000000	7.072046	215.496	NaN	0.000000	0.001520	0.001766	28.0808	69.9765	0.001679	41689.5	3.616306	-6.368166	213.795	1.063039	0.071634	0.071373	215.496	41689.5	0.067757	0.155083	1389.56	96720.5
372	2.000000	1.072815	7.36871e+06	-57239.1	955.82	-29737.6	0.000000	0.000000	7.083493	262.463	NaN	0.000000	0.001548	0.001758	28.0813	80.4358	0.001822	44143.6	5.058288	171.211	264.595	1.072654	0.081149	0.080988	262.463	44143.6	0.076690	0.192360	1364.43	91956.6
372	2.000000	1.082261	7.36871e+06	-57239.1	955.82	-29737.6	0.000000	0.000000	7.095894	334.28	NaN	0.000000	0.001575	0.001733	28.0796	88.7244	0.001724	51464.3	4.326069	-8.094203	330.375	1.081865	0.090594	0.090199	334.28	51464.3	0.085723	0.233863	1429.39	97229.7
372	2.000000	1.091737	7.36871e+06	-57239.1	955.821	-29737.6	0.000000	0.000000	7.108437	408.836	NaN	0.000000	0.001590	0.001706	28.0795	96.4368	0.001697	56819.9	7.133694	167.588	405.336	1.091374	0.100070	0.099708	408.836	56819.9	0.094674	0.278702	1466.93	98334.1
372	2.000000	1.097173	7.36871e+06	-57239.1	955.82	-29737.6	0.000000	0.000000	7.115680	452.738	NaN	0.000000	0.001592	0.001742	28.0796	100.206	0.001795	55834.2	0.730603	-5.207964	444.858	1.096836	0.105507	0.105170	452.738	55834.2	0.099425	0.303991	1489.31	92521.5