Folder: unikorn_login/remote_trans/data/nanoindenter/0828-1/data/Data_2025-08-06,11h17m57s (part 189)

File: 2025-07-22_16-23-58_1_395.txt
2025-07-22, 16:23:58, 1
Index	Phase	Displacement	Time	Pos X	Pos Y	Pos Z	Rot A	Rot B	Piezo Z	Force A	Force B	Gripper	Voltage A	Voltage B	Temperature	Amplitude force	Amplitude pos	Stiffness	Phase shift	Phase excitation	Force A raw	Displacement raw	HMax	HMax raw	Real Force	Real Stiffness	Contact Depth	Area	Hardness	Reduced Mod.
[#]	[#]	[um]	[s]	[um]	[um]	[um]	[m°]	[m°]	[um]	[uN]	[uN]	[V]	[V]	[V]	[°C]	[uN]	[um]	[N/m]	[°]	[°]	[uN]	[um]	[um]	[um]	[uN]	[N/m]	[um]	[um^2]	[MPa]	[MPa]
395	1.000000	0.002976	7.36892e+06	-57339.1	1005.82	-29737.2	0.000000	0.000000	6.002790	0.027293	NaN	0.000000	0.001643	0.001616	28.0786	0.045180	0.000912	49.5272	-45.2973	-166.269	0.017553	0.001718	-1.095167	-1.096424	0.027293	49.5272	-1.095580	-4.372492E+14	-6.241937E-17	NaN
395	1.000000	0.044934	7.36892e+06	-57339.1	1005.82	-29737.2	0.000000	0.000000	6.044750	0.068674	NaN	0.000000	0.001646	0.001654	28.0796	0.074554	0.001848	40.3399	16.607	12.2329	0.076719	0.043602	-1.053208	-1.054541	0.068674	40.3399	-1.054485	-1.226604E+14	-5.598723E-16	NaN
395	1.000000	0.086966	7.36892e+06	-57339.1	1005.82	-29737.2	0.000000	0.000000	6.086776	-0.070321	NaN	0.000000	0.001569	0.001673	28.0793	0.065818	0.001943	33.8688	108.101	-166.437	-0.117496	0.085629	-1.011176	-1.012514	-0.070321	33.8688	-1.009619	-3.056684E+13	2.300562E-15	NaN
395	1.000000	0.128986	7.36892e+06	-57339.1	1005.82	-29737.2	0.000000	0.000000	6.128799	0.016506	NaN	0.000000	0.001663	0.001639	28.0793	0.069580	0.001990	34.9669	158.445	14.1759	0.048884	0.127609	-0.969156	-0.970533	0.016506	34.9669	-0.969510	-8.811825E+12	-1.873212E-15	NaN
395	1.000000	0.170978	7.36893e+06	-57339.1	1005.82	-29737.2	0.000000	0.000000	6.170791	-0.000546	NaN	0.000000	0.001674	0.001640	28.0779	0.078155	0.001980	39.4714	-5.480861	-167.089	0.034885	0.169667	-0.927164	-0.928476	-0.000546	39.4714	-0.927154	-2.364736E+12	2.309699E-16	NaN
395	1.000000	0.212993	7.36893e+06	-57339.1	1005.82	-29737.2	0.000000	0.000000	6.212804	-0.047120	NaN	0.000000	0.001586	0.001629	28.078	0.101120	0.001956	51.6991	-92.5017	16.5245	-0.001396	0.211655	-0.885149	-0.886487	-0.047120	51.6991	-0.884465	-6.267451E+11	7.518241E-14	NaN
395	1.000000	0.255016	7.36893e+06	-57339.1	1005.82	-29737.2	0.000000	0.000000	6.254828	-0.012099	NaN	0.000000	0.001627	0.001627	28.0779	0.071377	0.001958	36.4607	173.811	-162.973	-0.030649	0.253698	-0.843126	-0.844445	-0.012099	36.4607	-0.842878	-1.715038E+11	7.054632E-14	NaN
395	1.000000	0.297040	7.36893e+06	-57339.1	1005.82	-29737.2	0.000000	0.000000	6.296853	-0.012829	NaN	0.000000	0.001629	0.001652	28.0778	0.048645	0.001912	25.4419	160.244	14.893	-0.113150	0.295661	-0.801102	-0.802482	-0.012829	25.4419	-0.800724	-4.599239E+10	2.789404E-13	NaN
395	1.000000	0.339096	7.36893e+06	-57339.1	1005.82	-29737.2	0.000000	0.000000	6.338905	-0.095463	NaN	0.000000	0.001622	0.001626	28.0793	0.096011	0.002010	47.7609	-97.2553	-166.807	0.060944	0.337707	-0.759046	-0.760435	-0.095463	47.7609	-0.757547	-1.191041E+10	8.015051E-12	NaN
395	1.000000	0.381080	7.36893e+06	-57339.1	1005.82	-29737.2	0.000000	0.000000	6.380892	-0.007264	NaN	0.000000	0.001688	0.001613	28.0794	0.090494	0.001966	46.0393	-127.417	12.8158	-0.046092	0.379749	-0.717062	-0.718394	-0.007264	46.0393	-0.716944	-3.332679E+9	2.179589E-12	NaN
395	1.000000	0.423097	7.36893e+06	-57339.1	1005.82	-29737.2	0.000000	0.000000	6.422911	0.026433	NaN	0.000000	0.001660	0.001654	28.0793	0.111341	0.002049	54.3413	-62.4811	-164.463	0.066506	0.421802	-0.675045	-0.676341	0.026433	54.3413	-0.675410	-9.024352E+8	-2.929031E-11	NaN
395	1.000000	0.465113	7.36893e+06	-57339.1	1005.82	-29737.2	0.000000	0.000000	6.464924	-0.037579	NaN	0.000000	0.001609	0.001649	28.078	0.135751	0.001958	69.3338	50.2768	12.0181	-0.058086	0.463764	-0.633030	-0.634378	-0.037579	69.3338	-0.632623	-2.339062E+8	1.606590E-10	NaN
395	1.000000	0.507125	7.36893e+06	-57339.1	1005.82	-29737.2	0.000000	0.000000	6.506939	0.030264	NaN	0.000000	0.001641	0.001654	28.078	0.046940	0.002035	23.0624	11.3727	-168.021	-0.060330	0.505805	-0.591017	-0.592337	0.030264	23.0624	-0.592001	-6.460329E+7	-4.684635E-10	NaN
395	1.000000	0.549178	7.36893e+06	-57339.1	1005.82	-29737.2	0.000000	0.000000	6.548990	-0.017439	NaN	0.000000	0.001650	0.001641	28.0779	0.075366	0.002101	35.8738	21.3769	12.7635	0.001629	0.547779	-0.548964	-0.550363	-0.017439	35.8738	-0.548600	-1.623892E+7	1.073911E-9	NaN
395	1.000000	0.591163	7.36893e+06	-57339.1	1005.82	-29737.2	0.000000	0.000000	6.590980	0.093224	NaN	0.000000	0.001674	0.001618	28.0792	0.063366	0.001988	31.8761	63.2524	-165.414	0.083667	0.589856	-0.506979	-0.508286	0.093224	31.8761	-0.509173	-4.6014e+06	-2.025992E-8	NaN
395	1.000000	0.633166	7.36893e+06	-57339.1	1005.82	-29737.2	0.000000	0.000000	6.632977	-0.034632	NaN	0.000000	0.001650	0.001687	28.0791	0.008987	0.002027	4.433797	130.048	17.3559	-0.063913	0.631781	-0.464977	-0.466362	-0.034632	4.433797	-0.459118	-917545	3.774393E-8	NaN
395	1.000000	0.675221	7.36893e+06	-57339.1	1005.82	-29737.2	0.000000	0.000000	6.675033	-0.024370	NaN	0.000000	0.001594	0.001623	28.0792	0.060337	0.002075	29.0751	171.454	-168.071	0.032726	0.673932	-0.422921	-0.424210	-0.024370	29.0751	-0.422292	-277278	8.789074E-8	NaN
395	1.000000	0.717241	7.36893e+06	-57339.1	1005.82	-29737.2	0.000000	0.000000	6.717053	-0.023685	NaN	0.000000	0.001631	0.001644	28.0777	0.030587	0.002084	14.6781	163.509	13.5207	-0.046483	0.715833	-0.380901	-0.382309	-0.023685	14.6781	-0.379691	-68462.7	3.459587E-7	NaN
395	1.000000	0.759241	7.36893e+06	-57339.1	1005.82	-29737.2	0.000000	0.000000	6.759052	-0.025523	NaN	0.000000	0.001592	0.001681	28.078	0.046033	0.001963	23.4538	91.5629	-169.446	0.040320	0.757951	-0.338902	-0.340191	-0.025523	23.4538	-0.338085	-17125.2	1.490383E-6	NaN
395	1.000000	0.801247	7.36893e+06	-57339.1	1005.82	-29737.2	0.000000	0.000000	6.801058	-0.028262	NaN	0.000000	0.001637	0.001632	28.078	0.068112	0.001931	35.2641	-36.8287	18.5628	0.019303	0.799905	-0.296896	-0.298238	-0.028262	35.2641	-0.296295	-4143.92	6.820016E-6	NaN
395	1.000000	0.843258	7.36893e+06	-57339.1	1005.82	-29737.2	0.000000	0.000000	6.843069	-0.029989	NaN	0.000000	0.001562	0.001654	28.0781	0.043725	0.001970	22.1985	-139.32	-163.847	-0.075507	0.841935	-0.254885	-0.256207	-0.029989	22.1985	-0.253871	-943.483	3.178569E-5	NaN
395	1.000000	0.885303	7.36893e+06	-57339.1	1005.82	-29737.2	0.000000	0.000000	6.885114	-0.047777	NaN	0.000000	0.001603	0.001652	28.0793	0.085673	0.001937	44.2232	-1.432873	13.7047	-0.023656	0.883896	-0.212839	-0.214246	-0.047777	44.2232	-0.212029	-206.837	0.000231	NaN
395	1.000000	0.927298	7.36893e+06	-57339.1	1005.82	-29737.2	0.000000	0.000000	6.927108	-0.061398	NaN	0.000000	0.001600	0.001659	28.0792	0.033494	0.002042	16.4013	-35.7331	-169.89	-0.057787	0.926038	-0.170845	-0.172104	-0.061398	16.4013	-0.168037	-37.9711	0.001617	NaN
395	1.000000	0.969351	7.36893e+06	-57339.1	1005.82	-29737.2	0.000000	0.000000	6.969162	-0.030981	NaN	0.000000	0.001640	0.001680	28.0793	0.036913	0.001932	19.1023	-114.334	9.309401	-0.015507	0.967937	-0.128792	-0.130205	-0.030981	19.1023	-0.127575	-6.834466	0.004533	NaN
395	1.000000	1.011321	7.36893e+06	-57339.1	1005.82	-29737.2	0.000000	0.000000	7.011133	-0.022699	NaN	0.000000	0.001661	0.001671	28.0781	0.130628	0.002023	64.5635	-144.346	-167.363	0.032306	1.010046	-0.086821	-0.088096	-0.022699	64.5635	-0.086557	-0.895741	0.025341	NaN
395	1.000000	1.053337	7.36893e+06	-57339.1	1005.82	-29737.2	0.000000	0.000000	7.053150	0.008616	NaN	0.000000	0.001662	0.001666	28.078	0.006607	0.001961	3.368807	-8.122115	15.8784	-0.032882	1.052007	-0.044805	-0.046135	0.008616	3.368807	-0.046724	-0.072553	-0.118755	NaN
395	1.000000	1.095381	7.36893e+06	-57339.1	1005.82	-29737.2	0.000000	0.000000	7.095193	-0.034294	NaN	0.000000	0.001634	0.001617	28.0779	0.046612	0.002131	21.8781	178.999	-163.569	-0.148619	1.094094	-0.002761	-0.004048	-0.034294	21.8781	-0.001585	-0.001150	29.8289	NaN
395	2.000000	1.115501	7.36893e+06	-57339.1	1005.82	-29737.2	0.000000	0.000000	7.115946	15.3842	NaN	0.000000	0.001609	0.001654	28.0795	15.2214	0.001815	8385.98	6.871123	6.303262	15.9767	1.115124	0.017358	0.016982	15.3842	8385.98	0.015982	0.016618	925.771	59434.8
395	2.000000	1.125919	7.36893e+06	-57339.1	1005.82	-29737.2	0.000000	0.000000	7.127208	35.8655	NaN	0.000000	0.001580	0.001647	28.0793	25.9447	0.001707	15199.3	5.144684	-179.534	34.3567	1.125614	0.027777	0.027472	35.8655	15199.3	0.026007	0.032873	1091.02	76590.4
395	2.000000	1.136433	7.36893e+06	-57339.1	1005.82	-29737.2	0.000000	0.000000	7.138790	61.8357	NaN	0.000000	0.001617	0.001636	28.0793	37.1681	0.001777	20914.9	3.799636	-0.321631	62.0234	1.136072	0.038291	0.037929	61.8357	20914.9	0.036074	0.054275	1139.29	82021.4
395	2.000000	1.146869	7.36893e+06	-57339.1	1005.82	-29737.2	0.000000	0.000000	7.150972	104.274	NaN	0.000000	0.001556	0.001668	28.0778	47.3687	0.001731	27358.4	3.844779	177.45	101.922	1.146590	0.048727	0.048447	104.274	27358.4	0.045868	0.080071	1302.28	88333.8
395	2.000000	1.157393	7.36893e+06	-57339.1	1005.82	-29737.2	0.000000	0.000000	7.163273	147.459	NaN	0.000000	0.001585	0.001686	28.0785	57.0165	0.001683	33869.9	4.591938	-5.388726	145.818	1.157088	0.059251	0.058945	147.459	33869.9	0.055985	0.111807	1318.86	92544.9
395	2.000000	1.167814	7.36893e+06	-57339.1	1005.82	-29737.2	0.000000	0.000000	7.176314	211.124	NaN	0.000000	0.001585	0.001687	28.0784	67.7855	0.001823	37180.2	1.134408	178.112	205.741	1.167532	0.069672	0.069389	211.124	37180.2	0.065413	0.145932	1446.72	88922.1
395	2.000000	1.178323	7.36893e+06	-57339.1	1005.82	-29737.2	0.000000	0.000000	7.189083	266.059	NaN	0.000000	0.001593	0.001660	28.0781	79.2671	0.001846	42928.4	6.465909	-9.262752	262.238	1.178114	0.080181	0.079972	266.059	42928.4	0.075532	0.187318	1420.36	90620.8
395	2.000000	1.188736	7.36893e+06	-57339.1	1005.82	-29737.2	0.000000	0.000000	7.202942	349.825	NaN	0.000000	0.001611	0.001679	28.079	86.1249	0.001735	49641.1	0.325482	176.817	344.76	1.188396	0.090594	0.090253	349.825	49641.1	0.085309	0.231876	1508.67	94186.2
395	2.000000	1.199307	7.36893e+06	-57339.1	1005.82	-29737.2	0.000000	0.000000	7.216489	422.139	NaN	0.000000	0.001577	0.001668	28.079	99.3105	0.001821	54547.2	9.690296	-13.6035	419.583	1.198809	0.101165	0.100667	422.139	54547.2	0.095361	0.282292	1495.4	93798.6
395	2.000000	1.206799	7.36893e+06	-57339.1	1005.82	-29737.2	0.000000	0.000000	7.226153	474.946	NaN	0.000000	0.001625	0.001664	28.0792	103.942	0.001810	57425.1	5.725229	169.843	472.428	1.206606	0.108656	0.108464	474.946	57425.1	0.102453	0.320643	1481.23	92654.1

File: 2025-07-22_16-23-58_1_396.txt
2025-07-22, 16:23:58, 1
Index	Phase	Displacement	Time	Pos X	Pos Y	Pos Z	Rot A	Rot B	Piezo Z	Force A	Force B	Gripper	Voltage A	Voltage B	Temperature	Amplitude force	Amplitude pos	Stiffness	Phase shift	Phase excitation	Force A raw	Displacement raw	HMax	HMax raw	Real Force	Real Stiffness	Contact Depth	Area	Hardness	Reduced Mod.
[#]	[#]	[um]	[s]	[um]	[um]	[um]	[m°]	[m°]	[um]	[uN]	[uN]	[V]	[V]	[V]	[°C]	[uN]	[um]	[N/m]	[°]	[°]	[uN]	[um]	[um]	[um]	[uN]	[N/m]	[um]	[um^2]	[MPa]	[MPa]
396	1.000000	0.002754	7.36893e+06	-57289.1	1005.82	-29737.2	0.000000	0.000000	6.002832	-0.061952	NaN	0.000000	0.001608	0.001709	28.0806	0.041313	0.000956	43.2189	-104.169	-162.2	-0.043369	0.001446	-1.092339	-1.093648	-0.061952	43.2189	-1.091264	-3.826336E+14	1.619090E-16	NaN
396	1.000000	0.044678	7.36893e+06	-57289.1	1005.82	-29737.2	0.000000	0.000000	6.044757	-0.049964	NaN	0.000000	0.001589	0.001677	28.0815	0.015444	0.001971	7.835812	83.238	14.2586	-0.032851	0.043299	-1.050415	-1.051794	-0.049964	7.835812	-1.045633	-9.326192E+13	5.357339E-16	NaN
396	1.000000	0.086680	7.36893e+06	-57289.1	1005.82	-29737.2	0.000000	0.000000	6.086761	-0.006536	NaN	0.000000	0.001613	0.001674	28.0815	0.041942	0.001989	21.0837	-165.526	-164.041	-0.022006	0.085300	-1.008413	-1.009794	-0.006536	21.0837	-1.008181	-2.923434E+13	2.235561E-16	NaN
396	1.000000	0.128690	7.36893e+06	-57289.1	1005.82	-29737.2	0.000000	0.000000	6.128771	0.012051	NaN	0.000000	0.001605	0.001647	28.0814	0.163227	0.002093	77.9817	-30.4325	13.1231	0.065110	0.127343	-0.966404	-0.967751	0.012051	77.9817	-0.966520	-8.030731E+12	-1.500612E-15	NaN
396	1.000000	0.170706	7.36893e+06	-57289.1	1005.82	-29737.3	0.000000	0.000000	6.170785	-0.033529	NaN	0.000000	0.001622	0.001664	28.0802	0.014888	0.001929	7.718249	81.0634	-163.433	-0.053378	0.169439	-0.924388	-0.925655	-0.033529	7.718249	-0.921130	-1.960905E+12	1.709854E-14	NaN
396	1.000000	0.212725	7.36894e+06	-57289.1	1005.82	-29737.3	0.000000	0.000000	6.212801	-0.111891	NaN	0.000000	0.001591	0.001670	28.0801	0.067634	0.002028	33.3476	154.274	12.8897	-0.029434	0.211352	-0.882369	-0.883741	-0.111891	33.3476	-0.879852	-5.428859E+11	2.061045E-13	NaN
396	1.000000	0.254740	7.36894e+06	-57289.1	1005.82	-29737.3	0.000000	0.000000	6.254819	-0.042763	NaN	0.000000	0.001638	0.001699	28.0801	0.035439	0.001984	17.8592	121.742	-167.101	-0.044529	0.253468	-0.840354	-0.841625	-0.042763	17.8592	-0.838558	-1.498831E+11	2.853120E-13	NaN
396	1.000000	0.296765	7.36894e+06	-57289.1	1005.82	-29737.3	0.000000	0.000000	6.296841	-0.115625	NaN	0.000000	0.001614	0.001756	28.0815	0.040938	0.001763	23.219	81.2844	17.3318	-0.051380	0.295444	-0.798329	-0.799649	-0.115625	23.219	-0.794594	-3.797216E+10	3.044987E-12	NaN
396	1.000000	0.338785	7.36894e+06	-57289.1	1005.82	-29737.3	0.000000	0.000000	6.338864	-0.036760	NaN	0.000000	0.001647	0.001696	28.081	0.024289	0.002067	11.7523	-13.6786	-159.737	-0.002172	0.337534	-0.756308	-0.757560	-0.036760	11.7523	-0.753962	-1.064503E+10	3.453241E-12	NaN
396	1.000000	0.380816	7.36894e+06	-57289.1	1005.82	-29737.3	0.000000	0.000000	6.380897	0.007282	NaN	0.000000	0.001597	0.001685	28.0809	0.061249	0.001968	31.1216	-152.414	12.699	0.005316	0.379468	-0.714277	-0.715626	0.007282	31.1216	-0.714453	-3.081808E+9	-2.362755E-12	NaN
396	1.000000	0.422853	7.36894e+06	-57289.1	1005.82	-29737.3	0.000000	0.000000	6.422934	0.001615	NaN	0.000000	0.001597	0.001670	28.0798	0.046806	0.002146	21.8126	116.214	-167.399	-0.079433	0.421558	-0.672240	-0.673536	0.001615	21.8126	-0.672296	-8.181077E+8	-1.973776E-12	NaN
396	1.000000	0.464859	7.36894e+06	-57289.1	1005.82	-29737.3	0.000000	0.000000	6.464939	-0.014605	NaN	0.000000	0.001600	0.001754	28.0799	0.046669	0.002025	23.0516	-80.8028	14.4769	-0.006127	0.463471	-0.630234	-0.631623	-0.014605	23.0516	-0.629759	-2.136572E+8	6.835747E-11	NaN
396	1.000000	0.506856	7.36894e+06	-57289.1	1005.82	-29737.3	0.000000	0.000000	6.506936	-0.022011	NaN	0.000000	0.001600	0.001681	28.08	0.136174	0.001984	68.649	97.8932	-165.799	-0.110859	0.505549	-0.588237	-0.589544	-0.022011	68.649	-0.587997	-5.689165E+7	3.868919E-10	NaN
396	1.000000	0.548900	7.36894e+06	-57289.1	1005.82	-29737.3	0.000000	0.000000	6.548980	-0.011312	NaN	0.000000	0.001626	0.001684	28.0802	0.044966	0.001802	24.955	49.7092	16.1726	-0.029320	0.547520	-0.546194	-0.547574	-0.011312	24.955	-0.545854	-1.487698E+7	7.603491E-10	NaN
396	1.000000	0.590886	7.36894e+06	-57289.1	1005.82	-29737.3	0.000000	0.000000	6.590965	-0.022629	NaN	0.000000	0.001591	0.001714	28.0814	0.070701	0.002120	33.35	-165.38	-170.056	0.001641	0.589610	-0.504208	-0.505483	-0.022629	33.35	-0.503699	-3.86018e+06	5.862278E-9	NaN
396	1.000000	0.632923	7.36894e+06	-57289.1	1005.82	-29737.3	0.000000	0.000000	6.633002	-0.031927	NaN	0.000000	0.001601	0.001666	28.0817	0.083264	0.002048	40.6602	135.626	15.9715	-0.016127	0.631603	-0.462171	-0.463490	-0.031927	40.6602	-0.461582	-993679	3.213010E-8	NaN
396	1.000000	0.674936	7.36894e+06	-57289.1	1005.82	-29737.3	0.000000	0.000000	6.675016	0.010855	NaN	0.000000	0.001637	0.001638	28.0814	0.078510	0.002114	37.1307	53.8305	-163.487	0.079246	0.673611	-0.420158	-0.421482	0.010855	37.1307	-0.420377	-260473	-4.167229E-8	NaN
396	1.000000	0.716969	7.36894e+06	-57289.1	1005.82	-29737.3	0.000000	0.000000	6.717050	0.019104	NaN	0.000000	0.001614	0.001685	28.0803	0.023770	0.002032	11.6997	-117.966	14.4923	-0.013472	0.715551	-0.378125	-0.379542	0.019104	11.6997	-0.379349	-67693.8	-2.822051E-7	NaN
396	1.000000	0.758997	7.36894e+06	-57289.1	1005.82	-29737.3	0.000000	0.000000	6.759078	0.010182	NaN	0.000000	0.001608	0.001656	28.0804	0.035128	0.001887	18.6185	-122.315	-164.834	0.013018	0.757658	-0.336097	-0.337436	0.010182	18.6185	-0.336507	-16240.3	-6.269459E-7	NaN
396	1.000000	0.800984	7.36894e+06	-57289.1	1005.82	-29737.3	0.000000	0.000000	6.801063	-0.031069	NaN	0.000000	0.001610	0.001722	28.0803	0.099781	0.002012	49.598	158.935	15.2198	-0.035432	0.799624	-0.294109	-0.295469	-0.031069	49.598	-0.293639	-3782.36	8.214246E-6	NaN
396	1.000000	0.842978	7.36894e+06	-57289.1	1005.82	-29737.3	0.000000	0.000000	6.843053	-0.116072	NaN	0.000000	0.001589	0.001678	28.0814	0.081867	0.001924	42.5452	-72.0069	-166.578	-0.085899	0.841702	-0.252116	-0.253391	-0.116072	42.5452	-0.250070	-824.22	0.000141	NaN
396	1.000000	0.885016	7.36894e+06	-57289.1	1005.82	-29737.3	0.000000	0.000000	6.885092	-0.092709	NaN	0.000000	0.001598	0.001627	28.0817	0.037108	0.002091	17.7446	-50.3405	17.8028	-0.165455	0.883696	-0.210078	-0.211398	-0.092709	17.7446	-0.206159	-166.131	0.000558	NaN
396	1.000000	0.927036	7.36894e+06	-57289.1	1005.82	-29737.3	0.000000	0.000000	6.927115	-0.023900	NaN	0.000000	0.001608	0.001654	28.0815	0.115191	0.002148	53.6197	-59.6982	-166.123	-0.049114	0.925685	-0.168058	-0.169409	-0.023900	53.6197	-0.167723	-37.4958	0.000637	NaN
396	1.000000	0.969035	7.36894e+06	-57289.1	1005.82	-29737.3	0.000000	0.000000	6.969115	-0.026221	NaN	0.000000	0.001694	0.001642	28.0807	0.104393	0.002059	50.6991	129.411	17.2675	0.000354	0.967722	-0.126058	-0.127371	-0.026221	50.6991	-0.125670	-6.269627	0.004182	NaN
396	1.000000	1.011060	7.36894e+06	-57289.1	1005.82	-29737.3	0.000000	0.000000	7.011138	-0.051295	NaN	0.000000	0.001569	0.001610	28.0804	0.055875	0.001923	29.0536	-163.01	-163.949	-0.010096	1.009761	-0.084034	-0.085332	-0.051295	29.0536	-0.082710	-0.722498	0.070996	NaN
396	1.000000	1.053096	7.36894e+06	-57289.1	1005.82	-29737.3	0.000000	0.000000	7.053174	-0.055841	NaN	0.000000	0.001534	0.001602	28.0804	0.054845	0.001852	29.6093	28.0497	14.1279	-0.000526	1.051766	-0.041997	-0.043327	-0.055841	29.6093	-0.040583	-0.047105	1.185458	NaN
396	1.000000	1.095090	7.36894e+06	-57289.1	1005.82	-29737.3	0.000000	0.000000	7.095170	-0.022911	NaN	0.000000	0.001584	0.001619	28.0805	0.076568	0.001996	38.3576	-35.0724	-165.72	0.036991	1.093771	-3.296891E-6	-0.001323	-0.022911	38.3576	0.000445	0.000335	-68.3508	1914.16
396	2.000000	1.113206	7.36894e+06	-57289.1	1005.82	-29737.3	0.000000	0.000000	7.113955	16.2519	NaN	0.000000	0.001585	0.001594	28.0816	17.2999	0.001829	9460.26	8.731905	2.803977	15.9427	1.112853	0.018112	0.017759	16.2519	9460.26	0.016824	0.017795	913.284	64792.8
396	2.000000	1.123702	7.36894e+06	-57289.1	1005.82	-29737.3	0.000000	0.000000	7.125505	41.8808	NaN	0.000000	0.001627	0.001599	28.0817	28.8099	0.001776	16220.4	4.976296	-177.403	44.4909	1.123315	0.028608	0.028222	41.8808	16220.4	0.026672	0.034127	1227.2	80220.4
396	2.000000	1.134092	7.36894e+06	-57289.1	1005.82	-29737.3	0.000000	0.000000	7.137583	82.9024	NaN	0.000000	0.001626	0.001623	28.0821	40.3496	0.001702	23703.4	4.590561	-2.939931	79.6033	1.133742	0.038998	0.038648	82.9024	23703.4	0.036375	0.054996	1507.43	92346.1
396	2.000000	1.144563	7.36894e+06	-57289.1	1005.82	-29737.3	0.000000	0.000000	7.150270	136.754	NaN	0.000000	0.001574	0.001601	28.0809	51.0899	0.001707	29924.5	2.089970	178.623	132.603	1.144309	0.049470	0.049216	136.754	29924.5	0.046042	0.080574	1697.25	96317.2
396	2.000000	1.154983	7.36894e+06	-57289.1	1005.82	-29737.3	0.000000	0.000000	7.164047	218.33	NaN	0.000000	0.001652	0.001612	28.0802	62.9101	0.001700	37002.9	6.965808	-8.124268	209.715	1.154776	0.059890	0.059682	218.33	37002.9	0.055464	0.110049	1983.94	101910
396	2.000000	1.165583	7.36894e+06	-57289.1	1005.82	-29737.3	0.000000	0.000000	7.178765	318.424	NaN	0.000000	0.001640	0.001582	28.0805	74.7114	0.001896	39395.9	5.720945	173.399	315.14	1.165178	0.070490	0.070085	318.424	39395.9	0.064428	0.142162	2239.86	95462.3
396	2.000000	1.176012	7.36894e+06	-57289.1	1005.82	-29737.3	0.000000	0.000000	7.193510	423.34	NaN	0.000000	0.001613	0.001601	28.0819	85.1367	0.001738	48988.9	3.902122	-6.497400	417.477	1.175634	0.080919	0.080541	423.34	48988.9	0.074437	0.182606	2318.33	104740
396	2.000000	1.186484	7.36894e+06	-57289.1	1005.82	-29737.3	0.000000	0.000000	7.208886	542.508	NaN	0.000000	0.001615	0.001641	28.0815	94.7621	0.001757	53930.4	5.560756	170.905	538.678	1.186193	0.091391	0.091099	542.508	53930.4	0.083846	0.224930	2411.9	103892
396	2.000000	1.196979	7.36894e+06	-57289.1	1005.82	-29737.3	0.000000	0.000000	7.224103	657.277	NaN	0.000000	0.001570	0.001657	28.0817	105.542	0.001808	58385.1	4.854546	-8.905516	650.802	1.196579	0.101886	0.101485	657.277	58385.1	0.093442	0.272314	2413.67	102221
396	2.000000	1.203964	7.36894e+06	-57289.1	1005.82	-29737.3	0.000000	0.000000	7.235266	758.833	NaN	0.000000	0.001651	0.001690	28.0817	112.025	0.001870	59914.3	1.660144	-5.466115	751.815	1.203552	0.108871	0.108458	758.833	59914.3	0.099372	0.303699	2498.63	99330.3