Folder: unikorn_login/remote_trans/data/nanoindenter/0828-1/data/Data_2025-08-06,11h17m57s (part 32)

File: 2025-07-22_16-23-58_1_62.txt
2025-07-22, 16:23:58, 1
Index	Phase	Displacement	Time	Pos X	Pos Y	Pos Z	Rot A	Rot B	Piezo Z	Force A	Force B	Gripper	Voltage A	Voltage B	Temperature	Amplitude force	Amplitude pos	Stiffness	Phase shift	Phase excitation	Force A raw	Displacement raw	HMax	HMax raw	Real Force	Real Stiffness	Contact Depth	Area	Hardness	Reduced Mod.
[#]	[#]	[um]	[s]	[um]	[um]	[um]	[m°]	[m°]	[um]	[uN]	[uN]	[V]	[V]	[V]	[°C]	[uN]	[um]	[N/m]	[°]	[°]	[uN]	[um]	[um]	[um]	[uN]	[N/m]	[um]	[um^2]	[MPa]	[MPa]
62	1.000000	0.002353	7.36565e+06	-41739.1	955.818	-29785.8	0.000000	0.000000	6.002823	-0.009000	NaN	0.000000	0.001683	0.001640	28.1282	0.034776	0.000932	37.3133	-119.549	-169.961	-0.000501	0.001056	-1.108972	-1.110269	-0.009000	37.3133	-1.108791	-6.577579E+14	1.368330E-17	NaN
62	1.000000	0.042281	7.36565e+06	-41739.1	955.819	-29785.8	0.000000	0.000000	6.042752	-0.019043	NaN	0.000000	0.001666	0.001642	28.1306	0.037128	0.001971	18.8391	-144.631	-169.438	0.022096	0.041006	-1.069043	-1.070319	-0.019043	18.8391	-1.068285	-1.879976E+14	1.012912E-16	NaN
62	1.000000	0.082297	7.36565e+06	-41739.1	955.818	-29785.8	0.000000	0.000000	6.082771	0.086767	NaN	0.000000	0.001672	0.001645	28.1294	0.031981	0.001917	16.6828	15.3351	-167.743	0.004163	0.080970	-1.029028	-1.030355	0.086767	16.6828	-1.032929	-6.293197E+13	-1.378749E-15	NaN
62	1.000000	0.122296	7.36565e+06	-41739.1	955.819	-29785.8	0.000000	0.000000	6.122769	0.059728	NaN	0.000000	0.001560	0.001667	28.13	0.063281	0.002058	30.7441	93.6902	-167.239	0.055981	0.120992	-0.989029	-0.990333	0.059728	30.7441	-0.990486	-1.689113E+13	-3.536066E-15	NaN
62	1.000000	0.162335	7.36565e+06	-41739.1	955.819	-29785.8	0.000000	0.000000	6.162806	0.013693	NaN	0.000000	0.001585	0.001682	28.1286	0.054087	0.001967	27.4993	-172.64	-167.614	0.004949	0.160995	-0.948990	-0.950330	0.013693	27.4993	-0.949363	-4.714576E+12	-2.904298E-15	NaN
62	1.000000	0.202349	7.36565e+06	-41739.1	955.818	-29785.8	0.000000	0.000000	6.202823	0.082372	NaN	0.000000	0.001553	0.001689	28.1286	0.026287	0.001988	13.2222	-163.562	-164.49	0.075860	0.201032	-0.908976	-0.910293	0.082372	13.2222	-0.913649	-1.553973E+12	-5.300740E-14	NaN
62	1.000000	0.242355	7.36565e+06	-41739.1	955.818	-29785.8	0.000000	0.000000	6.242827	0.026785	NaN	0.000000	0.001600	0.001649	28.1273	0.083178	0.001878	44.2793	90.6763	-160.878	0.027193	0.241021	-0.868969	-0.870304	0.026785	44.2793	-0.869423	-3.923194E+11	-6.827328E-14	NaN
62	1.000000	0.282367	7.36565e+06	-41739.1	955.819	-29785.8	0.000000	0.000000	6.282838	0.005247	NaN	0.000000	0.001618	0.001659	28.1285	0.049998	0.002017	24.7866	162.465	-169.345	0.133834	0.281044	-0.828958	-0.830281	0.005247	24.7866	-0.829117	-1.116383E+11	-4.699765E-14	NaN
62	1.000000	0.322386	7.36565e+06	-41739.1	955.819	-29785.8	0.000000	0.000000	6.322859	0.069029	NaN	0.000000	0.001615	0.001635	28.1287	0.023969	0.002006	11.951	-119.886	-169.121	0.018459	0.321111	-0.788939	-0.790214	0.069029	11.951	-0.793271	-3.643394E+10	-1.894632E-12	NaN
62	1.000000	0.362443	7.36565e+06	-41739.1	955.818	-29785.8	0.000000	0.000000	6.362916	0.043369	NaN	0.000000	0.001645	0.001661	28.1305	0.076189	0.002027	37.581	-157.084	-166.093	0.078850	0.361138	-0.748882	-0.750187	0.043369	37.581	-0.749747	-9.327867E+9	-4.649427E-12	NaN
62	1.000000	0.402444	7.36565e+06	-41739.1	955.819	-29785.8	0.000000	0.000000	6.402917	0.044203	NaN	0.000000	0.001660	0.001634	28.1284	0.034736	0.002069	16.7866	-25.8478	-165.904	0.029032	0.401113	-0.708881	-0.710212	0.044203	16.7866	-0.710856	-2.752487E+9	-1.605939E-11	NaN
62	1.000000	0.442455	7.36565e+06	-41739.1	955.818	-29785.8	0.000000	0.000000	6.442925	-0.015931	NaN	0.000000	0.001565	0.001661	28.1294	0.066449	0.001795	37.0092	13.3534	-166.132	0.035305	0.441119	-0.668870	-0.670206	-0.015931	37.0092	-0.668547	-7.269418E+8	2.191571E-11	NaN
62	1.000000	0.482466	7.36565e+06	-41739.1	955.819	-29785.8	0.000000	0.000000	6.482937	0.009231	NaN	0.000000	0.001545	0.001682	28.1277	0.092575	0.001986	46.6121	-70.9594	-167.635	0.064342	0.481181	-0.628859	-0.630144	0.009231	46.6121	-0.629007	-2.086368E+8	-4.424296E-11	NaN
62	1.000000	0.522492	7.36565e+06	-41739.1	955.818	-29785.8	0.000000	0.000000	6.522967	0.107093	NaN	0.000000	0.001636	0.001675	28.1281	0.068079	0.002015	33.7808	-108.264	-164.862	0.088019	0.521152	-0.588833	-0.590173	0.107093	33.7808	-0.591211	-6.300236E+7	-1.699831E-9	NaN
62	1.000000	0.562492	7.36565e+06	-41739.1	955.819	-29785.8	0.000000	0.000000	6.562963	0.017228	NaN	0.000000	0.001600	0.001676	28.1268	0.041850	0.002122	19.723	165.695	-165.413	-0.007119	0.561206	-0.548833	-0.550119	0.017228	19.723	-0.549488	-1.670588E+7	-1.031229E-9	NaN
62	1.000000	0.602523	7.36565e+06	-41739.1	955.818	-29785.8	0.000000	0.000000	6.602997	0.064699	NaN	0.000000	0.001609	0.001707	28.1286	0.118610	0.001894	62.6263	154.849	-171.193	-0.010178	0.601227	-0.508802	-0.510098	0.064699	62.6263	-0.509577	-4.6614e+06	-1.387982E-8	NaN
62	1.000000	0.642510	7.36565e+06	-41739.1	955.817	-29785.8	0.000000	0.000000	6.642980	-0.014256	NaN	0.000000	0.001617	0.001665	28.1278	0.096955	0.002046	47.395	22.6807	-168.157	-0.060029	0.641225	-0.468815	-0.470100	-0.014256	47.395	-0.468589	-1.24629e+06	1.143875E-8	NaN
62	1.000000	0.682542	7.36565e+06	-41739.1	955.819	-29785.8	0.000000	0.000000	6.683014	0.028341	NaN	0.000000	0.001652	0.001705	28.1288	0.073855	0.001881	39.2693	-87.3366	-167.691	0.012356	0.681279	-0.428783	-0.430046	0.028341	39.2693	-0.429324	-348738	-8.126648E-8	NaN
62	1.000000	0.722548	7.36565e+06	-41739.1	955.818	-29785.8	0.000000	0.000000	6.723018	-0.031772	NaN	0.000000	0.001651	0.001697	28.1277	0.062496	0.002001	31.2295	-97.2691	-166.555	0.017294	0.721245	-0.388777	-0.390080	-0.031772	31.2295	-0.388014	-90104.3	3.526168E-7	NaN
62	1.000000	0.762584	7.36565e+06	-41739.1	955.819	-29785.8	0.000000	0.000000	6.763059	0.102607	NaN	0.000000	0.001585	0.001703	28.1274	0.061246	0.002027	30.2097	-80.1913	-164.425	0.135075	0.761202	-0.348741	-0.350123	0.102607	30.2097	-0.351288	-26649.9	-3.850195E-6	NaN
62	1.000000	0.802620	7.36565e+06	-41739.1	955.819	-29785.8	0.000000	0.000000	6.803092	0.029769	NaN	0.000000	0.001624	0.001718	28.1259	0.075553	0.001991	37.9482	22.8423	-164.835	0.061407	0.801281	-0.308705	-0.310044	0.029769	37.9482	-0.309293	-6465.34	-4.604382E-6	NaN
62	1.000000	0.842614	7.36565e+06	-41739.1	955.819	-29785.8	0.000000	0.000000	6.843086	0.023532	NaN	0.000000	0.001664	0.001655	28.1269	0.133758	0.002224	60.1323	-17.2521	-164.534	0.068944	0.841289	-0.268711	-0.270036	0.023532	60.1323	-0.269004	-1608.44	-1.463021E-5	NaN
62	1.000000	0.882624	7.36565e+06	-41739.1	955.818	-29785.8	0.000000	0.000000	6.883095	0.013768	NaN	0.000000	0.001609	0.001684	28.1266	0.075991	0.001990	38.19	-60.105	-171.403	-0.027900	0.881303	-0.228701	-0.230022	0.013768	38.19	-0.228971	-385.715	-3.569365E-5	NaN
62	1.000000	0.922643	7.36565e+06	-41739.1	955.818	-29785.8	0.000000	0.000000	6.923115	0.018999	NaN	0.000000	0.001655	0.001693	28.128	0.101029	0.002047	49.3452	176.403	-168.996	0.115465	0.921369	-0.188682	-0.189956	0.018999	49.3452	-0.188971	-86.4607	-0.000220	NaN
62	1.000000	0.962674	7.36565e+06	-41739.1	955.818	-29785.8	0.000000	0.000000	6.963143	-0.039911	NaN	0.000000	0.001642	0.001693	28.1265	0.098873	0.001872	52.8158	39.0619	-167.98	0.039742	0.961389	-0.148651	-0.149936	-0.039911	52.8158	-0.148085	-16.71	0.002388	NaN
62	1.000000	1.002689	7.36565e+06	-41739.1	955.82	-29785.8	0.000000	0.000000	7.003161	0.047827	NaN	0.000000	0.001603	0.001653	28.1264	0.058407	0.002119	27.5645	4.676217	-166.845	0.026133	1.001373	-0.108636	-0.109952	0.047827	27.5645	-0.109938	-2.996116	-0.015963	NaN
62	1.000000	1.042702	7.36565e+06	-41739.1	955.819	-29785.8	0.000000	0.000000	7.043229	1.356450	NaN	0.000000	0.001643	0.001666	28.1257	1.180889	0.001907	619.241	11.6462	-168.267	0.959872	1.041361	-0.068623	-0.069964	1.356450	619.241	-0.070266	-0.346742	-3.911992	NaN
62	2.000000	1.079366	7.36565e+06	-41739.1	955.82	-29785.8	0.000000	0.000000	7.080205	8.965754	NaN	0.000000	0.001616	0.001651	28.1261	7.508045	0.001690	4442.97	7.143232	-169.61	9.090247	1.079037	-0.031959	-0.032288	8.965754	4442.97	-0.033472	-0.028894	-310.299	NaN
62	2.000000	1.089305	7.36565e+06	-41739.1	955.821	-29785.8	0.000000	0.000000	7.090849	26.101	NaN	0.000000	0.001667	0.001661	28.1249	19.2783	0.001855	10391.6	5.809873	-175.006	26.4285	1.088939	-0.022019	-0.022386	26.101	10391.6	-0.023903	-0.015799	-1652.02	NaN
62	2.000000	1.099220	7.36565e+06	-41739.1	955.82	-29785.8	0.000000	0.000000	7.101802	51.3636	NaN	0.000000	0.001603	0.001676	28.1269	30.0538	0.001913	15706.5	3.418205	-177.618	50.2515	1.098919	-0.012105	-0.012406	51.3636	15706.5	-0.014558	-0.009012	-5699.5	NaN
62	2.000000	1.109200	7.36565e+06	-41739.1	955.821	-29785.8	0.000000	0.000000	7.113136	84.3048	NaN	0.000000	0.001611	0.001694	28.1259	38.247	0.001780	21492.7	4.465754	177.866	82.5295	1.108927	-0.002125	-0.002398	84.3048	21492.7	-0.005067	-0.003459	-24375.9	NaN
62	2.000000	1.119217	7.36565e+06	-41739.1	955.821	-29785.8	0.000000	0.000000	7.124831	125.158	NaN	0.000000	0.001604	0.001716	28.1274	47.9232	0.001718	27888.5	6.336812	174.885	124.905	1.118885	0.007892	0.007560	125.158	27888.5	0.004526	0.003705	33780.2	418602
62	2.000000	1.129138	7.36565e+06	-41739.1	955.821	-29785.8	0.000000	0.000000	7.137043	180.887	NaN	0.000000	0.001585	0.001720	28.125	58.5478	0.001895	30891.8	6.394835	173.292	176.934	1.128962	0.017813	0.017638	180.887	30891.8	0.013421	0.013238	13664.7	245308
62	2.000000	1.139142	7.36565e+06	-41739.1	955.821	-29785.8	0.000000	0.000000	7.149992	252.536	NaN	0.000000	0.001610	0.001671	28.1257	68.0019	0.001926	35316.1	2.595146	176.248	250.57	1.138952	0.027817	0.027627	252.536	35316.1	0.022454	0.026547	9512.84	198034
62	2.000000	1.149153	7.36565e+06	-41739.1	955.821	-29785.8	0.000000	0.000000	7.163195	330.213	NaN	0.000000	0.001658	0.001666	28.1249	78.4777	0.001888	41558.6	6.950461	171.256	327.402	1.148805	0.037828	0.037480	330.213	41558.6	0.031869	0.044706	7386.34	179577
62	2.000000	1.159130	7.36565e+06	-41739.1	955.821	-29785.8	0.000000	0.000000	7.176694	415.901	NaN	0.000000	0.001665	0.001651	28.1252	86.2248	0.001730	49854.6	3.619708	172.371	413.693	1.158838	0.047805	0.047513	415.901	49854.6	0.041548	0.068091	6108.02	174556
62	2.000000	1.169166	7.36565e+06	-41739.1	955.821	-29785.8	0.000000	0.000000	7.190140	498.87	NaN	0.000000	0.001641	0.001636	28.1254	97.8386	0.001854	52758.6	4.887954	170.64	500.063	1.168931	0.057842	0.057606	498.87	52758.6	0.050750	0.094745	5265.42	156599
62	2.000000	1.176723	7.36565e+06	-41739.1	955.821	-29785.8	0.000000	0.000000	7.200602	569.569	NaN	0.000000	0.001630	0.001674	28.087	102.003	0.001796	56799.1	5.580380	-10.5115	571.914	1.176413	0.065398	0.065088	569.569	56799.1	0.057877	0.118306	4814.37	150873

File: 2025-07-22_16-23-58_1_63.txt
2025-07-22, 16:23:58, 1
Index	Phase	Displacement	Time	Pos X	Pos Y	Pos Z	Rot A	Rot B	Piezo Z	Force A	Force B	Gripper	Voltage A	Voltage B	Temperature	Amplitude force	Amplitude pos	Stiffness	Phase shift	Phase excitation	Force A raw	Displacement raw	HMax	HMax raw	Real Force	Real Stiffness	Contact Depth	Area	Hardness	Reduced Mod.
[#]	[#]	[um]	[s]	[um]	[um]	[um]	[m°]	[m°]	[um]	[uN]	[uN]	[V]	[V]	[V]	[°C]	[uN]	[um]	[N/m]	[°]	[°]	[uN]	[um]	[um]	[um]	[uN]	[N/m]	[um]	[um^2]	[MPa]	[MPa]
63	1.000000	0.002706	7.36566e+06	-41789.1	955.819	-29785.6	0.000000	0.000000	6.002796	-0.034184	NaN	0.000000	0.001591	0.001665	28.0851	0.126273	0.000919	137.436	-118.956	-169.24	-0.006478	0.001453	-1.144929	-1.146182	-0.034184	137.436	-1.144743	-1.996798E+15	1.711941E-17	NaN
63	1.000000	0.044635	7.36566e+06	-41789.1	955.818	-29785.6	0.000000	0.000000	6.044727	0.007437	NaN	0.000000	0.001606	0.001738	28.124	0.029329	0.002005	14.6255	66.4592	17.3029	-0.039735	0.043310	-1.103000	-1.104326	0.007437	14.6255	-1.103381	-5.564890E+14	-1.336342E-17	NaN
63	1.000000	0.086705	7.36566e+06	-41789.1	955.819	-29785.6	0.000000	0.000000	6.086794	-0.042137	NaN	0.000000	0.001634	0.001662	28.1159	0.029437	0.001858	15.8408	-91.6055	-164.221	-0.007638	0.085349	-1.060931	-1.062287	-0.042137	15.8408	-1.058936	-1.407735E+14	2.993258E-16	NaN
63	1.000000	0.128699	7.36566e+06	-41789.1	955.818	-29785.6	0.000000	0.000000	6.128791	-0.004849	NaN	0.000000	0.001601	0.001696	28.0822	0.083246	0.002200	37.8375	-72.3358	11.9134	0.047394	0.127317	-1.018936	-1.020318	-0.004849	37.8375	-1.018840	-4.067667E+13	1.192016E-16	NaN
63	1.000000	0.170720	7.36566e+06	-41789.1	955.817	-29785.6	0.000000	0.000000	6.170810	-0.059274	NaN	0.000000	0.001681	0.001704	28.0859	0.122031	0.002010	60.7173	61.3633	-163.162	-0.009608	0.169385	-0.976915	-0.978251	-0.059274	60.7173	-0.976183	-1.083884E+13	5.468682E-15	NaN
63	1.000000	0.212748	7.36566e+06	-41789.1	955.817	-29785.6	0.000000	0.000000	6.212838	-0.047098	NaN	0.000000	0.001650	0.001720	28.1247	0.033510	0.001972	16.9969	-175.806	14.8384	-0.024356	0.211414	-0.934887	-0.936221	-0.047098	16.9969	-0.932809	-2.819086E+12	1.670688E-14	NaN
63	1.000000	0.254739	7.36566e+06	-41789.1	955.818	-29785.6	0.000000	0.000000	6.254829	-0.036197	NaN	0.000000	0.001664	0.001665	28.1157	0.020786	0.001976	10.5176	10.9571	-167.484	-0.074083	0.253492	-0.892896	-0.894144	-0.036197	10.5176	-0.890315	-7.519244E+11	4.813959E-14	NaN
63	1.000000	0.296753	7.36566e+06	-41789.1	955.819	-29785.6	0.000000	0.000000	6.296842	-0.048139	NaN	0.000000	0.001598	0.001698	28.0826	0.066515	0.002077	32.0179	158.152	12.0117	-0.013780	0.295387	-0.850883	-0.852248	-0.048139	32.0179	-0.849755	-2.125310E+11	2.265038E-13	NaN
63	1.000000	0.338794	7.36566e+06	-41789.1	955.819	-29785.6	0.000000	0.000000	6.338883	-0.080340	NaN	0.000000	0.001558	0.001662	28.0866	0.038576	0.002177	17.7194	-56.0164	-165.067	-0.027681	0.337463	-0.808841	-0.810172	-0.080340	17.7194	-0.805440	-5.329710E+10	1.507408E-12	NaN
63	1.000000	0.380795	7.36566e+06	-41789.1	955.819	-29785.6	0.000000	0.000000	6.380886	-0.025120	NaN	0.000000	0.001635	0.001655	28.1244	0.021560	0.002049	10.5215	-74.8944	13.8347	-0.073702	0.379466	-0.766840	-0.768170	-0.025120	10.5215	-0.765049	-1.506560E+10	1.667361E-12	NaN
63	1.000000	0.422802	7.36566e+06	-41789.1	955.818	-29785.6	0.000000	0.000000	6.422891	-0.064319	NaN	0.000000	0.001615	0.001626	28.1176	0.046182	0.001955	23.6267	-104.852	-168.393	-0.044623	0.421595	-0.724833	-0.726040	-0.064319	23.6267	-0.722792	-4.004440E+9	1.606197E-11	NaN
63	1.000000	0.464837	7.36566e+06	-41789.1	955.819	-29785.6	0.000000	0.000000	6.464926	-0.084788	NaN	0.000000	0.001594	0.001688	28.0846	0.068667	0.002063	33.2821	-69.3655	11.2619	0.002950	0.463513	-0.682798	-0.684123	-0.084788	33.2821	-0.680887	-1.072361E+9	7.906677E-11	NaN
63	1.000000	0.506866	7.36566e+06	-41789.1	955.818	-29785.6	0.000000	0.000000	6.506957	-0.009745	NaN	0.000000	0.001580	0.001683	28.0842	0.106603	0.001940	54.943	-122.199	-165.967	0.104164	0.505542	-0.640770	-0.642094	-0.009745	54.943	-0.640637	-3.013172E+8	3.233988E-11	NaN
63	1.000000	0.548870	7.36566e+06	-41789.1	955.819	-29785.6	0.000000	0.000000	6.548958	-0.078666	NaN	0.000000	0.001544	0.001632	28.1226	0.037406	0.001843	20.2983	77.804	12.9151	-0.072427	0.547503	-0.598766	-0.600133	-0.078666	20.2983	-0.595859	-7.301651E+7	1.077375E-9	NaN
63	1.000000	0.590865	7.36566e+06	-41789.1	955.819	-29785.6	0.000000	0.000000	6.590954	-0.050112	NaN	0.000000	0.001608	0.001659	28.1162	0.105813	0.001913	55.3008	-80.4513	-164.395	-0.084356	0.589544	-0.556771	-0.558092	-0.050112	55.3008	-0.556091	-2.061999E+7	2.430256E-9	NaN
63	1.000000	0.632906	7.36566e+06	-41789.1	955.819	-29785.6	0.000000	0.000000	6.632997	0.001116	NaN	0.000000	0.001584	0.001641	28.0823	0.090560	0.001993	45.432	-125.517	13.8636	-0.097082	0.631607	-0.514730	-0.516028	0.001116	45.432	-0.514748	-5.50208e+06	-2.028102E-10	NaN
63	1.000000	0.674928	7.36566e+06	-41789.1	955.819	-29785.6	0.000000	0.000000	6.675018	-0.032869	NaN	0.000000	0.001606	0.001669	28.0846	0.046913	0.001931	24.2944	122.09	-172.287	-0.137142	0.673603	-0.472708	-0.474032	-0.032869	24.2944	-0.471693	-1.37769e+06	2.385791E-8	NaN
63	1.000000	0.716937	7.36566e+06	-41789.1	955.819	-29785.6	0.000000	0.000000	6.717029	0.012721	NaN	0.000000	0.001661	0.001644	28.1216	0.119969	0.001929	62.2014	24.6971	16.8688	0.068841	0.715589	-0.430699	-0.432047	0.012721	62.2014	-0.430852	-366537	-3.470508E-8	NaN
63	1.000000	0.758950	7.36566e+06	-41789.1	955.818	-29785.6	0.000000	0.000000	6.759038	-0.086391	NaN	0.000000	0.001643	0.001614	28.1183	0.098510	0.001991	49.486	-19.8409	-164.852	0.024871	0.757671	-0.388686	-0.389965	-0.086391	49.486	-0.387376	-88230.7	9.791447E-7	NaN
63	1.000000	0.800983	7.36566e+06	-41789.1	955.817	-29785.6	0.000000	0.000000	6.801076	0.034062	NaN	0.000000	0.001649	0.001625	28.0809	0.052119	0.002041	25.5318	-162.392	15.3555	-0.021733	0.799603	-0.346652	-0.348032	0.034062	25.5318	-0.347653	-23600.6	-1.443272E-6	NaN
63	1.000000	0.843022	7.36566e+06	-41789.1	955.818	-29785.6	0.000000	0.000000	6.843113	-0.019591	NaN	0.000000	0.001645	0.001679	28.0859	0.038844	0.001991	19.5084	-141.802	-164.375	0.051068	0.841682	-0.304613	-0.305954	-0.019591	19.5084	-0.303860	-5370.72	3.647819E-6	NaN
63	1.000000	0.885010	7.36566e+06	-41789.1	955.819	-29785.6	0.000000	0.000000	6.885099	-0.055894	NaN	0.000000	0.001584	0.001623	28.1213	0.102210	0.001942	52.6189	-111.182	12.0766	-0.127241	0.883579	-0.262626	-0.264056	-0.055894	52.6189	-0.261829	-1250.05	4.471370E-5	NaN
63	1.000000	0.927037	7.36566e+06	-41789.1	955.818	-29785.6	0.000000	0.000000	6.927126	-0.081866	NaN	0.000000	0.001581	0.001633	28.123	0.051276	0.002052	24.9919	158.446	-168.214	-0.049072	0.925753	-0.220598	-0.221882	-0.081866	24.9919	-0.218141	-259.381	0.000316	NaN
63	1.000000	0.969059	7.36566e+06	-41789.1	955.819	-29785.6	0.000000	0.000000	6.969150	0.004634	NaN	0.000000	0.001609	0.001664	28.0854	0.053195	0.002098	25.3558	-115.615	12.1168	0.008628	0.967723	-0.178577	-0.179913	0.004634	25.3558	-0.178714	-58.0177	-7.986967E-5	NaN
63	1.000000	1.011055	7.36566e+06	-41789.1	955.818	-29785.6	0.000000	0.000000	7.011146	-0.007734	NaN	0.000000	0.001558	0.001656	28.0853	0.094349	0.002179	43.2994	111.877	-165.441	0.006213	1.009739	-0.136581	-0.137896	-0.007734	43.2994	-0.136447	-10.1354	0.000763	NaN
63	1.000000	1.053079	7.36566e+06	-41789.1	955.819	-29785.6	0.000000	0.000000	7.053170	-0.002951	NaN	0.000000	0.001556	0.001653	28.1194	0.051718	0.001992	25.9563	-62.7132	18.1204	0.009876	1.051662	-0.094557	-0.095973	-0.002951	25.9563	-0.094471	-1.371985	0.002151	NaN
63	1.000000	1.095067	7.36566e+06	-41789.1	955.819	-29785.6	0.000000	0.000000	7.095158	-0.021719	NaN	0.000000	0.001591	0.001694	28.1208	0.080521	0.002014	39.9798	18.8338	-167.181	-0.014560	1.093808	-0.052569	-0.053828	-0.021719	39.9798	-0.052161	-0.106004	0.204885	NaN
63	1.000000	1.137082	7.36566e+06	-41789.1	955.819	-29785.6	0.000000	0.000000	7.137171	-0.062740	NaN	0.000000	0.001553	0.001693	28.083	0.060934	0.001988	30.6446	4.550726	13.5348	-0.033030	1.135784	-0.010554	-0.011851	-0.062740	30.6446	-0.009018	-0.005823	10.7736	NaN
63	2.000000	1.163658	7.36566e+06	-41789.1	955.818	-29785.6	0.000000	0.000000	7.164482	17.8183	NaN	0.000000	0.001535	0.001675	28.0841	14.5432	0.001684	8634.82	8.520085	-177.53	16.5497	1.163346	0.016022	0.015710	17.8183	8634.82	0.014475	0.014591	1221.15	65309.6
63	2.000000	1.174097	7.36566e+06	-41789.1	955.819	-29785.6	0.000000	0.000000	7.176176	48.3476	NaN	0.000000	0.001555	0.001665	28.1196	27.048	0.001850	14621.7	3.016295	3.393028	47.4774	1.173778	0.026462	0.026143	48.3476	14621.7	0.023982	0.029189	1656.37	78192.1
63	2.000000	1.184563	7.36566e+06	-41789.1	955.819	-29785.6	0.000000	0.000000	7.188291	88.4869	NaN	0.000000	0.001596	0.001668	28.1235	37.4556	0.001728	21678.5	4.346557	177.593	86.5292	1.184340	0.036927	0.036705	88.4869	21678.5	0.033866	0.049138	1800.77	89349.3
63	2.000000	1.195044	7.36566e+06	-41789.1	955.818	-29785.6	0.000000	0.000000	7.200780	137.337	NaN	0.000000	0.001606	0.001620	28.0827	48.2612	0.001717	28100.3	9.805431	-10.0353	134.004	1.194660	0.047409	0.047025	137.337	28100.3	0.043743	0.074059	1854.41	94339.7
63	2.000000	1.205585	7.36566e+06	-41789.1	955.819	-29785.6	0.000000	0.000000	7.213787	197.351	NaN	0.000000	0.001571	0.001620	28.0841	58.5098	0.001891	30946.4	6.348402	173.721	196.108	1.205146	0.057949	0.057510	197.351	30946.4	0.053166	0.102451	1926.31	88333.7
63	2.000000	1.216194	7.36566e+06	-41789.1	955.82	-29785.6	0.000000	0.000000	7.226530	249.25	NaN	0.000000	0.001568	0.001618	28.1178	69.0591	0.001863	37066.4	6.159690	-8.684984	254.307	1.215897	0.068559	0.068262	249.25	37066.4	0.063515	0.138715	1796.85	90926.9
63	2.000000	1.226515	7.36566e+06	-41789.1	955.818	-29785.6	0.000000	0.000000	7.240070	327.607	NaN	0.000000	0.001570	0.001643	28.1233	79.6059	0.001955	40729.4	4.573616	172.553	325.659	1.226219	0.078879	0.078584	327.607	40729.4	0.072846	0.175859	1862.89	88735.7
63	2.000000	1.237036	7.36566e+06	-41789.1	955.818	-29785.6	0.000000	0.000000	7.254190	415.155	NaN	0.000000	0.001574	0.001644	28.0849	89.2456	0.001854	48135	9.702726	-13.5381	413.011	1.236534	0.089400	0.088898	415.155	48135	0.082932	0.220634	1881.64	93626.2
63	2.000000	1.247488	7.36566e+06	-41789.1	955.818	-29785.6	0.000000	0.000000	7.267915	494.777	NaN	0.000000	0.001662	0.001674	28.0843	98.5937	0.001868	52793	3.729864	171.445	493.087	1.247229	0.099853	0.099594	494.777	52793	0.092824	0.269133	1838.41	92975.1
63	2.000000	1.256906	7.36566e+06	-41789.1	955.818	-29785.6	0.000000	0.000000	7.281278	590.786	NaN	0.000000	0.001653	0.001646	28.0855	106.102	0.001742	60896.3	4.298069	-9.847369	582.53	1.256668	0.109270	0.109033	590.786	60896.3	0.101994	0.318091	1857.28	98648