Folder: unikorn_login/remote_trans/data/nanoindenter/0828-1/data/Data_2025-08-06,11h17m57s (part 120)

File: 2025-07-22_16-23-58_1_257.txt
2025-07-22, 16:23:58, 1
Index	Phase	Displacement	Time	Pos X	Pos Y	Pos Z	Rot A	Rot B	Piezo Z	Force A	Force B	Gripper	Voltage A	Voltage B	Temperature	Amplitude force	Amplitude pos	Stiffness	Phase shift	Phase excitation	Force A raw	Displacement raw	HMax	HMax raw	Real Force	Real Stiffness	Contact Depth	Area	Hardness	Reduced Mod.
[#]	[#]	[um]	[s]	[um]	[um]	[um]	[m°]	[m°]	[um]	[uN]	[uN]	[V]	[V]	[V]	[°C]	[uN]	[um]	[N/m]	[°]	[°]	[uN]	[um]	[um]	[um]	[uN]	[N/m]	[um]	[um^2]	[MPa]	[MPa]
257	1.000000	0.003130	7.36757e+06	-51489.1	955.818	-29752.3	0.000000	0.000000	6.002826	-0.112792	NaN	0.000000	0.001609	0.001612	28.0793	0.102443	0.000860	119.164	-86.1761	-162.554	-0.039124	0.001841	-1.210305	-1.211594	-0.112792	119.164	-1.209595	-1.476440E+16	7.639446E-18	NaN
257	1.000000	0.047072	7.36757e+06	-51489.1	955.819	-29752.3	0.000000	0.000000	6.046770	-0.072311	NaN	0.000000	0.001618	0.001579	28.0793	0.040662	0.001886	21.555	141.188	-160.294	-0.018809	0.045748	-1.166362	-1.167687	-0.072311	21.555	-1.163846	-3.600980E+15	2.008086E-17	NaN
257	1.000000	0.091061	7.36757e+06	-51489.1	955.819	-29752.3	0.000000	0.000000	6.090762	-0.023111	NaN	0.000000	0.001574	0.001634	28.0789	0.129129	0.002098	61.5592	129.428	-164.818	-0.035642	0.089788	-1.122373	-1.123646	-0.023111	61.5592	-1.122091	-9.920417E+14	2.329655E-17	NaN
257	1.000000	0.135096	7.36757e+06	-51489.1	955.818	-29752.3	0.000000	0.000000	6.134803	0.130787	NaN	0.000000	0.001623	0.001611	28.0802	0.081687	0.002030	40.235	140.747	-166.69	0.086852	0.133802	-1.078338	-1.079632	0.130787	40.235	-1.080776	-2.766567E+14	-4.727424E-16	NaN
257	1.000000	0.179110	7.36757e+06	-51489.1	955.818	-29752.3	0.000000	0.000000	6.178815	0.103016	NaN	0.000000	0.001667	0.001641	28.0802	0.069771	0.001940	35.9643	-166.642	-163.112	0.104450	0.177819	-1.034324	-1.035615	0.103016	35.9643	-1.036473	-7.023206E+13	-1.466789E-15	NaN
257	1.000000	0.223169	7.36757e+06	-51489.1	955.818	-29752.3	0.000000	0.000000	6.222869	-0.030265	NaN	0.000000	0.001616	0.001632	28.0801	0.002608	0.001910	1.365458	-137.124	-164.46	-0.023798	0.221785	-0.990265	-0.991649	-0.030265	1.365458	-0.973641	-1.001698E+13	3.021354E-15	NaN
257	1.000000	0.267110	7.36757e+06	-51489.1	955.819	-29752.3	0.000000	0.000000	6.266815	0.096984	NaN	0.000000	0.001632	0.001649	28.0788	0.040197	0.002018	19.9148	117.096	-167.065	-0.012391	0.265871	-0.946324	-0.947563	0.096984	19.9148	-0.949977	-4.805228E+12	-2.018309E-14	NaN
257	1.000000	0.311154	7.36757e+06	-51489.1	955.818	-29752.3	0.000000	0.000000	6.310856	0.014340	NaN	0.000000	0.001625	0.001627	28.079	0.049193	0.002078	23.6721	-144.964	-164.697	0.047785	0.309877	-0.902280	-0.903558	0.014340	23.6721	-0.902735	-1.106663E+12	-1.295746E-14	NaN
257	1.000000	0.355167	7.36757e+06	-51489.1	955.818	-29752.3	0.000000	0.000000	6.354870	0.048025	NaN	0.000000	0.001603	0.001648	28.0793	0.082679	0.002028	40.7628	76.8798	-161.049	0.022134	0.353913	-0.858268	-0.859522	0.048025	40.7628	-0.859151	-2.848614E+11	-1.685920E-13	NaN
257	1.000000	0.399199	7.36757e+06	-51489.1	955.818	-29752.3	0.000000	0.000000	6.398903	0.058744	NaN	0.000000	0.001603	0.001619	28.0803	0.140456	0.001915	73.3514	-164.314	-164.771	0.046278	0.397901	-0.814235	-0.815534	0.058744	73.3514	-0.814836	-7.147834E+10	-8.218374E-13	NaN
257	1.000000	0.443192	7.36757e+06	-51489.1	955.819	-29752.3	0.000000	0.000000	6.442892	-0.018605	NaN	0.000000	0.001618	0.001630	28.0803	0.025734	0.002013	12.7853	22.832	-163.968	-0.015556	0.441922	-0.770243	-0.771512	-0.018605	12.7853	-0.769151	-1.713036E+10	1.086090E-12	NaN
257	1.000000	0.487229	7.36757e+06	-51489.1	955.818	-29752.3	0.000000	0.000000	6.486930	-0.004803	NaN	0.000000	0.001587	0.001573	28.0804	0.060179	0.001782	33.7764	14.1057	-164.526	0.029733	0.485948	-0.726205	-0.727487	-0.004803	33.7764	-0.726099	-4.442514E+9	1.081209E-12	NaN
257	1.000000	0.531218	7.36757e+06	-51489.1	955.819	-29752.3	0.000000	0.000000	6.530920	0.014890	NaN	0.000000	0.001596	0.001596	28.0791	0.073802	0.001951	37.8304	-176.604	-167.032	-0.000400	0.529885	-0.682216	-0.683550	0.014890	37.8304	-0.682511	-1.128626E+9	-1.319268E-11	NaN
257	1.000000	0.575250	7.36757e+06	-51489.1	955.818	-29752.3	0.000000	0.000000	6.574952	0.002565	NaN	0.000000	0.001564	0.001600	28.079	0.077606	0.001951	39.7691	7.365082	-166.83	0.013468	0.573978	-0.638184	-0.639456	0.002565	39.7691	-0.638232	-2.792760E+8	-9.183439E-12	NaN
257	1.000000	0.619310	7.36757e+06	-51489.1	955.819	-29752.3	0.000000	0.000000	6.619013	0.059717	NaN	0.000000	0.001579	0.001531	28.0789	0.012415	0.001978	6.278068	139.881	-165.637	0.064267	0.618011	-0.594125	-0.595424	0.059717	6.278068	-0.601259	-8.665559E+7	-6.891350E-10	NaN
257	1.000000	0.663311	7.36757e+06	-51489.1	955.819	-29752.3	0.000000	0.000000	6.663012	0.001095	NaN	0.000000	0.001568	0.001551	28.08	0.045256	0.001992	22.7208	168.61	-166.388	0.001465	0.661926	-0.550123	-0.551508	0.001095	22.7208	-0.550160	-1.706734E+7	-6.413544E-11	NaN
257	1.000000	0.707350	7.36757e+06	-51489.1	955.819	-29752.3	0.000000	0.000000	6.707050	-0.042623	NaN	0.000000	0.001609	0.001578	28.0802	0.018439	0.001990	9.265640	-170.576	-165.191	-0.055497	0.706052	-0.506084	-0.507383	-0.042623	9.265640	-0.502634	-3.73043e+06	1.142589E-8	NaN
257	1.000000	0.751335	7.36757e+06	-51489.1	955.818	-29752.3	0.000000	0.000000	6.751037	0.024822	NaN	0.000000	0.001615	0.001552	28.0805	0.096011	0.001960	48.9926	-108.567	-166.263	-0.092204	0.750071	-0.462099	-0.463363	0.024822	48.9926	-0.462479	-1.02294e+06	-2.426519E-8	NaN
257	1.000000	0.795355	7.36757e+06	-51489.1	955.819	-29752.3	0.000000	0.000000	6.795055	-0.047164	NaN	0.000000	0.001594	0.001602	28.0797	0.083092	0.002022	41.0886	-148.299	-168.043	-0.074860	0.794094	-0.418079	-0.419340	-0.047164	41.0886	-0.417218	-234933	2.007556E-7	NaN
257	1.000000	0.839368	7.36757e+06	-51489.1	955.819	-29752.3	0.000000	0.000000	6.839074	0.132968	NaN	0.000000	0.001564	0.001604	28.0789	0.050593	0.002002	25.2769	-172.693	-164.608	-0.035295	0.838126	-0.374067	-0.375308	0.132968	25.2769	-0.378012	-64766.3	-2.053042E-6	NaN
257	1.000000	0.883396	7.36757e+06	-51489.1	955.818	-29752.3	0.000000	0.000000	6.883101	0.072583	NaN	0.000000	0.001678	0.001616	28.0789	0.094570	0.002113	44.7602	-137.421	-164.259	0.062601	0.882097	-0.330038	-0.331337	0.072583	44.7602	-0.331254	-13608.6	-5.333605E-6	NaN
257	1.000000	0.927437	7.36757e+06	-51489.1	955.818	-29752.3	0.000000	0.000000	6.927141	0.051934	NaN	0.000000	0.001564	0.001588	28.0803	0.035763	0.001962	18.227	-63.6157	-165.581	0.065593	0.926040	-0.285997	-0.287395	0.051934	18.227	-0.288134	-3128.46	-1.660039E-5	NaN
257	1.000000	0.971405	7.36757e+06	-51489.1	955.818	-29752.3	0.000000	0.000000	6.971106	-0.005922	NaN	0.000000	0.001616	0.001595	28.0808	0.123239	0.001982	62.1648	20.5138	-168.727	0.049879	0.970119	-0.242029	-0.243315	-0.005922	62.1648	-0.241957	-616.732	9.602808E-6	NaN
257	1.000000	1.015438	7.36757e+06	-51489.1	955.819	-29752.3	0.000000	0.000000	7.015141	0.038800	NaN	0.000000	0.001593	0.001704	28.0804	0.056008	0.002032	27.5651	-177.388	-164.025	0.041005	1.014070	-0.197996	-0.199364	0.038800	27.5651	-0.199052	-127.087	-0.000305	NaN
257	1.000000	1.059507	7.36757e+06	-51489.1	955.818	-29752.3	0.000000	0.000000	7.059209	0.012539	NaN	0.000000	0.001591	0.001672	28.0791	0.107442	0.002089	51.4403	-80.571	-168.835	-0.063668	1.058149	-0.153927	-0.155286	0.012539	51.4403	-0.154110	-21.5054	-0.000583	NaN
257	1.000000	1.103463	7.36757e+06	-51489.1	955.82	-29752.3	0.000000	0.000000	7.103163	-0.039646	NaN	0.000000	0.001555	0.001657	28.079	0.009024	0.002058	4.384641	23.8826	-164.717	-0.007324	1.102173	-0.109971	-0.111261	-0.039646	4.384641	-0.103190	-2.147303	0.018463	NaN
257	1.000000	1.147511	7.36757e+06	-51489.1	955.819	-29752.3	0.000000	0.000000	7.147209	-0.070029	NaN	0.000000	0.001550	0.001647	28.0793	0.036848	0.001923	19.1639	159.129	-164.912	0.004412	1.146212	-0.065924	-0.067222	-0.070029	19.1639	-0.063183	-0.221745	0.315808	NaN
257	1.000000	1.191513	7.36757e+06	-51489.1	955.82	-29752.3	0.000000	0.000000	7.191216	0.040376	NaN	0.000000	0.001582	0.001635	28.0806	0.066315	0.001880	35.2736	-97.1993	-163.147	0.036660	1.190178	-0.021921	-0.023257	0.040376	35.2736	-0.022780	-0.014783	-2.731177	NaN
257	2.000000	1.228144	7.36757e+06	-51489.1	955.82	-29752.3	0.000000	0.000000	7.228256	9.992435	NaN	0.000000	0.001577	0.001651	28.0804	10.3311	0.001773	5825.62	5.795622	-171.61	9.592310	1.227827	0.014710	0.014393	9.992435	5825.62	0.013423	0.013240	754.705	46256
257	2.000000	1.239066	7.36757e+06	-51489.1	955.819	-29752.3	0.000000	0.000000	7.239872	26.8602	NaN	0.000000	0.001611	0.001635	28.0804	21.0547	0.001730	12170.9	2.170719	-172.678	26.2285	1.238752	0.025632	0.025318	26.8602	12170.9	0.023977	0.029180	920.5	65095.8
257	2.000000	1.250035	7.36757e+06	-51489.1	955.819	-29752.3	0.000000	0.000000	7.251980	54.5398	NaN	0.000000	0.001578	0.001630	28.0815	33.4342	0.001793	18650.3	7.025366	177.66	54.5285	1.249675	0.036601	0.036240	54.5398	18650.3	0.034408	0.050376	1082.66	75918.6
257	2.000000	1.260984	7.36757e+06	-51489.1	955.82	-29752.3	0.000000	0.000000	7.264236	86.3382	NaN	0.000000	0.001668	0.001628	28.0791	43.824	0.001793	24448.1	3.633892	179.449	84.4372	1.260718	0.047550	0.047284	86.3382	24448.1	0.044901	0.077308	1116.81	80335.4
257	2.000000	1.271937	7.36757e+06	-51489.1	955.82	-29752.3	0.000000	0.000000	7.277256	136.586	NaN	0.000000	0.001665	0.001672	28.079	54.5537	0.001738	31390.5	5.209096	174.032	133.277	1.271670	0.058503	0.058235	136.586	31390.5	0.055240	0.109294	1249.71	86750.7
257	2.000000	1.283068	7.36757e+06	-51489.1	955.819	-29752.3	0.000000	0.000000	7.290512	188.266	NaN	0.000000	0.001673	0.001624	28.0789	66.5672	0.001862	35742.7	7.345895	172.241	191.868	1.282708	0.069634	0.069274	188.266	35742.7	0.065684	0.146974	1280.95	85180.4
257	2.000000	1.293931	7.36757e+06	-51489.1	955.821	-29752.3	0.000000	0.000000	7.304637	267.59	NaN	0.000000	0.001605	0.001612	28.0804	76.9709	0.001806	42621.8	5.376916	172.803	265.919	1.293590	0.080497	0.080156	267.59	42621.8	0.075788	0.188426	1420.13	89708.5
257	2.000000	1.304964	7.36757e+06	-51489.1	955.82	-29752.3	0.000000	0.000000	7.318942	347.14	NaN	0.000000	0.001605	0.001646	28.0802	86.1882	0.001743	49443.6	3.281049	173.355	346.603	1.304601	0.091530	0.091167	347.14	49443.6	0.086264	0.236469	1468.01	92895.8
257	2.000000	1.315900	7.36757e+06	-51489.1	955.82	-29752.3	0.000000	0.000000	7.333401	432.822	NaN	0.000000	0.001551	0.001642	28.0813	100.109	0.001770	56559.8	4.792552	170.428	428.011	1.315638	0.102466	0.102203	432.822	56559.8	0.096726	0.289498	1495.08	96041.3
257	2.000000	1.323862	7.36757e+06	-51489.1	955.82	-29752.3	0.000000	0.000000	7.344752	515.239	NaN	0.000000	0.001580	0.001684	28.0794	106.33	0.001768	60151.3	3.944107	171.047	510.717	1.323585	0.110427	0.110151	515.239	60151.3	0.104003	0.329327	1564.52	95764.5

File: 2025-07-22_16-23-58_1_258.txt
2025-07-22, 16:23:58, 1
Index	Phase	Displacement	Time	Pos X	Pos Y	Pos Z	Rot A	Rot B	Piezo Z	Force A	Force B	Gripper	Voltage A	Voltage B	Temperature	Amplitude force	Amplitude pos	Stiffness	Phase shift	Phase excitation	Force A raw	Displacement raw	HMax	HMax raw	Real Force	Real Stiffness	Contact Depth	Area	Hardness	Reduced Mod.
[#]	[#]	[um]	[s]	[um]	[um]	[um]	[m°]	[m°]	[um]	[uN]	[uN]	[V]	[V]	[V]	[°C]	[uN]	[um]	[N/m]	[°]	[°]	[uN]	[um]	[um]	[um]	[uN]	[N/m]	[um]	[um^2]	[MPa]	[MPa]
258	1.000000	0.002502	7.36758e+06	-51539.1	955.819	-29752.2	0.000000	0.000000	6.002837	-0.062095	NaN	0.000000	0.001619	0.001625	28.0808	0.026615	0.000956	27.8543	76.8775	-165.676	-0.089404	0.001219	-1.109304	-1.110587	-0.062095	27.8543	-1.107632	-6.346086E+14	9.784800E-17	NaN
258	1.000000	0.044423	7.36758e+06	-51539.1	955.819	-29752.2	0.000000	0.000000	6.044761	0.029745	NaN	0.000000	0.001600	0.001677	28.0811	0.032897	0.001948	16.8872	166.989	13.6286	-0.009019	0.043084	-1.067383	-1.068722	0.029745	16.8872	-1.068704	-1.904480E+14	-1.561855E-16	NaN
258	1.000000	0.086417	7.36758e+06	-51539.1	955.819	-29752.2	0.000000	0.000000	6.086754	0.005180	NaN	0.000000	0.001576	0.001644	28.0797	0.050449	0.002057	24.5294	172.882	-167.506	0.023798	0.085137	-1.025389	-1.026669	0.005180	24.5294	-1.025547	-5.007108E+13	-1.034597E-16	NaN
258	1.000000	0.128456	7.36758e+06	-51539.1	955.819	-29752.2	0.000000	0.000000	6.128791	-0.030575	NaN	0.000000	0.001547	0.001621	28.0799	0.070225	0.001837	38.2222	-95.997	12.9848	-0.077719	0.127069	-0.983350	-0.984737	-0.030575	38.2222	-0.982750	-1.328813E+13	2.300949E-15	NaN
258	1.000000	0.170485	7.36758e+06	-51539.1	955.818	-29752.2	0.000000	0.000000	6.170821	-0.018950	NaN	0.000000	0.001562	0.001645	28.0796	0.088121	0.002021	43.5973	172.799	-168.531	-0.028242	0.169154	-0.941321	-0.942652	-0.018950	43.5973	-0.940995	-3.635468E+12	5.212582E-15	NaN
258	1.000000	0.212433	7.36758e+06	-51539.1	955.818	-29752.2	0.000000	0.000000	6.212767	-0.067746	NaN	0.000000	0.001557	0.001638	28.0808	0.050897	0.002064	24.6638	-42.7026	15.2138	-0.060307	0.211103	-0.899373	-0.900703	-0.067746	24.6638	-0.897313	-9.348778E+11	7.246492E-14	NaN
258	1.000000	0.254493	7.36758e+06	-51539.1	955.819	-29752.2	0.000000	0.000000	6.254830	-0.015688	NaN	0.000000	0.001575	0.001609	28.0807	0.048131	0.001896	25.3895	-25.2531	-169.834	-0.019634	0.253243	-0.857313	-0.858563	-0.015688	25.3895	-0.856850	-2.651399E+11	5.916713E-14	NaN
258	1.000000	0.296508	7.36758e+06	-51539.1	955.819	-29752.2	0.000000	0.000000	6.296845	0.016387	NaN	0.000000	0.001609	0.001596	28.0809	0.117135	0.002128	55.041	83.5308	14.3862	0.036548	0.295157	-0.815298	-0.816649	0.016387	55.041	-0.815522	-7.302558E+10	-2.243985E-13	NaN
258	1.000000	0.338512	7.36758e+06	-51539.1	955.818	-29752.2	0.000000	0.000000	6.338850	0.013788	NaN	0.000000	0.001599	0.001626	28.0794	0.075443	0.002019	37.3741	-156.759	-164.375	-0.041174	0.337236	-0.773294	-0.774570	0.013788	37.3741	-0.773571	-1.967193E+10	-7.008777E-13	NaN
258	1.000000	0.380566	7.36758e+06	-51539.1	955.818	-29752.2	0.000000	0.000000	6.380899	-0.074896	NaN	0.000000	0.001589	0.001633	28.0795	0.081838	0.002093	39.0974	-176.062	14.3661	-0.041840	0.379172	-0.731241	-0.732634	-0.074896	39.0974	-0.729804	-4.990400E+9	1.500805E-11	NaN
258	1.000000	0.422526	7.36758e+06	-51539.1	955.818	-29752.2	0.000000	0.000000	6.422866	0.060601	NaN	0.000000	0.001560	0.001635	28.0794	0.093543	0.001974	47.3762	43.8601	-165.944	-0.010129	0.421273	-0.689280	-0.690533	0.060601	47.3762	-0.690239	-1.439422E+9	-4.210082E-11	NaN
258	1.000000	0.464573	7.36758e+06	-51539.1	955.818	-29752.2	0.000000	0.000000	6.464909	-0.026258	NaN	0.000000	0.001612	0.001644	28.0807	0.032954	0.001962	16.7919	48.5063	12.4725	-0.046461	0.463217	-0.647233	-0.648589	-0.026258	16.7919	-0.646061	-3.576211E+8	7.342542E-11	NaN
258	1.000000	0.506608	7.36758e+06	-51539.1	955.819	-29752.2	0.000000	0.000000	6.506945	0.003659	NaN	0.000000	0.001600	0.001644	28.0809	0.075665	0.001916	39.4869	160.575	-165.377	-0.049471	0.505317	-0.605198	-0.606489	0.003659	39.4869	-0.605268	-9.839952E+7	-3.718771E-11	NaN
258	1.000000	0.548627	7.36758e+06	-51539.1	955.82	-29752.2	0.000000	0.000000	6.548963	-0.007941	NaN	0.000000	0.001585	0.001646	28.0813	0.066378	0.002049	32.3988	99.4009	12.3735	0.035521	0.547262	-0.563180	-0.564544	-0.007941	32.3988	-0.562996	-2.569288E+7	3.090626E-10	NaN
258	1.000000	0.590645	7.36758e+06	-51539.1	955.818	-29752.2	0.000000	0.000000	6.590983	0.015363	NaN	0.000000	0.001616	0.001623	28.081	0.084940	0.002099	40.475	0.626834	-166.551	-0.018004	0.589340	-0.521161	-0.522466	0.015363	40.475	-0.521446	-6.81869e+06	-2.253047E-9	NaN
258	1.000000	0.632686	7.36758e+06	-51539.1	955.819	-29752.2	0.000000	0.000000	6.633022	-0.024742	NaN	0.000000	0.001548	0.001666	28.0799	0.085279	0.002032	41.9621	-21.8181	13.7964	-0.004555	0.631267	-0.479120	-0.480539	-0.024742	41.9621	-0.478677	-1.72588e+06	1.433570E-8	NaN
258	1.000000	0.674673	7.36758e+06	-51539.1	955.819	-29752.2	0.000000	0.000000	6.675010	0.003112	NaN	0.000000	0.001670	0.001618	28.0798	0.045244	0.002031	22.2717	136.202	-165.334	0.060384	0.673369	-0.437133	-0.438437	0.003112	22.2717	-0.437238	-451198	-6.897161E-9	NaN
258	1.000000	0.716690	7.36758e+06	-51539.1	955.818	-29752.2	0.000000	0.000000	6.717027	0.000331	NaN	0.000000	0.001550	0.001607	28.0795	0.043236	0.001915	22.5788	-147.333	14.9188	-0.087702	0.715324	-0.395116	-0.396482	0.000331	22.5788	-0.395127	-113879	-2.906033E-9	NaN
258	1.000000	0.758734	7.36758e+06	-51539.1	955.819	-29752.2	0.000000	0.000000	6.759071	0.006777	NaN	0.000000	0.001613	0.001646	28.0809	0.079269	0.002101	37.7367	149.535	-169.45	0.016896	0.757337	-0.353073	-0.354469	0.006777	37.7367	-0.353207	-28413.3	-2.385208E-7	NaN
258	1.000000	0.800721	7.36758e+06	-51539.1	955.818	-29752.2	0.000000	0.000000	6.801060	0.053418	NaN	0.000000	0.001648	0.001648	28.0807	0.069434	0.002100	33.0606	-12.9478	13.5688	-0.012960	0.799368	-0.311085	-0.312438	0.053418	33.0606	-0.312297	-7161.95	-7.458556E-6	NaN
258	1.000000	0.842734	7.36758e+06	-51539.1	955.817	-29752.2	0.000000	0.000000	6.843072	0.024983	NaN	0.000000	0.001654	0.001640	28.0807	0.084164	0.001967	42.7967	165.244	-171.064	0.015671	0.841425	-0.269072	-0.270381	0.024983	42.7967	-0.269510	-1637.15	-1.526026E-5	NaN
258	1.000000	0.884742	7.36758e+06	-51539.1	955.818	-29752.2	0.000000	0.000000	6.885077	-0.040899	NaN	0.000000	0.001607	0.001645	28.0798	0.036291	0.002059	17.6297	44.1808	13.6316	-0.059578	0.883390	-0.227064	-0.228417	-0.040899	17.6297	-0.225324	-337.665	0.000121	NaN
258	1.000000	0.926790	7.36758e+06	-51539.1	955.819	-29752.2	0.000000	0.000000	6.927125	-0.042501	NaN	0.000000	0.001575	0.001639	28.0797	0.063706	0.001960	32.5064	-0.990043	-169.787	0.015780	0.925489	-0.185016	-0.186317	-0.042501	32.5064	-0.184035	-71.4267	0.000595	NaN
258	1.000000	0.968783	7.36758e+06	-51539.1	955.819	-29752.2	0.000000	0.000000	6.969117	-0.062012	NaN	0.000000	0.001551	0.001682	28.0797	0.101527	0.001916	52.9768	83.8368	10.2974	-0.092920	0.967408	-0.143023	-0.144399	-0.062012	52.9768	-0.142145	-12.9757	0.004779	NaN
258	1.000000	1.010841	7.36758e+06	-51539.1	955.818	-29752.2	0.000000	0.000000	7.011177	-0.029756	NaN	0.000000	0.001567	0.001678	28.0806	0.041795	0.002003	20.8671	123.196	-167.253	0.023183	1.009524	-0.100965	-0.102282	-0.029756	20.8671	-0.099895	-1.817422	0.016373	NaN
258	1.000000	1.052811	7.36758e+06	-51539.1	955.819	-29752.2	0.000000	0.000000	7.053148	-0.013607	NaN	0.000000	0.001597	0.001666	28.0805	0.088023	0.001938	45.4082	-117.279	15.5703	0.010445	1.051474	-0.058995	-0.060332	-0.013607	45.4082	-0.058770	-0.165990	0.081975	NaN
258	1.000000	1.094845	7.36758e+06	-51539.1	955.819	-29752.2	0.000000	0.000000	7.095182	0.005012	NaN	0.000000	0.001568	0.001712	28.0808	0.019120	0.001995	9.586337	-157.235	-166.117	-0.074002	1.093523	-0.016962	-0.018283	0.005012	9.586337	-0.017354	-0.010738	-0.466751	NaN
258	2.000000	1.126920	7.36758e+06	-51539.1	955.818	-29752.2	0.000000	0.000000	7.127874	15.0018	NaN	0.000000	0.001598	0.001636	28.0812	13.0193	0.001687	7716.03	7.033810	2.594270	13.4145	1.126609	0.015114	0.014803	15.0018	7716.03	0.013656	0.013535	1108.41	60596.2
258	2.000000	1.137356	7.36758e+06	-51539.1	955.819	-29752.2	0.000000	0.000000	7.139297	39.0144	NaN	0.000000	0.001680	0.001622	28.0796	23.6221	0.001800	13123.4	8.926966	178.132	38.5454	1.137054	0.025550	0.025248	39.0144	13123.4	0.023320	0.028030	1391.86	71615.3
258	2.000000	1.147831	7.36758e+06	-51539.1	955.82	-29752.2	0.000000	0.000000	7.150946	67.5512	NaN	0.000000	0.001682	0.001639	28.0795	32.9499	0.001693	19466.4	1.519031	0.756848	65.1476	1.147521	0.036024	0.035714	67.5512	19466.4	0.033422	0.048135	1403.37	81064
258	2.000000	1.158297	7.36758e+06	-51539.1	955.819	-29752.2	0.000000	0.000000	7.162823	101.861	NaN	0.000000	0.001683	0.001613	28.0798	42.6134	0.001750	24347.9	2.943915	177.682	99.5598	1.158030	0.046491	0.046224	101.861	24347.9	0.043353	0.072982	1395.71	82343.3
258	2.000000	1.168853	7.36758e+06	-51539.1	955.819	-29752.2	0.000000	0.000000	7.175421	151.517	NaN	0.000000	0.001666	0.001610	28.0815	52.913	0.001798	29435.7	2.312997	-2.720188	152.495	1.168541	0.057047	0.056735	151.517	29435.7	0.053187	0.102517	1477.97	83994.3
258	2.000000	1.179291	7.36758e+06	-51539.1	955.818	-29752.2	0.000000	0.000000	7.188169	207.677	NaN	0.000000	0.001631	0.001659	28.0811	63.1745	0.001849	34173	5.037073	173.734	205.883	1.178891	0.067485	0.067085	207.677	34173	0.062927	0.136512	1521.31	84502.7
258	2.000000	1.189763	7.36758e+06	-51539.1	955.819	-29752.2	0.000000	0.000000	7.201342	273.37	NaN	0.000000	0.001601	0.001647	28.0808	73.4447	0.001823	40297.4	4.994522	-8.100984	271.509	1.189518	0.077957	0.077712	273.37	40297.4	0.072869	0.175953	1553.65	87771.2
258	2.000000	1.200230	7.36758e+06	-51539.1	955.818	-29752.2	0.000000	0.000000	7.215013	351.267	NaN	0.000000	0.001661	0.001644	28.0796	84.2171	0.001700	49548.5	4.660549	170.65	347.609	1.199813	0.088424	0.088007	351.267	49548.5	0.083107	0.221454	1586.19	96197.1
258	2.000000	1.210641	7.36758e+06	-51539.1	955.82	-29752.2	0.000000	0.000000	7.228917	436.209	NaN	0.000000	0.001587	0.001636	28.0797	94.3932	0.001670	56508.3	4.652460	-9.758787	427.236	1.210308	0.098835	0.098502	436.209	56508.3	0.093046	0.270272	1613.96	99308.3
258	2.000000	1.221253	7.36758e+06	-51539.1	955.821	-29752.2	0.000000	0.000000	7.242821	516.247	NaN	0.000000	0.001588	0.001651	28.0796	104.314	0.001782	58546.7	4.932421	169.913	515.693	1.220872	0.109447	0.109066	516.247	58546.7	0.102833	0.322763	1599.46	94152.8
258	2.000000	1.222189	7.36758e+06	-51539.1	955.82	-29752.2	0.000000	0.000000	7.244190	526.789	NaN	0.000000	0.001596	0.001665	28.0798	104.597	0.001738	60180.5	4.305177	170.286	523.292	1.221924	0.110382	0.110118	526.789	60180.5	0.103817	0.328281	1604.69	95963.6