Folder: unikorn_login/remote_trans/data/nanoindenter/0828-1/data/Data_2025-08-06,11h17m57s (part 174)

File: 2025-07-22_16-23-58_1_365.txt
2025-07-22, 16:23:58, 1
Index	Phase	Displacement	Time	Pos X	Pos Y	Pos Z	Rot A	Rot B	Piezo Z	Force A	Force B	Gripper	Voltage A	Voltage B	Temperature	Amplitude force	Amplitude pos	Stiffness	Phase shift	Phase excitation	Force A raw	Displacement raw	HMax	HMax raw	Real Force	Real Stiffness	Contact Depth	Area	Hardness	Reduced Mod.
[#]	[#]	[um]	[s]	[um]	[um]	[um]	[m°]	[m°]	[um]	[uN]	[uN]	[V]	[V]	[V]	[°C]	[uN]	[um]	[N/m]	[°]	[°]	[uN]	[um]	[um]	[um]	[uN]	[N/m]	[um]	[um^2]	[MPa]	[MPa]
365	1.000000	0.002082	7.36863e+06	-56889.1	955.817	-29738.2	0.000000	0.000000	6.002774	-0.050384	NaN	0.000000	0.001719	0.001676	28.0804	0.039913	0.001044	38.2457	-153.223	-163.554	-0.083528	0.000848	-1.009297	-1.010532	-0.050384	38.2457	-1.008309	-2.935104E+13	1.716603E-15	NaN
365	1.000000	0.042083	7.36863e+06	-56889.1	955.819	-29738.2	0.000000	0.000000	6.042778	0.035124	NaN	0.000000	0.001707	0.001647	28.0802	0.046670	0.001974	23.6445	-22.0726	-168.226	-0.009509	0.040763	-0.969297	-0.970616	0.035124	23.6445	-0.970411	-9.061499E+12	-3.876171E-15	NaN
365	1.000000	0.082054	7.36863e+06	-56889.1	955.818	-29738.2	0.000000	0.000000	6.082745	-0.061113	NaN	0.000000	0.001714	0.001695	28.0802	0.024107	0.001967	12.2575	133.717	-167.94	-0.149056	0.080800	-0.929326	-0.930580	-0.061113	12.2575	-0.925586	-2.252282E+12	2.713397E-14	NaN
365	1.000000	0.122113	7.36863e+06	-56889.1	955.818	-29738.2	0.000000	0.000000	6.122808	0.017833	NaN	0.000000	0.001638	0.001717	28.0806	0.033172	0.002064	16.0699	-45.8798	-167.159	-0.002128	0.120775	-0.889266	-0.890604	0.017833	16.0699	-0.890099	-7.468749E+11	-2.387684E-14	NaN
365	1.000000	0.162139	7.36863e+06	-56889.1	955.817	-29738.2	0.000000	0.000000	6.162832	-0.006391	NaN	0.000000	0.001611	0.001685	28.0818	0.065684	0.002010	32.6852	171.197	-164.133	-0.065247	0.160793	-0.849241	-0.850586	-0.006391	32.6852	-0.849094	-2.081942E+11	3.069779E-14	NaN
365	1.000000	0.202127	7.36863e+06	-56889.1	955.818	-29738.2	0.000000	0.000000	6.202821	0.012741	NaN	0.000000	0.001685	0.001675	28.0819	0.149872	0.002081	72.0019	53.0441	-165.745	0.000280	0.200845	-0.809253	-0.810534	0.012741	72.0019	-0.809385	-6.028792E+10	-2.113361E-13	NaN
365	1.000000	0.242123	7.36863e+06	-56889.1	955.819	-29738.2	0.000000	0.000000	6.242818	0.020923	NaN	0.000000	0.001717	0.001680	28.0823	0.073449	0.002069	35.501	-26.9835	-161.128	-0.010296	0.240874	-0.769256	-0.770505	0.020923	35.501	-0.769698	-1.742626E+10	-1.200680E-12	NaN
365	1.000000	0.282171	7.36863e+06	-56889.1	955.818	-29738.2	0.000000	0.000000	6.282862	-0.065067	NaN	0.000000	0.001661	0.001730	28.081	0.046095	0.002034	22.6637	143.086	-164.407	-0.104595	0.280837	-0.729208	-0.730542	-0.065067	22.6637	-0.727055	-4.577888E+9	1.421332E-11	NaN
365	1.000000	0.322181	7.36863e+06	-56889.1	955.818	-29738.2	0.000000	0.000000	6.322874	-0.027447	NaN	0.000000	0.001710	0.001661	28.0808	0.090524	0.001971	45.9163	-102.315	-164.657	0.065077	0.320841	-0.689198	-0.690538	-0.027447	45.9163	-0.688750	-1.373523E+9	1.998274E-11	NaN
365	1.000000	0.362175	7.36863e+06	-56889.1	955.818	-29738.2	0.000000	0.000000	6.362868	-0.027234	NaN	0.000000	0.001731	0.001708	28.0804	0.055022	0.002125	25.8909	34.8663	-161.178	-0.062027	0.360922	-0.649204	-0.650457	-0.027234	25.8909	-0.648415	-3.852209E+8	7.069595E-11	NaN
365	1.000000	0.402194	7.36863e+06	-56889.1	955.819	-29738.2	0.000000	0.000000	6.402888	-0.001825	NaN	0.000000	0.001654	0.001709	28.0803	0.084312	0.001905	44.249	153.291	-164.917	0.033692	0.400908	-0.609185	-0.610471	-0.001825	44.249	-0.609154	-1.112944E+8	1.640007E-11	NaN
365	1.000000	0.442239	7.36863e+06	-56889.1	955.819	-29738.2	0.000000	0.000000	6.442934	0.027639	NaN	0.000000	0.001660	0.001670	28.0816	0.077574	0.002137	36.296	-176.149	-164.277	0.012376	0.440909	-0.569140	-0.570470	0.027639	36.296	-0.569712	-3.181606E+7	-8.687238E-10	NaN
365	1.000000	0.482245	7.36863e+06	-56889.1	955.818	-29738.2	0.000000	0.000000	6.482936	-0.082851	NaN	0.000000	0.001682	0.001632	28.0817	0.015150	0.002067	7.330866	-72.3961	-164.582	-0.087976	0.480934	-0.529134	-0.530445	-0.082851	7.330866	-0.520658	-6.64882e+06	1.246094E-8	NaN
365	1.000000	0.522247	7.36863e+06	-56889.1	955.818	-29738.2	0.000000	0.000000	6.522942	0.039143	NaN	0.000000	0.001642	0.001688	28.0815	0.012597	0.001897	6.641252	61.5038	-163.821	0.000336	0.520956	-0.489133	-0.490423	0.039143	6.641252	-0.493553	-2.78632e+06	-1.404815E-8	NaN
365	1.000000	0.562267	7.36863e+06	-56889.1	955.819	-29738.2	0.000000	0.000000	6.562959	-0.032238	NaN	0.000000	0.001631	0.001673	28.0804	0.077067	0.002000	38.5239	73.3436	-166.012	-0.017845	0.560938	-0.449113	-0.450442	-0.032238	38.5239	-0.448485	-650140	4.958634E-8	NaN
365	1.000000	0.602285	7.36863e+06	-56889.1	955.818	-29738.2	0.000000	0.000000	6.602977	-0.045715	NaN	0.000000	0.001645	0.001673	28.0805	0.123207	0.001928	63.8896	179.592	-164.271	-0.000264	0.601007	-0.409094	-0.410372	-0.045715	63.8896	-0.408558	-176964	2.583263E-7	NaN
365	1.000000	0.642318	7.36863e+06	-56889.1	955.82	-29738.2	0.000000	0.000000	6.643010	-0.039315	NaN	0.000000	0.001661	0.001672	28.0806	0.039446	0.001999	19.7329	-39.4046	-165.47	-0.030545	0.641014	-0.369062	-0.370366	-0.039315	19.7329	-0.367568	-45822.7	8.579817E-7	NaN
365	1.000000	0.682322	7.36864e+06	-56889.1	955.819	-29738.2	0.000000	0.000000	6.683017	0.010359	NaN	0.000000	0.001605	0.001723	28.0818	0.077409	0.001977	39.1452	146.059	-164.002	0.048926	0.680965	-0.329057	-0.330415	0.010359	39.1452	-0.329255	-12721.7	-8.143180E-7	NaN
365	1.000000	0.722326	7.36864e+06	-56889.1	955.818	-29738.2	0.000000	0.000000	6.723022	0.050775	NaN	0.000000	0.001658	0.001694	28.0819	0.064903	0.001949	33.305	-177.388	-166.517	-0.017035	0.720998	-0.289053	-0.290382	0.050775	33.305	-0.290197	-3359.28	-1.511474E-5	NaN
365	1.000000	0.762364	7.36864e+06	-56889.1	955.818	-29738.2	0.000000	0.000000	6.763058	-0.010502	NaN	0.000000	0.001685	0.001684	28.0822	0.167513	0.002056	81.4614	82.3478	-164.819	-0.052779	0.761056	-0.249015	-0.250323	-0.010502	81.4614	-0.248918	-791.099	1.327461E-5	NaN
365	1.000000	0.802381	7.36864e+06	-56889.1	955.818	-29738.2	0.000000	0.000000	6.803076	0.020221	NaN	0.000000	0.001647	0.001732	28.082	0.049139	0.002133	23.0351	-29.6309	-168.188	-0.018735	0.801072	-0.208998	-0.210307	0.020221	23.0351	-0.209657	-189.346	-0.000107	NaN
365	1.000000	0.842380	7.36864e+06	-56889.1	955.817	-29738.2	0.000000	0.000000	6.843074	0.003062	NaN	0.000000	0.001650	0.001736	28.0807	0.149103	0.001998	74.6406	85.9085	-165.073	0.000664	0.841060	-0.169000	-0.170319	0.003062	74.6406	-0.169031	-39.5149	-7.748208E-5	NaN
365	1.000000	0.882401	7.36864e+06	-56889.1	955.818	-29738.2	0.000000	0.000000	6.883095	0.009092	NaN	0.000000	0.001625	0.001693	28.0807	0.054885	0.002127	25.7989	-151.73	-164.919	0.042034	0.881132	-0.128979	-0.130247	0.009092	25.7989	-0.129243	-7.366927	-0.001234	NaN
365	1.000000	0.922389	7.36864e+06	-56889.1	955.819	-29738.2	0.000000	0.000000	6.923080	-0.077227	NaN	0.000000	0.001645	0.001708	28.0808	0.022182	0.002142	10.3556	130.783	-164.485	-0.036050	0.921085	-0.088990	-0.090294	-0.077227	10.3556	-0.083397	-0.751074	0.102822	NaN
365	1.000000	0.962446	7.36864e+06	-56889.1	955.82	-29738.2	0.000000	0.000000	6.963139	-0.027929	NaN	0.000000	0.001647	0.001694	28.0819	0.087606	0.002048	42.7692	0.333876	-167.785	0.024233	0.961146	-0.048933	-0.050233	-0.027929	42.7692	-0.048443	-0.081852	0.341217	NaN
365	1.000000	1.002443	7.36864e+06	-56889.1	955.82	-29738.2	0.000000	0.000000	7.003135	-0.044269	NaN	0.000000	0.001670	0.001672	28.082	0.021500	0.002057	10.4538	-12.0425	-163.274	-0.006937	1.001165	-0.008936	-0.010214	-0.044269	10.4538	-0.005760	-0.003889	11.3825	NaN
365	2.000000	1.025976	7.36864e+06	-56889.1	955.818	-29738.2	0.000000	0.000000	7.027277	14.7412	NaN	0.000000	0.001723	0.001697	28.0818	15.5784	0.001821	8556.11	13.3846	-179.354	15.3213	1.025656	0.014597	0.014276	14.7412	8556.11	0.013305	0.013091	1126.07	68322.7
365	2.000000	1.035953	7.36864e+06	-56889.1	955.819	-29738.2	0.000000	0.000000	7.038152	36.5744	NaN	0.000000	0.001740	0.001662	28.0816	25.0997	0.001839	13646.1	7.236281	-178.172	37.3408	1.035591	0.024574	0.024212	36.5744	13646.1	0.022564	0.026732	1368.2	76255
365	2.000000	1.045874	7.36864e+06	-56889.1	955.818	-29738.2	0.000000	0.000000	7.049063	60.6519	NaN	0.000000	0.001711	0.001712	28.0803	34.9417	0.001909	18304.2	6.135904	179.776	59.2267	1.045600	0.034494	0.034221	60.6519	18304.2	0.032009	0.045011	1347.5	78825.5
365	2.000000	1.055863	7.36864e+06	-56889.1	955.82	-29738.2	0.000000	0.000000	7.060410	93.654	NaN	0.000000	0.001672	0.001647	28.0802	44.4405	0.001767	25144.3	2.260805	-179.252	95.0579	1.055598	0.044483	0.044218	93.654	25144.3	0.041690	0.068469	1367.84	87794.4
365	2.000000	1.065910	7.36864e+06	-56889.1	955.818	-29738.2	0.000000	0.000000	7.072114	133.944	NaN	0.000000	0.001699	0.001673	28.0804	53.5629	0.001684	31814.2	2.503275	177.141	134.458	1.065605	0.054530	0.054225	133.944	31814.2	0.051373	0.096703	1385.11	93470.7
365	2.000000	1.075812	7.36864e+06	-56889.1	955.82	-29738.2	0.000000	0.000000	7.083961	181.207	NaN	0.000000	0.001685	0.001658	28.0816	63.984	0.001888	33881.2	5.353461	174.777	179.412	1.075570	0.064433	0.064191	181.207	33881.2	0.060421	0.127324	1423.2	86751.5
365	2.000000	1.085861	7.36864e+06	-56889.1	955.82	-29738.2	0.000000	0.000000	7.096373	238.62	NaN	0.000000	0.001660	0.001711	28.0817	73.4789	0.001872	39257.9	8.049024	171.763	239.656	1.085431	0.074482	0.074052	238.62	39257.9	0.069923	0.163775	1457	88629.1
365	2.000000	1.095863	7.36864e+06	-56889.1	955.821	-29738.2	0.000000	0.000000	7.108520	290.78	NaN	0.000000	0.001709	0.001612	28.0816	84.2743	0.001819	46317.9	6.067295	171.765	290.52	1.095424	0.084484	0.084045	290.78	46317.9	0.079775	0.206109	1410.81	93212.3
365	2.000000	1.105688	7.36864e+06	-56889.1	955.819	-29738.2	0.000000	0.000000	7.121213	360.461	NaN	0.000000	0.001657	0.001684	28.0806	91.143	0.001896	48082.6	3.100943	174.662	355.266	1.105436	0.094309	0.094057	360.461	48082.6	0.088687	0.248301	1451.71	88160.1
365	2.000000	1.115832	7.36864e+06	-56889.1	955.821	-29738.2	0.000000	0.000000	7.134219	430.048	NaN	0.000000	0.001664	0.001660	28.081	100.361	0.001858	54022.4	5.565703	171.832	429.992	1.115459	0.104452	0.104079	430.048	54022.4	0.098482	0.298887	1438.83	90280.4
365	2.000000	1.118728	7.36864e+06	-56889.1	955.821	-29738.2	0.000000	0.000000	7.138020	452.039	NaN	0.000000	0.001687	0.001646	28.0804	103.083	0.001796	57394.3	4.204645	172.666	447.376	1.118447	0.107349	0.107068	452.039	57394.3	0.101442	0.315034	1434.89	93425

File: 2025-07-22_16-23-58_1_366.txt
2025-07-22, 16:23:58, 1
Index	Phase	Displacement	Time	Pos X	Pos Y	Pos Z	Rot A	Rot B	Piezo Z	Force A	Force B	Gripper	Voltage A	Voltage B	Temperature	Amplitude force	Amplitude pos	Stiffness	Phase shift	Phase excitation	Force A raw	Displacement raw	HMax	HMax raw	Real Force	Real Stiffness	Contact Depth	Area	Hardness	Reduced Mod.
[#]	[#]	[um]	[s]	[um]	[um]	[um]	[m°]	[m°]	[um]	[uN]	[uN]	[V]	[V]	[V]	[°C]	[uN]	[um]	[N/m]	[°]	[°]	[uN]	[um]	[um]	[um]	[uN]	[N/m]	[um]	[um^2]	[MPa]	[MPa]
366	1.000000	0.002105	7.36864e+06	-56939.1	955.819	-29738	0.000000	0.000000	6.002809	-0.018703	NaN	0.000000	0.001680	0.001691	28.0824	0.081977	0.000890	92.0601	-84.5616	-160.078	0.014362	0.000783	-1.082331	-1.083653	-0.018703	92.0601	-1.082178	-2.889190E+14	6.473583E-17	NaN
366	1.000000	0.044053	7.36864e+06	-56939.1	955.818	-29738	0.000000	0.000000	6.044756	-0.047046	NaN	0.000000	0.001695	0.001728	28.0827	0.109500	0.001930	56.7459	52.8329	12.0712	0.001388	0.042735	-1.040383	-1.041700	-0.047046	56.7459	-1.039761	-7.775998E+13	6.050201E-16	NaN
366	1.000000	0.086075	7.36864e+06	-56939.1	955.818	-29738	0.000000	0.000000	6.086777	-0.062197	NaN	0.000000	0.001683	0.001750	28.0812	0.092061	0.001966	46.822	-7.146751	-166.459	-0.061524	0.084705	-0.998361	-0.999731	-0.062197	46.822	-0.997365	-2.090677E+13	2.974981E-15	NaN
366	1.000000	0.128070	7.36864e+06	-56939.1	955.819	-29738	0.000000	0.000000	6.128775	0.001513	NaN	0.000000	0.001761	0.001723	28.0813	0.095997	0.002007	47.8248	-22.4697	13.6264	-0.035444	0.126712	-0.956366	-0.957723	0.001513	47.8248	-0.956390	-5.863968E+12	-2.579967E-16	NaN
366	1.000000	0.170084	7.36864e+06	-56939.1	955.818	-29738	0.000000	0.000000	6.170787	-0.054220	NaN	0.000000	0.001749	0.001728	28.0813	0.050360	0.002106	23.9127	133.418	-164.653	-0.033055	0.168765	-0.914351	-0.915671	-0.054220	23.9127	-0.912651	-1.506489E+12	3.599123E-14	NaN
366	1.000000	0.212113	7.36864e+06	-56939.1	955.818	-29738	0.000000	0.000000	6.212817	-0.015260	NaN	0.000000	0.001750	0.001748	28.0823	0.078785	0.002006	39.2796	-55.2575	13.3961	-0.041405	0.210720	-0.872323	-0.873716	-0.015260	39.2796	-0.872031	-4.255246E+11	3.586264E-14	NaN
366	1.000000	0.254118	7.36864e+06	-56939.1	955.818	-29738.1	0.000000	0.000000	6.254821	-0.050447	NaN	0.000000	0.001734	0.001743	28.0821	0.078565	0.001989	39.4984	-109.392	-165.505	-0.066209	0.252877	-0.830318	-0.831559	-0.050447	39.4984	-0.829360	-1.124886E+11	4.484611E-13	NaN
366	1.000000	0.296119	7.36864e+06	-56939.1	955.819	-29738.1	0.000000	0.000000	6.296825	0.036337	NaN	0.000000	0.001668	0.001759	28.0818	0.040800	0.001910	21.3607	176.789	12.3254	0.007135	0.294761	-0.788317	-0.789674	0.036337	21.3607	-0.789593	-3.247529E+10	-1.118920E-12	NaN
366	1.000000	0.338147	7.36864e+06	-56939.1	955.818	-29738.1	0.000000	0.000000	6.338856	0.098322	NaN	0.000000	0.001636	0.001707	28.0808	0.068642	0.001924	35.6744	129.03	-162.354	0.083000	0.336858	-0.746288	-0.747578	0.098322	35.6744	-0.748356	-8.929646E+9	-1.101073E-11	NaN
366	1.000000	0.380183	7.36864e+06	-56939.1	955.818	-29738.1	0.000000	0.000000	6.380888	0.009054	NaN	0.000000	0.001656	0.001741	28.081	0.086570	0.001960	44.1785	129.354	15.6557	-0.047842	0.378841	-0.704253	-0.705595	0.009054	44.1785	-0.704407	-2.247500E+9	-4.028405E-12	NaN
366	1.000000	0.422219	7.36864e+06	-56939.1	955.819	-29738.1	0.000000	0.000000	6.422923	-0.032136	NaN	0.000000	0.001691	0.001718	28.0809	0.011553	0.002047	5.643013	-63.8869	-163.537	-0.053115	0.420860	-0.662217	-0.663576	-0.032136	5.643013	-0.657945	-5.203828E+8	6.175489E-11	NaN
366	1.000000	0.464234	7.36864e+06	-56939.1	955.818	-29738.1	0.000000	0.000000	6.464937	-0.058939	NaN	0.000000	0.001661	0.001730	28.0812	0.033406	0.002030	16.4533	-92.121	14.8313	-0.074225	0.462853	-0.620201	-0.621582	-0.058939	16.4533	-0.617515	-1.450330E+8	4.063809E-10	NaN
366	1.000000	0.506250	7.36864e+06	-56939.1	955.818	-29738.1	0.000000	0.000000	6.506952	-0.069185	NaN	0.000000	0.001658	0.001754	28.0822	0.081142	0.001902	42.6635	113.401	-165.367	0.032845	0.504944	-0.578186	-0.579492	-0.069185	42.6635	-0.576969	-4.007659E+7	1.726309E-9	NaN
366	1.000000	0.548245	7.36864e+06	-56939.1	955.818	-29738.1	0.000000	0.000000	6.548952	0.028948	NaN	0.000000	0.001649	0.001769	28.0821	0.075771	0.001927	39.3162	3.200171	14.5942	-0.004200	0.546919	-0.536190	-0.537517	0.028948	39.3162	-0.536742	-1.112161E+7	-2.602875E-9	NaN
366	1.000000	0.590265	7.36864e+06	-56939.1	955.819	-29738.1	0.000000	0.000000	6.590970	-0.010866	NaN	0.000000	0.001681	0.001735	28.0822	0.024398	0.002037	11.9763	-79.1406	-163.008	0.029312	0.588990	-0.494170	-0.495445	-0.010866	11.9763	-0.493490	-2.78064e+06	3.907774E-9	NaN
366	1.000000	0.632288	7.36864e+06	-56939.1	955.818	-29738.1	0.000000	0.000000	6.632993	0.013118	NaN	0.000000	0.001686	0.001824	28.081	0.071885	0.002034	35.3471	103.041	16.8368	0.008007	0.630940	-0.452148	-0.453496	0.013118	35.3471	-0.452426	-738756	-1.775677E-8	NaN
366	1.000000	0.674318	7.36864e+06	-56939.1	955.819	-29738.1	0.000000	0.000000	6.675020	-0.079734	NaN	0.000000	0.001762	0.001742	28.0809	0.130558	0.002114	61.7538	-3.448189	-165.484	-0.053643	0.672997	-0.410118	-0.411439	-0.079734	61.7538	-0.409149	-180427	4.419212E-7	NaN
366	1.000000	0.716345	7.36864e+06	-56939.1	955.819	-29738.1	0.000000	0.000000	6.717050	0.007828	NaN	0.000000	0.001784	0.001801	28.0809	0.072427	0.001982	36.5366	-37.3638	14.9348	-0.058974	0.714971	-0.368091	-0.369464	0.007828	36.5366	-0.368252	-46875	-1.669899E-7	NaN
366	1.000000	0.758366	7.36864e+06	-56939.1	955.819	-29738.1	0.000000	0.000000	6.759070	-0.014740	NaN	0.000000	0.001770	0.001737	28.0822	0.070587	0.002029	34.7941	-84.5686	-162.44	-0.035013	0.757047	-0.326070	-0.327388	-0.014740	34.7941	-0.325752	-11302.6	1.304096E-6	NaN
366	1.000000	0.800352	7.36864e+06	-56939.1	955.819	-29738.1	0.000000	0.000000	6.801056	-0.026907	NaN	0.000000	0.001755	0.001772	28.0822	0.005773	0.001956	2.950615	-112.809	15.3717	-0.055896	0.798998	-0.284083	-0.285438	-0.026907	2.950615	-0.277244	-2144.6	1.254658E-5	NaN
366	1.000000	0.842368	7.36865e+06	-56939.1	955.817	-29738.1	0.000000	0.000000	6.843070	-0.072171	NaN	0.000000	0.001731	0.001826	28.0823	0.049770	0.001927	25.8234	-109.315	-165.729	-0.005105	0.841132	-0.242068	-0.243303	-0.072171	25.8234	-0.239972	-574.262	0.000126	NaN
366	1.000000	0.884410	7.36865e+06	-56939.1	955.817	-29738.1	0.000000	0.000000	6.885113	-0.056031	NaN	0.000000	0.001720	0.001814	28.0811	0.152035	0.002006	75.7779	-99.3352	16.2587	-0.013515	0.883040	-0.200026	-0.201395	-0.056031	75.7779	-0.199471	-129.123	0.000434	NaN
366	1.000000	0.926421	7.36865e+06	-56939.1	955.818	-29738.1	0.000000	0.000000	6.927127	0.014773	NaN	0.000000	0.001751	0.001801	28.0809	0.069888	0.002081	33.5768	24.6025	-162.027	0.061887	0.925130	-0.158015	-0.159306	0.014773	33.5768	-0.158345	-25.6159	-0.000577	NaN
366	1.000000	0.968409	7.36865e+06	-56939.1	955.818	-29738.1	0.000000	0.000000	6.969114	-0.008938	NaN	0.000000	0.001698	0.001781	28.0807	0.030565	0.002033	15.0366	-134.426	15.6753	-0.035370	0.967097	-0.116026	-0.117339	-0.008938	15.0366	-0.115580	-3.926943	0.002276	NaN
366	1.000000	1.010427	7.36865e+06	-56939.1	955.818	-29738.1	0.000000	0.000000	7.011131	-0.020863	NaN	0.000000	0.001704	0.001809	28.0811	0.103020	0.001954	52.723	-104.422	-167.472	-0.070565	1.009146	-0.074008	-0.075290	-0.020863	52.723	-0.073712	-0.427603	0.048791	NaN
366	1.000000	1.052441	7.36865e+06	-56939.1	955.819	-29738.1	0.000000	0.000000	7.053143	-0.053640	NaN	0.000000	0.001701	0.001800	28.0822	0.038959	0.001960	19.8719	158.158	15.1815	-0.072162	1.051090	-0.031995	-0.033346	-0.053640	19.8719	-0.029970	-0.022969	2.335311	NaN
366	1.000000	1.094453	7.36865e+06	-56939.1	955.82	-29738.1	0.000000	0.000000	7.095453	7.168929	NaN	0.000000	0.001766	0.001801	28.0823	7.813106	0.001681	4647.58	12.0567	-170.429	5.833141	1.093119	0.010018	0.008683	7.168929	4647.58	0.008861	0.007943	902.582	47644.9
366	2.000000	1.106427	7.36865e+06	-56939.1	955.82	-29738.1	0.000000	0.000000	7.108085	23.1663	NaN	0.000000	0.001641	0.001794	28.0826	21.2715	0.001934	10996.7	8.191503	3.940463	23.3761	1.106072	0.021991	0.021636	23.1663	10996.7	0.020411	0.023193	998.856	65972
366	2.000000	1.116876	7.36865e+06	-56939.1	955.82	-29738.1	0.000000	0.000000	7.119493	46.4831	NaN	0.000000	0.001706	0.001782	28.0811	30.1308	0.001680	17934.8	5.712596	-179.889	45.843	1.116561	0.032440	0.032126	46.4831	17934.8	0.030496	0.041779	1112.6	80166.2
366	2.000000	1.127271	7.36865e+06	-56939.1	955.819	-29738.1	0.000000	0.000000	7.131338	81.7136	NaN	0.000000	0.001656	0.001784	28.0812	41.8468	0.001709	24486.6	3.416981	-0.451613	77.5136	1.126971	0.042836	0.042535	81.7136	24486.6	0.040333	0.064891	1259.24	87822.9
366	2.000000	1.137870	7.36865e+06	-56939.1	955.819	-29738.1	0.000000	0.000000	7.143892	129.227	NaN	0.000000	0.001681	0.001828	28.0809	53.6072	0.001757	30509.6	7.471351	173.478	130.168	1.137501	0.053435	0.053065	129.227	30509.6	0.050258	0.093212	1386.37	91300.7
366	2.000000	1.148333	7.36865e+06	-56939.1	955.82	-29738.1	0.000000	0.000000	7.156481	180.904	NaN	0.000000	0.001682	0.001748	28.0824	64.3638	0.001806	35637	8.013494	-8.032322	180.587	1.147974	0.063898	0.063538	180.904	35637	0.060090	0.126133	1434.23	91677.1
366	2.000000	1.158760	7.36865e+06	-56939.1	955.821	-29738.1	0.000000	0.000000	7.169695	248.648	NaN	0.000000	0.001770	0.001765	28.0825	74.6102	0.001824	40899.2	6.842322	172.357	244.563	1.158416	0.074324	0.073981	248.648	40899.2	0.069765	0.163132	1524.22	92516.4
366	2.000000	1.169318	7.36865e+06	-56939.1	955.82	-29738.1	0.000000	0.000000	7.183233	321.079	NaN	0.000000	0.001770	0.001850	28.0828	86.2081	0.001791	48132.6	5.452170	-7.557255	320.586	1.168991	0.084883	0.084556	321.079	48132.6	0.079880	0.206583	1554.24	96753.3
366	2.000000	1.179983	7.36865e+06	-56939.1	955.821	-29738.1	0.000000	0.000000	7.196858	393.01	NaN	0.000000	0.001684	0.001797	28.0815	96.7234	0.001775	54490.4	9.093508	168.149	405.873	1.179479	0.095548	0.095044	393.01	54490.4	0.090138	0.255522	1538.07	98487
366	2.000000	1.190269	7.36865e+06	-56939.1	955.821	-29738.1	0.000000	0.000000	7.211028	487.434	NaN	0.000000	0.001704	0.001787	28.0813	106.128	0.001898	55920.9	6.166285	-9.151930	483.635	1.189830	0.105833	0.105395	487.434	55920.9	0.099296	0.303287	1607.17	92772.8
366	2.000000	1.194692	7.36865e+06	-56939.1	955.821	-29738.1	0.000000	0.000000	7.217322	532.895	NaN	0.000000	0.001736	0.001792	28.0816	108.24	0.001779	60850.6	5.620268	170.749	527.165	1.194257	0.110256	0.109822	532.895	60850.6	0.103688	0.327554	1626.89	97139.6