Folder: unikorn_login/remote_trans/data/nanoindenter/0828-1/data/Data_2025-08-06,11h17m57s (part 154)

File: 2025-07-22_16-23-58_1_325.txt
2025-07-22, 16:23:58, 1
Index	Phase	Displacement	Time	Pos X	Pos Y	Pos Z	Rot A	Rot B	Piezo Z	Force A	Force B	Gripper	Voltage A	Voltage B	Temperature	Amplitude force	Amplitude pos	Stiffness	Phase shift	Phase excitation	Force A raw	Displacement raw	HMax	HMax raw	Real Force	Real Stiffness	Contact Depth	Area	Hardness	Reduced Mod.
[#]	[#]	[um]	[s]	[um]	[um]	[um]	[m°]	[m°]	[um]	[uN]	[uN]	[V]	[V]	[V]	[°C]	[uN]	[um]	[N/m]	[°]	[°]	[uN]	[um]	[um]	[um]	[uN]	[N/m]	[um]	[um^2]	[MPa]	[MPa]
325	1.000000	0.002341	7.36824e+06	-54889.1	955.817	-29743	0.000000	0.000000	6.002800	-0.018571	NaN	0.000000	0.001688	0.001629	28.0794	0.191410	0.001012	189.223	150.67	-163.815	-0.017986	0.001105	-1.084985	-1.086221	-0.018571	189.223	-1.084911	-3.143956E+14	5.906761E-17	NaN
325	1.000000	0.042274	7.36824e+06	-54889.1	955.817	-29743	0.000000	0.000000	6.042732	-0.035724	NaN	0.000000	0.001679	0.001651	28.078	0.046131	0.002005	23.0072	35.6145	-164.391	0.062806	0.041009	-1.045051	-1.046316	-0.035724	23.0072	-1.043887	-8.835497E+13	4.043219E-16	NaN
325	1.000000	0.082325	7.36824e+06	-54889.1	955.818	-29743	0.000000	0.000000	6.082783	-0.037790	NaN	0.000000	0.001655	0.001617	28.078	0.009264	0.001963	4.719293	172.974	-164.527	-0.040604	0.080985	-1.005001	-1.006341	-0.037790	4.719293	-0.998995	-2.199071E+13	1.718466E-15	NaN
325	1.000000	0.122334	7.36824e+06	-54889.1	955.818	-29743	0.000000	0.000000	6.122793	-0.021230	NaN	0.000000	0.001592	0.001706	28.0787	0.053115	0.001923	27.6279	10.5691	-163.941	-0.034831	0.121017	-0.964992	-0.966308	-0.021230	27.6279	-0.964415	-7.523016E+12	2.822037E-15	NaN
325	1.000000	0.162331	7.36824e+06	-54889.1	955.818	-29743	0.000000	0.000000	6.162790	0.003172	NaN	0.000000	0.001556	0.001714	28.0792	0.063571	0.002001	31.7668	162.017	-160.948	-0.060797	0.160980	-0.924995	-0.926346	0.003172	31.7668	-0.925070	-2.216417E+12	-1.431045E-15	NaN
325	1.000000	0.202346	7.36824e+06	-54889.1	955.818	-29743	0.000000	0.000000	6.202807	0.020656	NaN	0.000000	0.001622	0.001662	28.0789	0.087951	0.001992	44.1527	-157.499	-165.011	-0.062781	0.201016	-0.884979	-0.886310	0.020656	44.1527	-0.885330	-6.438429E+11	-3.208256E-14	NaN
325	1.000000	0.242403	7.36825e+06	-54889.1	955.819	-29743	0.000000	0.000000	6.242861	-0.034527	NaN	0.000000	0.001606	0.001689	28.0789	0.068343	0.001992	34.312	53.2968	-163.576	0.004260	0.241078	-0.844923	-0.846248	-0.034527	34.312	-0.844168	-1.785493E+11	1.933776E-13	NaN
325	1.000000	0.282391	7.36825e+06	-54889.1	955.818	-29743	0.000000	0.000000	6.282853	0.036441	NaN	0.000000	0.001585	0.001669	28.0788	0.056750	0.001973	28.7569	-38.6637	-162.431	0.052080	0.281139	-0.804934	-0.806186	0.036441	28.7569	-0.805884	-5.404166E+10	-6.743139E-13	NaN
325	1.000000	0.322412	7.36825e+06	-54889.1	955.818	-29743	0.000000	0.000000	6.322868	-0.088432	NaN	0.000000	0.001599	0.001703	28.0778	0.058894	0.002166	27.196	113.92	-164.74	-0.064210	0.321107	-0.764914	-0.766218	-0.088432	27.196	-0.762475	-1.389856E+10	6.362647E-12	NaN
325	1.000000	0.362391	7.36825e+06	-54889.1	955.818	-29743	0.000000	0.000000	6.362852	0.037609	NaN	0.000000	0.001603	0.001675	28.0776	0.149966	0.001955	76.6981	88.4665	-164.984	0.023369	0.361093	-0.724935	-0.726233	0.037609	76.6981	-0.725302	-4.332852E+9	-8.679999E-12	NaN
325	1.000000	0.402429	7.36825e+06	-54889.1	955.818	-29743	0.000000	0.000000	6.402888	-0.022109	NaN	0.000000	0.001623	0.001666	28.0776	0.010396	0.002009	5.173578	-136.961	-166.191	-0.057447	0.401133	-0.684896	-0.686193	-0.022109	5.173578	-0.681691	-1.099856E+9	2.010172E-11	NaN
325	1.000000	0.442460	7.36825e+06	-54889.1	955.818	-29743	0.000000	0.000000	6.442917	-0.057841	NaN	0.000000	0.001600	0.001664	28.0788	0.074363	0.001972	37.7128	-57.5468	-162.719	-0.012097	0.441165	-0.644866	-0.646160	-0.057841	37.7128	-0.643715	-3.320907E+8	1.741721E-10	NaN
325	1.000000	0.482463	7.36825e+06	-54889.1	955.817	-29743	0.000000	0.000000	6.482921	-0.028053	NaN	0.000000	0.001603	0.001664	28.0789	0.068431	0.002032	33.6707	-125.955	-163.951	0.066986	0.481105	-0.604863	-0.606221	-0.028053	33.6707	-0.604238	-9.523826E+7	2.945604E-10	NaN
325	1.000000	0.522482	7.36825e+06	-54889.1	955.817	-29743	0.000000	0.000000	6.522936	-0.130764	NaN	0.000000	0.001590	0.001646	28.079	0.061199	0.001795	34.0848	153.526	-168.778	-0.139837	0.521171	-0.564844	-0.566155	-0.130764	34.0848	-0.561966	-2.486430E+7	5.259105E-9	NaN
325	1.000000	0.562509	7.36825e+06	-54889.1	955.818	-29743	0.000000	0.000000	6.562970	0.037423	NaN	0.000000	0.001596	0.001681	28.0787	0.091956	0.002060	44.6341	-147.464	-164.798	0.077439	0.561256	-0.524817	-0.526069	0.037423	44.6341	-0.525446	-7.75007e+06	-4.828757E-9	NaN
325	1.000000	0.602513	7.36825e+06	-54889.1	955.818	-29743	0.000000	0.000000	6.602971	-0.039117	NaN	0.000000	0.001630	0.001665	28.0776	0.016570	0.002119	7.819570	59.6361	-165.568	0.039396	0.601226	-0.484812	-0.486100	-0.039117	7.819570	-0.481060	-1.86368e+06	2.098924E-8	NaN
325	1.000000	0.642527	7.36825e+06	-54889.1	955.818	-29743	0.000000	0.000000	6.642984	-0.057123	NaN	0.000000	0.001590	0.001655	28.0776	0.089426	0.001976	45.2564	-10.8067	-163.283	-0.058103	0.641202	-0.444799	-0.446124	-0.057123	45.2564	-0.443852	-559384	1.021174E-7	NaN
325	1.000000	0.682566	7.36825e+06	-54889.1	955.817	-29743	0.000000	0.000000	6.683023	-0.082413	NaN	0.000000	0.001610	0.001628	28.0779	0.058413	0.002060	28.357	167.145	-166.211	-0.021691	0.681297	-0.404759	-0.406028	-0.082413	28.357	-0.402579	-145467	5.665384E-7	NaN
325	1.000000	0.722606	7.36825e+06	-54889.1	955.818	-29743	0.000000	0.000000	6.723065	-0.026251	NaN	0.000000	0.001581	0.001596	28.0791	0.138292	0.001923	71.93	16.0199	-164.808	-0.011967	0.721295	-0.364719	-0.366031	-0.026251	71.93	-0.364446	-41310.2	6.354695E-7	NaN
325	1.000000	0.762576	7.36825e+06	-54889.1	955.817	-29743	0.000000	0.000000	6.763037	0.022428	NaN	0.000000	0.001558	0.001667	28.079	0.080314	0.002009	39.9672	113.121	-167.252	0.008087	0.761309	-0.324749	-0.326017	0.022428	39.9672	-0.325170	-11082.4	-2.023778E-6	NaN
325	1.000000	0.802593	7.36825e+06	-54889.1	955.818	-29743	0.000000	0.000000	6.803049	-0.078931	NaN	0.000000	0.001588	0.001629	28.079	0.036465	0.002036	17.9085	-66.26	-164.278	-0.017330	0.801343	-0.284733	-0.285983	-0.078931	17.9085	-0.281427	-2480.24	3.182397E-5	NaN
325	1.000000	0.842639	7.36825e+06	-54889.1	955.817	-29743	0.000000	0.000000	6.843097	-0.047764	NaN	0.000000	0.001646	0.001643	28.0777	0.108381	0.002033	53.2994	78.9114	-164.542	-0.045044	0.841313	-0.244686	-0.246013	-0.047764	53.2994	-0.244014	-663.935	7.194058E-5	NaN
325	1.000000	0.882656	7.36825e+06	-54889.1	955.817	-29743	0.000000	0.000000	6.883115	-0.015702	NaN	0.000000	0.001660	0.001635	28.0777	0.133542	0.002082	64.1289	-142.55	-165.294	-0.099824	0.881368	-0.204670	-0.205958	-0.015702	64.1289	-0.204486	-156.018	0.000101	NaN
325	1.000000	0.922660	7.36825e+06	-54889.1	955.818	-29743	0.000000	0.000000	6.923118	-0.044141	NaN	0.000000	0.001632	0.001666	28.0777	0.136457	0.002018	67.6295	-147.3	-165.965	-0.032784	0.921394	-0.164666	-0.165932	-0.044141	67.6295	-0.164176	-32.4955	0.001358	NaN
325	1.000000	0.962703	7.36825e+06	-54889.1	955.818	-29743	0.000000	0.000000	6.963161	-0.041868	NaN	0.000000	0.001642	0.001662	28.078	0.050995	0.001983	25.7146	-88.7023	-165.766	0.008912	0.961385	-0.124623	-0.125940	-0.041868	25.7146	-0.123401	-5.652801	0.007407	NaN
325	1.000000	1.002700	7.36825e+06	-54889.1	955.817	-29743	0.000000	0.000000	7.003157	-0.057713	NaN	0.000000	0.001630	0.001640	28.0792	0.055899	0.002042	27.3787	-50.8887	-161.926	-0.064114	1.001395	-0.084626	-0.085931	-0.057713	27.3787	-0.083045	-0.736307	0.078382	NaN
325	1.000000	1.042705	7.36825e+06	-54889.1	955.817	-29743	0.000000	0.000000	7.043164	-0.011551	NaN	0.000000	0.001566	0.001628	28.0789	0.096789	0.001938	49.9386	-86.3498	-161.558	0.056016	1.041384	-0.044620	-0.045942	-0.011551	49.9386	-0.044447	-0.061813	0.186862	NaN
325	1.000000	1.082734	7.36825e+06	-54889.1	955.819	-29743	0.000000	0.000000	7.083191	-0.058858	NaN	0.000000	0.001591	0.001655	28.079	0.028410	0.002006	14.1634	-18.3337	-166.714	-0.108236	1.081419	-0.004591	-0.005907	-0.058858	14.1634	-0.001475	-0.001072	54.9285	NaN
325	2.000000	1.103223	7.36825e+06	-54889.1	955.818	-29743	0.000000	0.000000	7.104401	17.4565	NaN	0.000000	0.001595	0.001643	28.078	15.5127	0.001767	8778.31	4.620249	-172.112	17.3641	1.102942	0.015898	0.015616	17.4565	8778.31	0.014406	0.014502	1203.77	66600.3
325	2.000000	1.113185	7.36825e+06	-54889.1	955.819	-29743	0.000000	0.000000	7.115491	44.8845	NaN	0.000000	0.001607	0.001684	28.0781	26.1001	0.001759	14833.9	2.918455	-175.426	43.5403	1.112875	0.025859	0.025549	44.8845	14833.9	0.023590	0.028500	1574.88	80279.6
325	2.000000	1.123121	7.36825e+06	-54889.1	955.82	-29743	0.000000	0.000000	7.126590	73.1613	NaN	0.000000	0.001531	0.001658	28.0783	35.1072	0.001730	20289.3	1.624080	-177.461	71.4013	1.122922	0.035795	0.035596	73.1613	20289.3	0.033091	0.047394	1543.7	85149.2
325	2.000000	1.133106	7.36825e+06	-54889.1	955.819	-29743	0.000000	0.000000	7.138011	108.057	NaN	0.000000	0.001599	0.001697	28.0784	44.6109	0.001797	24827.9	3.858594	178.388	105.122	1.132781	0.045780	0.045456	108.057	24827.9	0.042516	0.070693	1528.54	85315.2
325	2.000000	1.143080	7.36825e+06	-54889.1	955.819	-29743	0.000000	0.000000	7.149779	151.669	NaN	0.000000	0.001587	0.001697	28.0795	53.7063	0.001918	27996.3	5.604386	176.161	148.784	1.142802	0.055754	0.055476	151.669	27996.3	0.051691	0.097713	1552.2	81827.4
325	2.000000	1.153110	7.36825e+06	-54889.1	955.819	-29743	0.000000	0.000000	7.161470	192.064	NaN	0.000000	0.001578	0.001649	28.0791	61.1994	0.001745	35068.7	2.259001	177.05	189.862	1.152880	0.065784	0.065555	192.064	35068.7	0.061677	0.131889	1456.26	88224.5
325	2.000000	1.163150	7.36825e+06	-54889.1	955.819	-29743	0.000000	0.000000	7.173950	251.371	NaN	0.000000	0.001544	0.001665	28.079	71.6979	0.001822	39353.2	5.487342	173.915	253.687	1.162697	0.075824	0.075372	251.371	39353.2	0.071034	0.168318	1493.43	87637.2
325	2.000000	1.173198	7.36825e+06	-54889.1	955.82	-29743	0.000000	0.000000	7.186381	309.305	NaN	0.000000	0.001566	0.001678	28.078	81.8189	0.001755	46620.3	6.316971	171.488	314.038	1.172852	0.085872	0.085526	309.305	46620.3	0.080896	0.211214	1464.41	92680.1
325	2.000000	1.183143	7.36825e+06	-54889.1	955.82	-29743	0.000000	0.000000	7.198943	372.899	NaN	0.000000	0.001507	0.001659	28.0779	89.9708	0.001715	52470.8	3.953009	172.803	375.153	1.182861	0.095818	0.095536	372.899	52470.8	0.090488	0.257274	1449.43	94513.3
325	2.000000	1.193082	7.36825e+06	-54889.1	955.819	-29743	0.000000	0.000000	7.212323	456.581	NaN	0.000000	0.001625	0.001688	28.0778	100.809	0.001803	55910.1	5.507122	171.297	456.535	1.192713	0.105756	0.105387	456.581	55910.1	0.099631	0.305111	1496.44	92477.2
325	2.000000	1.195140	7.36825e+06	-54889.1	955.82	-29743	0.000000	0.000000	7.214862	468.263	NaN	0.000000	0.001611	0.001687	28.0781	101.233	0.001778	56936.1	5.195220	171.109	471.304	1.194813	0.107815	0.107487	468.263	56936.1	0.101646	0.316164	1481.08	92513.4

File: 2025-07-22_16-23-58_1_326.txt
2025-07-22, 16:23:58, 1
Index	Phase	Displacement	Time	Pos X	Pos Y	Pos Z	Rot A	Rot B	Piezo Z	Force A	Force B	Gripper	Voltage A	Voltage B	Temperature	Amplitude force	Amplitude pos	Stiffness	Phase shift	Phase excitation	Force A raw	Displacement raw	HMax	HMax raw	Real Force	Real Stiffness	Contact Depth	Area	Hardness	Reduced Mod.
[#]	[#]	[um]	[s]	[um]	[um]	[um]	[m°]	[m°]	[um]	[uN]	[uN]	[V]	[V]	[V]	[°C]	[uN]	[um]	[N/m]	[°]	[°]	[uN]	[um]	[um]	[um]	[uN]	[N/m]	[um]	[um^2]	[MPa]	[MPa]
326	1.000000	0.003139	7.36825e+06	-54939.1	955.818	-29742.9	0.000000	0.000000	6.002800	0.097489	NaN	0.000000	0.001599	0.001672	28.0798	0.022789	0.001017	22.4185	-99.2028	-164.199	0.121983	0.001921	-1.043125	-1.044343	0.097489	22.4185	-1.046386	-9.546283E+13	-1.021220E-15	NaN
326	1.000000	0.043069	7.36825e+06	-54939.1	955.819	-29742.9	0.000000	0.000000	6.042724	-0.042806	NaN	0.000000	0.001582	0.001724	28.0788	0.053441	0.001915	27.9102	-71.0484	-167.971	-0.045020	0.041728	-1.003195	-1.004536	-0.042806	27.9102	-1.002045	-2.417112E+13	1.770962E-15	NaN
326	1.000000	0.083113	7.36825e+06	-54939.1	955.818	-29742.9	0.000000	0.000000	6.082769	-0.015654	NaN	0.000000	0.001590	0.001664	28.0789	0.045929	0.001893	24.2565	-42.4597	-169.141	-0.028769	0.081756	-0.963152	-0.964508	-0.015654	24.2565	-0.962668	-7.125818E+12	2.196763E-15	NaN
326	1.000000	0.123104	7.36825e+06	-54939.1	955.819	-29742.9	0.000000	0.000000	6.122760	-0.035167	NaN	0.000000	0.001592	0.001705	28.0789	0.104973	0.002066	50.8121	129.55	-166.506	-0.003002	0.121884	-0.923160	-0.924381	-0.035167	50.8121	-0.922641	-2.055230E+12	1.711106E-14	NaN
326	1.000000	0.163147	7.36825e+06	-54939.1	955.819	-29742.9	0.000000	0.000000	6.162803	-0.004334	NaN	0.000000	0.001589	0.001772	28.0802	0.099342	0.001942	51.1476	90.0567	-162.315	-0.026930	0.161832	-0.883117	-0.884433	-0.004334	51.1476	-0.883054	-5.997979E+11	7.225613E-15	NaN
326	1.000000	0.203139	7.36825e+06	-54939.1	955.819	-29742.9	0.000000	0.000000	6.202795	-0.011173	NaN	0.000000	0.001591	0.001747	28.0801	0.062351	0.002094	29.7754	21.3063	-167.184	-0.023422	0.201856	-0.843125	-0.844408	-0.011173	29.7754	-0.842844	-1.713232E+11	6.521873E-14	NaN
326	1.000000	0.243179	7.36825e+06	-54939.1	955.818	-29742.9	0.000000	0.000000	6.242835	-0.021832	NaN	0.000000	0.001599	0.001712	28.0801	0.048943	0.002080	23.5251	68.3962	-162.838	-0.027147	0.241804	-0.803085	-0.804460	-0.021832	23.5251	-0.802389	-4.844935E+10	4.506174E-13	NaN
326	1.000000	0.283186	7.36825e+06	-54939.1	955.819	-29742.9	0.000000	0.000000	6.282846	0.079318	NaN	0.000000	0.001599	0.001691	28.08	0.074236	0.001816	40.8748	147.767	-162.927	0.059609	0.281912	-0.763078	-0.764352	0.079318	40.8748	-0.764534	-1.482414E+10	-5.350584E-12	NaN
326	1.000000	0.323239	7.36825e+06	-54939.1	955.818	-29742.9	0.000000	0.000000	6.322897	0.041565	NaN	0.000000	0.001572	0.001707	28.0791	0.115778	0.002034	56.9326	81.0605	-163.168	0.065793	0.321906	-0.723026	-0.724359	0.041565	56.9326	-0.723573	-4.103925E+9	-1.012820E-11	NaN
326	1.000000	0.363212	7.36826e+06	-54939.1	955.819	-29742.9	0.000000	0.000000	6.362866	-0.071238	NaN	0.000000	0.001576	0.001755	28.0788	0.011157	0.001978	5.640141	1.581315	-164.499	-0.069459	0.361904	-0.683053	-0.684360	-0.071238	5.640141	-0.673580	-8.518756E+8	8.362541E-11	NaN
326	1.000000	0.403268	7.36826e+06	-54939.1	955.819	-29742.9	0.000000	0.000000	6.402926	0.032117	NaN	0.000000	0.001568	0.001757	28.0786	0.073820	0.002014	36.6584	178.275	-165.55	0.041745	0.401922	-0.642996	-0.644343	0.032117	36.6584	-0.643653	-3.314409E+8	-9.690056E-11	NaN
326	1.000000	0.443238	7.36826e+06	-54939.1	955.818	-29742.9	0.000000	0.000000	6.442893	-0.027306	NaN	0.000000	0.001602	0.001783	28.0802	0.047449	0.001995	23.7866	112.813	-163.76	-0.015263	0.441934	-0.603026	-0.604330	-0.027306	23.7866	-0.602165	-8.918276E+7	3.061814E-10	NaN
326	1.000000	0.483284	7.36826e+06	-54939.1	955.82	-29742.9	0.000000	0.000000	6.482942	0.033226	NaN	0.000000	0.001584	0.001683	28.0805	0.091671	0.001952	46.9723	39.8126	-167.176	0.107449	0.482017	-0.562981	-0.564247	0.033226	46.9723	-0.563511	-2.611788E+7	-1.272145E-9	NaN
326	1.000000	0.523309	7.36826e+06	-54939.1	955.817	-29742.9	0.000000	0.000000	6.522968	0.037361	NaN	0.000000	0.001536	0.001672	28.0802	0.095039	0.002009	47.3178	-108.364	-163.903	-0.008164	0.521926	-0.522955	-0.524339	0.037361	47.3178	-0.523547	-7.29321e+06	-5.122732E-9	NaN
326	1.000000	0.563311	7.36826e+06	-54939.1	955.817	-29742.9	0.000000	0.000000	6.562966	-0.022694	NaN	0.000000	0.001626	0.001668	28.0786	0.099450	0.001905	52.1941	145.397	-163.594	0.027092	0.562039	-0.482954	-0.484225	-0.022694	52.1941	-0.482628	-1.96021e+06	1.157714E-8	NaN
326	1.000000	0.603337	7.36826e+06	-54939.1	955.818	-29742.9	0.000000	0.000000	6.602994	0.005568	NaN	0.000000	0.001602	0.001682	28.0783	0.044044	0.001986	22.1728	-0.670225	-166.995	0.012465	0.602060	-0.442927	-0.444204	0.005568	22.1728	-0.443115	-546158	-1.019540E-8	NaN
326	1.000000	0.643338	7.36826e+06	-54939.1	955.818	-29742.9	0.000000	0.000000	6.642995	0.013734	NaN	0.000000	0.001583	0.001684	28.0787	0.036871	0.002076	17.7624	51.2245	-167.682	0.043461	0.642085	-0.402926	-0.404179	0.013734	17.7624	-0.403506	-149959	-9.158333E-8	NaN
326	1.000000	0.683346	7.36826e+06	-54939.1	955.819	-29742.9	0.000000	0.000000	6.683003	-0.006162	NaN	0.000000	0.001535	0.001720	28.0785	0.155074	0.001824	85.0363	-113.081	-165.007	0.014094	0.682103	-0.362918	-0.364161	-0.006162	85.0363	-0.362864	-39194.1	1.572221E-7	NaN
326	1.000000	0.723377	7.36826e+06	-54939.1	955.819	-29742.9	0.000000	0.000000	6.723033	-0.015166	NaN	0.000000	0.001573	0.001652	28.0799	0.085834	0.002009	42.7152	99.7029	-166.053	-0.023632	0.722061	-0.322887	-0.324204	-0.015166	42.7152	-0.322621	-10166.9	1.491681E-6	NaN
326	1.000000	0.763381	7.36826e+06	-54939.1	955.819	-29742.9	0.000000	0.000000	6.763038	0.003268	NaN	0.000000	0.001589	0.001719	28.0799	0.093410	0.001902	49.1196	23.9914	-167.57	0.042376	0.762121	-0.282883	-0.284144	0.003268	49.1196	-0.282933	-2613.21	-1.250647E-6	NaN
326	1.000000	0.803413	7.36826e+06	-54939.1	955.818	-29742.9	0.000000	0.000000	6.803072	0.049730	NaN	0.000000	0.001594	0.001705	28.08	0.096103	0.001979	48.5594	-108.236	-162.156	0.057354	0.802101	-0.242851	-0.244163	0.049730	48.5594	-0.243619	-654.604	-7.597028E-5	NaN
326	1.000000	0.843424	7.36826e+06	-54939.1	955.818	-29742.9	0.000000	0.000000	6.843080	-0.011193	NaN	0.000000	0.001583	0.001724	28.0786	0.054289	0.002025	26.8055	134.353	-161.497	0.044935	0.842103	-0.202840	-0.204162	-0.011193	26.8055	-0.202527	-144.927	7.722952E-5	NaN
326	1.000000	0.883453	7.36826e+06	-54939.1	955.818	-29742.9	0.000000	0.000000	6.883111	0.031436	NaN	0.000000	0.001611	0.001691	28.0788	0.030697	0.001879	16.3349	-106.88	-168.435	0.038074	0.882135	-0.162811	-0.164130	0.031436	16.3349	-0.164255	-32.5993	-0.000964	NaN
326	1.000000	0.923453	7.36826e+06	-54939.1	955.819	-29742.9	0.000000	0.000000	6.923112	0.044702	NaN	0.000000	0.001594	0.001701	28.0789	0.043446	0.002019	21.5207	-54.0266	-164.816	-0.035738	0.922162	-0.122811	-0.124103	0.044702	21.5207	-0.124369	-5.908642	-0.007565	NaN
326	1.000000	0.963473	7.36826e+06	-54939.1	955.819	-29742.9	0.000000	0.000000	6.963130	0.011907	NaN	0.000000	0.001667	0.001625	28.0793	0.018983	0.001913	9.923613	157.702	-163.217	-0.033607	0.962099	-0.082791	-0.084165	0.011907	9.923613	-0.083691	-0.763602	-0.015594	NaN
326	1.000000	1.003460	7.36826e+06	-54939.1	955.818	-29742.9	0.000000	0.000000	7.003116	-0.024053	NaN	0.000000	0.001661	0.001600	28.0804	0.133241	0.001950	68.3311	-149.578	-161.79	-0.006945	1.002157	-0.042804	-0.044107	-0.024053	68.3311	-0.042540	-0.054046	0.445039	NaN
326	1.000000	1.043518	7.36826e+06	-54939.1	955.82	-29742.9	0.000000	0.000000	7.043174	-0.024495	NaN	0.000000	0.001674	0.001615	28.0805	0.064605	0.002015	32.0628	112.579	-168.216	-0.002136	1.042180	-0.002746	-0.004084	-0.024495	32.0628	-0.002173	-0.001559	15.7123	NaN
326	2.000000	1.063043	7.36826e+06	-54939.1	955.819	-29742.9	0.000000	0.000000	7.063356	15.9376	NaN	0.000000	0.001641	0.001617	28.0805	15.9969	0.001846	8663.84	5.876306	-174.552	14.7672	1.062819	0.016779	0.016554	15.9376	8663.84	0.015399	0.015822	1007.33	62930
326	2.000000	1.072965	7.36826e+06	-54939.1	955.818	-29742.9	0.000000	0.000000	7.074147	37.0721	NaN	0.000000	0.001594	0.001635	28.079	26.6874	0.001707	15635.9	7.086446	179.478	35.3928	1.072678	0.026701	0.026414	37.0721	15635.9	0.024922	0.030875	1200.73	81300.7
326	2.000000	1.083068	7.36826e+06	-54939.1	955.819	-29742.9	0.000000	0.000000	7.085188	59.8961	NaN	0.000000	0.001646	0.001643	28.0796	36.8337	0.001689	21806.5	2.812038	-179.189	62.3569	1.082644	0.036803	0.036379	59.8961	21806.5	0.034743	0.051150	1170.99	88092.1
326	2.000000	1.092988	7.36826e+06	-54939.1	955.819	-29742.9	0.000000	0.000000	7.096726	99.2196	NaN	0.000000	0.001605	0.001637	28.0795	48.1572	0.001870	25752	7.933975	174.485	99.2679	1.092647	0.046723	0.046383	99.2196	25752	0.043834	0.074310	1335.2	86309.6
326	2.000000	1.102992	7.36826e+06	-54939.1	955.82	-29742.9	0.000000	0.000000	7.108556	143.601	NaN	0.000000	0.001574	0.001596	28.0801	58.7504	0.001743	33711.8	4.313301	175.253	143.367	1.102631	0.056728	0.056367	143.601	33711.8	0.053533	0.103645	1385.51	95671.2
326	2.000000	1.112902	7.36826e+06	-54939.1	955.821	-29742.9	0.000000	0.000000	7.120647	196.603	NaN	0.000000	0.001601	0.001625	28.0803	68.2217	0.001723	39603.5	0.964891	176.97	194.199	1.112784	0.066638	0.066520	196.603	39603.5	0.062915	0.136467	1440.66	97947.4
326	2.000000	1.122842	7.36826e+06	-54939.1	955.821	-29742.9	0.000000	0.000000	7.133941	278.154	NaN	0.000000	0.001634	0.001609	28.0801	79.9034	0.001669	47874.2	4.646141	172.158	274.936	1.122599	0.076578	0.076335	278.154	47874.2	0.072220	0.173237	1605.62	105088
326	2.000000	1.132858	7.36826e+06	-54939.1	955.821	-29742.9	0.000000	0.000000	7.147813	371.875	NaN	0.000000	0.001699	0.001584	28.0799	90.4749	0.001711	52892.4	7.806410	168.259	368.329	1.132518	0.086594	0.086254	371.875	52892.4	0.081321	0.213164	1744.55	104667
326	2.000000	1.142867	7.36826e+06	-54939.1	955.821	-29742.9	0.000000	0.000000	7.161562	462.82	NaN	0.000000	0.001617	0.001575	28.0788	100.051	0.001798	55657.7	1.715341	173.899	458.344	1.142602	0.096603	0.096337	462.82	55657.7	0.090366	0.256663	1803.22	100373
326	2.000000	1.152858	7.36826e+06	-54939.1	955.82	-29742.9	0.000000	0.000000	7.175558	560.188	NaN	0.000000	0.001524	0.001621	28.0789	109.795	0.001727	63577.5	3.526974	171.3	557.527	1.152570	0.106593	0.106305	560.188	63577.5	0.099985	0.307037	1824.5	104829
326	2.000000	1.154830	7.36826e+06	-54939.1	955.82	-29742.9	0.000000	0.000000	7.178832	591.824	NaN	0.000000	0.001531	0.001584	28.0789	109.768	0.001739	63107.9	-0.351645	175.267	587.68	1.154588	0.108565	0.108324	591.824	63107.9	0.101532	0.315530	1875.65	102645