Folder: unikorn_login/remote_trans/data/nanoindenter/0828-1/data/Data_2025-08-06,11h17m57s (part 128)

File: 2025-07-22_16-23-58_1_273.txt
2025-07-22, 16:23:58, 1
Index	Phase	Displacement	Time	Pos X	Pos Y	Pos Z	Rot A	Rot B	Piezo Z	Force A	Force B	Gripper	Voltage A	Voltage B	Temperature	Amplitude force	Amplitude pos	Stiffness	Phase shift	Phase excitation	Force A raw	Displacement raw	HMax	HMax raw	Real Force	Real Stiffness	Contact Depth	Area	Hardness	Reduced Mod.
[#]	[#]	[um]	[s]	[um]	[um]	[um]	[m°]	[m°]	[um]	[uN]	[uN]	[V]	[V]	[V]	[°C]	[uN]	[um]	[N/m]	[°]	[°]	[uN]	[um]	[um]	[um]	[uN]	[N/m]	[um]	[um^2]	[MPa]	[MPa]
273	1.000000	0.002570	7.36773e+06	-52289.1	955.819	-29749.9	0.000000	0.000000	6.002795	-0.002757	NaN	0.000000	0.001746	0.001644	28.0782	0.040144	0.001061	37.8438	161.57	-169.208	-0.040591	0.001332	-1.104972	-1.106209	-0.002757	37.8438	-1.104917	-5.835402E+14	4.724589E-18	NaN
273	1.000000	0.044531	7.36773e+06	-52289.1	955.819	-29749.9	0.000000	0.000000	6.044758	0.019252	NaN	0.000000	0.001719	0.001637	28.0783	0.080930	0.002081	38.8855	-20.9427	15.1269	0.017687	0.043214	-1.063010	-1.064328	0.019252	38.8855	-1.063382	-1.615340E+14	-1.191852E-16	NaN
273	1.000000	0.086551	7.36773e+06	-52289.1	955.817	-29749.9	0.000000	0.000000	6.086778	0.024391	NaN	0.000000	0.001727	0.001696	28.0786	0.111687	0.001951	57.2451	122.477	-164.683	-0.056439	0.085241	-1.020991	-1.022300	0.024391	57.2451	-1.021310	-4.391156E+13	-5.554469E-16	NaN
273	1.000000	0.128550	7.36773e+06	-52289.1	955.819	-29749.9	0.000000	0.000000	6.128776	0.035517	NaN	0.000000	0.001656	0.001660	28.0771	0.116823	0.001880	62.1249	-76.3433	12.8879	0.041096	0.127244	-0.978992	-0.980297	0.035517	62.1249	-0.979421	-1.198419E+13	-2.963624E-15	NaN
273	1.000000	0.170593	7.36773e+06	-52289.1	955.818	-29749.9	0.000000	0.000000	6.170818	3.048995E-5	NaN	0.000000	0.001704	0.001705	28.0772	0.051713	0.001946	26.5731	8.833832	-162.915	0.007677	0.169271	-0.936949	-0.938270	3.048995E-5	26.5731	-0.936950	-3.206143E+12	-9.509854E-18	NaN
273	1.000000	0.212588	7.36773e+06	-52289.1	955.818	-29749.9	0.000000	0.000000	6.212813	-0.002825	NaN	0.000000	0.001689	0.001655	28.0771	0.031618	0.002018	15.67	-24.5209	19.8097	-0.007383	0.211191	-0.894954	-0.896351	-0.002825	15.67	-0.894819	-8.650576E+11	3.265344E-15	NaN
273	1.000000	0.254639	7.36773e+06	-52289.1	955.818	-29749.9	0.000000	0.000000	6.254864	0.001756	NaN	0.000000	0.001709	0.001629	28.0785	0.047296	0.002061	22.9426	-76.833	-163.157	0.065102	0.253371	-0.852903	-0.854170	0.001756	22.9426	-0.852961	-2.348686E+11	-7.478555E-15	NaN
273	1.000000	0.296618	7.36773e+06	-52289.1	955.818	-29749.9	0.000000	0.000000	6.296845	0.049647	NaN	0.000000	0.001722	0.001692	28.0786	0.104765	0.002067	50.6733	-21.6145	15.5436	0.064709	0.295304	-0.810924	-0.812237	0.049647	50.6733	-0.811659	-6.472542E+10	-7.670428E-13	NaN
273	1.000000	0.338644	7.36773e+06	-52289.1	955.818	-29749.9	0.000000	0.000000	6.338871	0.031081	NaN	0.000000	0.001718	0.001673	28.0789	0.066195	0.001991	33.254	97.723	-166.221	-0.017825	0.337368	-0.768898	-0.770174	0.031081	33.254	-0.769598	-1.737187E+10	-1.789155E-12	NaN
273	1.000000	0.380644	7.36773e+06	-52289.1	955.819	-29749.9	0.000000	0.000000	6.380872	0.059785	NaN	0.000000	0.001700	0.001687	28.0789	0.048797	0.002008	24.2985	-16.6577	16.7579	0.049073	0.379316	-0.726898	-0.728226	0.059785	24.2985	-0.728743	-4.827021E+9	-1.238547E-11	NaN
273	1.000000	0.422650	7.36773e+06	-52289.1	955.819	-29749.9	0.000000	0.000000	6.422875	-0.016257	NaN	0.000000	0.001769	0.001658	28.0775	0.015687	0.001913	8.201211	72.2257	-166.607	-0.058089	0.421354	-0.684891	-0.686188	-0.016257	8.201211	-0.683405	-1.160815E+9	1.400510E-11	NaN
273	1.000000	0.464696	7.36773e+06	-52289.1	955.819	-29749.9	0.000000	0.000000	6.464924	0.059843	NaN	0.000000	0.001731	0.001657	28.0778	0.142919	0.002047	69.8294	32.5724	15.6782	0.058520	0.463360	-0.642846	-0.644182	0.059843	69.8294	-0.643489	-3.297247E+8	-1.814949E-10	NaN
273	1.000000	0.506755	7.36773e+06	-52289.1	955.818	-29749.9	0.000000	0.000000	6.506983	0.067240	NaN	0.000000	0.001774	0.001690	28.0778	0.076188	0.002073	36.7507	-43.7567	-165.099	-0.002414	0.505433	-0.600787	-0.602109	0.067240	36.7507	-0.602159	-8.916525E+7	-7.541109E-10	NaN
273	1.000000	0.548728	7.36773e+06	-52289.1	955.818	-29749.9	0.000000	0.000000	6.548955	0.027603	NaN	0.000000	0.001720	0.001661	28.0793	0.094133	0.002058	45.7459	100.146	14.9027	-0.072695	0.547383	-0.558814	-0.560158	0.027603	45.7459	-0.559266	-2.281520E+7	-1.209849E-9	NaN
273	1.000000	0.590761	7.36773e+06	-52289.1	955.818	-29749.9	0.000000	0.000000	6.590988	0.025641	NaN	0.000000	0.001692	0.001645	28.0791	0.056860	0.002117	26.864	-29.0879	-164.452	0.002022	0.589439	-0.516781	-0.518103	0.025641	26.864	-0.517497	-6.0086e+06	-4.267440E-9	NaN
273	1.000000	0.632765	7.36773e+06	-52289.1	955.819	-29749.9	0.000000	0.000000	6.632988	-0.058784	NaN	0.000000	0.001698	0.001650	28.0788	0.087667	0.001995	43.9539	-139.094	19.4377	0.064404	0.631405	-0.474777	-0.476137	-0.058784	43.9539	-0.473773	-1.47337e+06	3.989792E-8	NaN
273	1.000000	0.674794	7.36773e+06	-52289.1	955.818	-29749.9	0.000000	0.000000	6.675020	0.013321	NaN	0.000000	0.001745	0.001650	28.0772	0.069952	0.001948	35.9032	-163.755	-162.819	0.001638	0.673447	-0.432748	-0.434095	0.013321	35.9032	-0.433026	-393417	-3.385858E-8	NaN
273	1.000000	0.716805	7.36773e+06	-52289.1	955.819	-29749.9	0.000000	0.000000	6.717029	-0.030351	NaN	0.000000	0.001733	0.001672	28.0774	0.070420	0.001902	37.0187	160.556	13.483	-0.037844	0.715435	-0.390737	-0.392107	-0.030351	37.0187	-0.390122	-96585	3.142416E-7	NaN
273	1.000000	0.758796	7.36773e+06	-52289.1	955.818	-29749.9	0.000000	0.000000	6.759021	-0.005984	NaN	0.000000	0.001695	0.001657	28.0776	0.061766	0.001983	31.1466	81.3439	-168.222	0.065698	0.757507	-0.348746	-0.350035	-0.005984	31.1466	-0.348602	-24361.7	2.456492E-7	NaN
273	1.000000	0.800835	7.36773e+06	-52289.1	955.818	-29749.9	0.000000	0.000000	6.801059	-0.035867	NaN	0.000000	0.001677	0.001628	28.0787	0.041185	0.001947	21.1537	-139.872	13.6708	-0.030681	0.799466	-0.306707	-0.308076	-0.035867	21.1537	-0.305435	-5667.75	6.328218E-6	NaN
273	1.000000	0.842857	7.36773e+06	-52289.1	955.819	-29749.9	0.000000	0.000000	6.843083	0.012937	NaN	0.000000	0.001687	0.001683	28.0785	0.111030	0.002015	55.1037	-82.9536	-168.955	0.036809	0.841555	-0.264684	-0.265987	0.012937	55.1037	-0.264860	-1390.77	-9.302102E-6	NaN
273	1.000000	0.884851	7.36773e+06	-52289.1	955.819	-29749.9	0.000000	0.000000	6.885080	0.064594	NaN	0.000000	0.001662	0.001655	28.0787	0.047047	0.001970	23.8866	107.065	12.1242	-0.024067	0.883531	-0.222690	-0.224010	0.064594	23.8866	-0.224718	-330.264	-0.000196	NaN
273	1.000000	0.926893	7.36773e+06	-52289.1	955.819	-29749.9	0.000000	0.000000	6.927121	0.064385	NaN	0.000000	0.001770	0.001644	28.0786	0.127167	0.001991	63.8658	61.6833	-167.578	0.098898	0.925593	-0.180648	-0.181948	0.064385	63.8658	-0.181404	-64.4658	-0.000999	NaN
273	1.000000	0.968872	7.36773e+06	-52289.1	955.817	-29749.9	0.000000	0.000000	6.969097	-0.000306	NaN	0.000000	0.001778	0.001639	28.0776	0.096198	0.001914	50.2592	79.8073	10.8574	0.006031	0.967553	-0.138670	-0.139989	-0.000306	50.2592	-0.138665	-11.1645	2.743737E-5	NaN
273	1.000000	1.010924	7.36773e+06	-52289.1	955.816	-29749.9	0.000000	0.000000	7.011151	0.028308	NaN	0.000000	0.001747	0.001619	28.0775	0.107237	0.001917	55.9368	106.056	-172.148	0.100049	1.009597	-0.096618	-0.097944	0.028308	55.9368	-0.096997	-1.565563	-0.018082	NaN
273	1.000000	1.052958	7.36773e+06	-52289.1	955.817	-29749.9	0.000000	0.000000	7.053183	-0.003701	NaN	0.000000	0.001723	0.001646	28.0775	0.049086	0.002008	24.4419	-118.171	13.1692	0.048306	1.051534	-0.054584	-0.056008	-0.003701	24.4419	-0.054470	-0.124213	0.029796	NaN
273	1.000000	1.094962	7.36773e+06	-52289.1	955.818	-29749.9	0.000000	0.000000	7.095186	-0.023573	NaN	0.000000	0.001722	0.001630	28.0787	0.018117	0.001955	9.268046	36.0832	-168.154	0.016407	1.093700	-0.012580	-0.013842	-0.023573	9.268046	-0.010672	-0.006771	3.481390	NaN
273	2.000000	1.121108	7.36773e+06	-52289.1	955.818	-29749.9	0.000000	0.000000	7.121952	15.034	NaN	0.000000	0.001701	0.001637	28.0787	14.0329	0.001838	7635.44	8.060226	4.900650	13.8418	1.120783	0.013567	0.013241	15.034	7635.44	0.012090	0.011598	1296.25	64776.2
273	2.000000	1.131555	7.36773e+06	-52289.1	955.818	-29749.9	0.000000	0.000000	7.133363	38.4723	NaN	0.000000	0.001683	0.001652	28.0786	24.8953	0.001760	14142.8	4.959532	-178.675	38.4263	1.131239	0.024013	0.023697	38.4723	14142.8	0.021973	0.025738	1494.74	80541
273	2.000000	1.142038	7.36773e+06	-52289.1	955.817	-29749.9	0.000000	0.000000	7.144942	65.1286	NaN	0.000000	0.001718	0.001634	28.0777	34.6601	0.001664	20830.5	7.245205	-5.885359	62.3016	1.141736	0.034496	0.034195	65.1286	20830.5	0.032151	0.045320	1437.08	89398
273	2.000000	1.152482	7.36773e+06	-52289.1	955.817	-29749.9	0.000000	0.000000	7.157230	109.954	NaN	0.000000	0.001688	0.001643	28.0787	44.4591	0.001680	26464.6	6.122784	174.643	108.602	1.152151	0.044940	0.044609	109.954	26464.6	0.041824	0.068828	1597.53	92163.3
273	2.000000	1.162987	7.36773e+06	-52289.1	955.818	-29749.9	0.000000	0.000000	7.169437	151.344	NaN	0.000000	0.001741	0.001645	28.0774	54.7237	0.001767	30967.5	3.780857	-4.613423	149.504	1.162765	0.055446	0.055224	151.344	30967.5	0.051780	0.097995	1544.41	90381
273	2.000000	1.173497	7.36773e+06	-52289.1	955.817	-29749.9	0.000000	0.000000	7.182297	208.496	NaN	0.000000	0.001714	0.001734	28.0785	66.6971	0.001949	34215.2	9.441663	170.51	207.341	1.173166	0.065955	0.065624	208.496	34215.2	0.061385	0.130820	1593.76	86427.9
273	2.000000	1.183975	7.36773e+06	-52289.1	955.818	-29749.9	0.000000	0.000000	7.195302	269.947	NaN	0.000000	0.001710	0.001640	28.0786	75.8615	0.001823	41621.6	5.513845	-8.084094	268.502	1.183676	0.076433	0.076134	269.947	41621.6	0.071569	0.170528	1583.01	92086.3
273	2.000000	1.194408	7.36773e+06	-52289.1	955.818	-29749.9	0.000000	0.000000	7.208656	340.943	NaN	0.000000	0.001734	0.001604	28.0785	85.6662	0.001722	49744.4	5.901211	169.895	335.884	1.194176	0.086866	0.086634	340.943	49744.4	0.081726	0.215031	1585.55	98009.2
273	2.000000	1.204946	7.36773e+06	-52289.1	955.821	-29749.9	0.000000	0.000000	7.222629	424.48	NaN	0.000000	0.001675	0.001590	28.0786	96.0343	0.001799	53389.9	6.428485	-11.2158	420.764	1.204488	0.097405	0.096946	424.48	53389.9	0.091442	0.262086	1619.62	95282
273	2.000000	1.214362	7.36773e+06	-52289.1	955.82	-29749.9	0.000000	0.000000	7.234821	491.976	NaN	0.000000	0.001716	0.001624	28.0772	103.697	0.001732	59876.4	0.736944	173.589	485.062	1.214100	0.106820	0.106558	491.976	59876.4	0.100658	0.310720	1583.34	98139.7

File: 2025-07-22_16-23-58_1_274.txt
2025-07-22, 16:23:58, 1
Index	Phase	Displacement	Time	Pos X	Pos Y	Pos Z	Rot A	Rot B	Piezo Z	Force A	Force B	Gripper	Voltage A	Voltage B	Temperature	Amplitude force	Amplitude pos	Stiffness	Phase shift	Phase excitation	Force A raw	Displacement raw	HMax	HMax raw	Real Force	Real Stiffness	Contact Depth	Area	Hardness	Reduced Mod.
[#]	[#]	[um]	[s]	[um]	[um]	[um]	[m°]	[m°]	[um]	[uN]	[uN]	[V]	[V]	[V]	[°C]	[uN]	[um]	[N/m]	[°]	[°]	[uN]	[um]	[um]	[um]	[uN]	[N/m]	[um]	[um^2]	[MPa]	[MPa]
274	1.000000	0.002509	7.36774e+06	-52339.1	955.819	-29749.8	0.000000	0.000000	6.002810	-0.060369	NaN	0.000000	0.001672	0.001657	28.081	0.045109	0.001014	44.4884	-99.461	-172.383	-0.106564	0.001215	-1.056460	-1.057754	-0.060369	44.4884	-1.055442	-1.263464E+14	4.778089E-16	NaN
274	1.000000	0.042444	7.36774e+06	-52339.1	955.818	-29749.8	0.000000	0.000000	6.042748	0.011016	NaN	0.000000	0.001596	0.001676	28.0808	0.068938	0.002014	34.2377	114.404	-167.494	-0.078648	0.041125	-1.016524	-1.017844	0.011016	34.2377	-1.016766	-3.814436E+13	-2.887923E-16	NaN
274	1.000000	0.082459	7.36774e+06	-52339.1	955.82	-29749.8	0.000000	0.000000	6.082762	-0.020891	NaN	0.000000	0.001619	0.001653	28.0808	0.090600	0.001945	46.5928	16.0824	-171.855	-0.061505	0.081132	-0.976509	-0.977836	-0.020891	46.5928	-0.976173	-1.083536E+13	1.928052E-15	NaN
274	1.000000	0.122467	7.36774e+06	-52339.1	955.818	-29749.8	0.000000	0.000000	6.122771	0.010657	NaN	0.000000	0.001554	0.001649	28.0798	0.066821	0.001971	33.9047	42.5234	-164.297	0.063834	0.121176	-0.936502	-0.937792	0.010657	33.9047	-0.936737	-3.185063E+12	-3.345874E-15	NaN
274	1.000000	0.162513	7.36774e+06	-52339.1	955.818	-29749.8	0.000000	0.000000	6.162818	0.043001	NaN	0.000000	0.001622	0.001657	28.0796	0.058483	0.002032	28.7784	-112.684	-167.535	0.006847	0.161183	-0.896456	-0.897785	0.043001	28.7784	-0.897576	-9.425723E+11	-4.562134E-14	NaN
274	1.000000	0.202478	7.36774e+06	-52339.1	955.819	-29749.8	0.000000	0.000000	6.202782	0.016262	NaN	0.000000	0.001614	0.001679	28.0795	0.028082	0.001934	14.5233	-144.683	-169.002	-0.047050	0.201217	-0.856490	-0.857752	0.016262	14.5233	-0.857330	-2.691421E+11	-6.042225E-14	NaN
274	1.000000	0.242517	7.36774e+06	-52339.1	955.818	-29749.8	0.000000	0.000000	6.242817	-0.094218	NaN	0.000000	0.001608	0.001724	28.0808	0.076155	0.002004	37.9941	30.9776	-165.139	-0.075704	0.241167	-0.816452	-0.817802	-0.094218	37.9941	-0.814592	-7.093515E+10	1.328222E-12	NaN
274	1.000000	0.282552	7.36774e+06	-52339.1	955.819	-29749.8	0.000000	0.000000	6.282854	-0.053837	NaN	0.000000	0.001643	0.001661	28.081	0.015178	0.002017	7.524814	-147.673	-165.72	-0.066427	0.281203	-0.776416	-0.777765	-0.053837	7.524814	-0.771050	-1.817952E+10	2.961426E-12	NaN
274	1.000000	0.322570	7.36774e+06	-52339.1	955.818	-29749.8	0.000000	0.000000	6.322871	-0.071308	NaN	0.000000	0.001612	0.001684	28.0811	0.068433	0.001936	35.3568	-101.294	-165.357	-0.032844	0.321244	-0.736398	-0.737725	-0.071308	35.3568	-0.734885	-5.853044E+9	1.218305E-11	NaN
274	1.000000	0.362566	7.36774e+06	-52339.1	955.818	-29749.8	0.000000	0.000000	6.362869	-0.004564	NaN	0.000000	0.001648	0.001701	28.0813	0.069750	0.002065	33.7838	159.677	-166.791	-0.017466	0.361263	-0.696403	-0.697706	-0.004564	33.7838	-0.696301	-1.741863E+9	2.620040E-12	NaN
274	1.000000	0.402603	7.36774e+06	-52339.1	955.818	-29749.8	0.000000	0.000000	6.402904	-0.079560	NaN	0.000000	0.001688	0.001688	28.08	0.045414	0.002046	22.1928	132.793	-168.501	-0.032672	0.401291	-0.656365	-0.657677	-0.079560	22.1928	-0.653676	-4.548060E+8	1.749328E-10	NaN
274	1.000000	0.442626	7.36774e+06	-52339.1	955.818	-29749.8	0.000000	0.000000	6.442928	-0.026090	NaN	0.000000	0.001719	0.001661	28.0799	0.051938	0.002055	25.2745	126.913	-167.361	-0.031139	0.441316	-0.616343	-0.617653	-0.026090	25.2745	-0.615569	-1.363667E+8	1.913188E-10	NaN
274	1.000000	0.482617	7.36774e+06	-52339.1	955.818	-29749.8	0.000000	0.000000	6.482920	0.005485	NaN	0.000000	0.001687	0.001589	28.0799	0.054906	0.002028	27.0779	-31.377	-168.665	-0.124905	0.481277	-0.576352	-0.577691	0.005485	27.0779	-0.576504	-3.948775E+7	-1.389062E-10	NaN
274	1.000000	0.522641	7.36774e+06	-52339.1	955.818	-29749.8	0.000000	0.000000	6.522943	-0.031482	NaN	0.000000	0.001656	0.001646	28.0811	0.115423	0.002095	55.1014	-57.0887	-167.273	-0.092173	0.521342	-0.536327	-0.537627	-0.031482	55.1014	-0.535899	-1.082592E+7	2.908024E-9	NaN
274	1.000000	0.562648	7.36774e+06	-52339.1	955.819	-29749.8	0.000000	0.000000	6.562948	-0.092003	NaN	0.000000	0.001626	0.001626	28.0811	0.062571	0.002045	30.5925	-142.101	-165.382	-0.054081	0.561349	-0.496320	-0.497619	-0.092003	30.5925	-0.494065	-2.83252e+06	3.248096E-8	NaN
274	1.000000	0.602666	7.36774e+06	-52339.1	955.819	-29749.8	0.000000	0.000000	6.602966	-0.088313	NaN	0.000000	0.001628	0.001630	28.0813	0.037703	0.002088	18.0582	142.766	-167.862	-0.111416	0.601359	-0.456302	-0.457609	-0.088313	18.0582	-0.452634	-743752	1.187395E-7	NaN
274	1.000000	0.642701	7.36774e+06	-52339.1	955.819	-29749.8	0.000000	0.000000	6.643002	-0.071602	NaN	0.000000	0.001593	0.001632	28.08	0.066157	0.001900	34.8167	117.294	-164.881	-0.104029	0.641352	-0.416267	-0.417616	-0.071602	34.8167	-0.414725	-216545	3.306581E-7	NaN
274	1.000000	0.682703	7.36774e+06	-52339.1	955.819	-29749.8	0.000000	0.000000	6.683002	-0.112312	NaN	0.000000	0.001659	0.001617	28.0798	0.130675	0.002117	61.7289	-66.3144	-161.929	-0.126999	0.681415	-0.376266	-0.377554	-0.112312	61.7289	-0.374901	-58431.7	1.922113E-6	NaN
274	1.000000	0.722727	7.36774e+06	-52339.1	955.819	-29749.8	0.000000	0.000000	6.723028	-0.061021	NaN	0.000000	0.001631	0.001629	28.0797	0.080002	0.001915	41.783	-43.9316	-166.18	-0.014126	0.721444	-0.336242	-0.337524	-0.061021	41.783	-0.335146	-15514.1	3.933274E-6	NaN
274	1.000000	0.762766	7.36774e+06	-52339.1	955.818	-29749.8	0.000000	0.000000	6.763068	-0.026304	NaN	0.000000	0.001601	0.001637	28.0796	0.062172	0.001956	31.79	-17.4178	-166.385	-0.031836	0.761433	-0.296203	-0.297536	-0.026304	31.79	-0.295582	-4043.69	6.504958E-6	NaN
274	1.000000	0.802747	7.36774e+06	-52339.1	955.817	-29749.8	0.000000	0.000000	6.803048	-0.060936	NaN	0.000000	0.001587	0.001624	28.081	0.094120	0.002010	46.8219	166.464	-164.128	-0.030794	0.801504	-0.256221	-0.257464	-0.060936	46.8219	-0.255245	-990.582	6.151510E-5	NaN
274	1.000000	0.842793	7.36774e+06	-52339.1	955.818	-29749.8	0.000000	0.000000	6.843096	-0.006624	NaN	0.000000	0.001643	0.001645	28.0813	0.051141	0.001906	26.8316	-159.201	-168.482	-0.053101	0.841504	-0.216175	-0.217465	-0.006624	26.8316	-0.215990	-239.568	2.764865E-5	NaN
274	1.000000	0.882808	7.36774e+06	-52339.1	955.819	-29749.8	0.000000	0.000000	6.883112	0.004263	NaN	0.000000	0.001656	0.001609	28.0812	0.038316	0.001953	19.6209	74.263	-170.739	-0.055842	0.881522	-0.176160	-0.177447	0.004263	19.6209	-0.176323	-52.8064	-8.073337E-5	NaN
274	1.000000	0.922802	7.36774e+06	-52339.1	955.819	-29749.8	0.000000	0.000000	6.923103	-0.078325	NaN	0.000000	0.001633	0.001617	28.0801	0.095202	0.001998	47.6385	-104.068	-167.996	-0.001269	0.921547	-0.136166	-0.137422	-0.078325	47.6385	-0.134933	-9.484378	0.008258	NaN
274	1.000000	0.962841	7.36774e+06	-52339.1	955.818	-29749.8	0.000000	0.000000	6.963142	-0.057670	NaN	0.000000	0.001593	0.001615	28.0796	0.116704	0.002092	55.782	-38.0173	-168.288	-0.089487	0.961506	-0.096128	-0.097463	-0.057670	55.782	-0.095352	-1.436926	0.040135	NaN
274	1.000000	1.002828	7.36774e+06	-52339.1	955.819	-29749.8	0.000000	0.000000	7.003127	-0.109703	NaN	0.000000	0.001647	0.001628	28.0797	0.022667	0.001947	11.6401	-91.7243	-164.361	-0.056155	1.001523	-0.056140	-0.057445	-0.109703	11.6401	-0.049072	-0.085531	1.282612	NaN
274	1.000000	1.042850	7.36774e+06	-52339.1	955.818	-29749.8	0.000000	0.000000	7.043150	-0.084225	NaN	0.000000	0.001729	0.001655	28.0797	0.060717	0.001972	30.7831	-16.575	-167.475	-0.039880	1.041510	-0.016118	-0.017459	-0.084225	30.7831	-0.014066	-0.008722	9.656554	NaN
274	2.000000	1.071444	7.36774e+06	-52339.1	955.819	-29749.8	0.000000	0.000000	7.072281	12.9478	NaN	0.000000	0.001633	0.001656	28.081	13.6668	0.001842	7418.39	7.275547	-173.783	12.5581	1.071186	0.012476	0.012218	12.9478	7418.39	0.011167	0.010508	1232.24	66119.9
274	2.000000	1.081361	7.36774e+06	-52339.1	955.819	-29749.8	0.000000	0.000000	7.083108	35.09	NaN	0.000000	0.001615	0.001615	28.0812	25.458	0.001897	13417.4	8.183776	178.56	34.3052	1.081111	0.022393	0.022143	35.09	13417.4	0.020431	0.023225	1510.89	80438.7
274	2.000000	1.091313	7.36774e+06	-52339.1	955.819	-29749.8	0.000000	0.000000	7.094191	62.5983	NaN	0.000000	0.001635	0.001659	28.0812	35.9267	0.001908	18829.9	6.771387	176.787	59.9255	1.091081	0.032345	0.032113	62.5983	18829.9	0.029852	0.040437	1548.05	85552.4
274	2.000000	1.101335	7.36774e+06	-52339.1	955.818	-29749.8	0.000000	0.000000	7.105830	101.925	NaN	0.000000	0.001633	0.001646	28.0802	44.5486	0.001755	25389.9	4.123519	177.394	102.678	1.101041	0.042367	0.042072	101.925	25389.9	0.039356	0.062374	1634.1	92882.2
274	2.000000	1.111321	7.36774e+06	-52339.1	955.819	-29749.8	0.000000	0.000000	7.117602	145.347	NaN	0.000000	0.001623	0.001664	28.0801	55.1676	0.001714	32186.8	1.569695	177.67	144.734	1.111019	0.052352	0.052050	145.347	32186.8	0.048965	0.089242	1628.69	98438.8
274	2.000000	1.121310	7.36774e+06	-52339.1	955.82	-29749.8	0.000000	0.000000	7.129974	203.285	NaN	0.000000	0.001651	0.001651	28.08	66.3845	0.001917	34625.2	8.971121	170.76	201.707	1.120931	0.062341	0.061963	203.285	34625.2	0.057938	0.118518	1715.22	91891.1
274	2.000000	1.131247	7.36774e+06	-52339.1	955.82	-29749.8	0.000000	0.000000	7.142328	262.043	NaN	0.000000	0.001624	0.001639	28.0799	76.9314	0.001830	42044	5.013912	172.034	258.676	1.131049	0.072279	0.072081	262.043	42044	0.067604	0.154479	1696.31	97733.3
274	2.000000	1.141302	7.36774e+06	-52339.1	955.819	-29749.8	0.000000	0.000000	7.155619	340.737	NaN	0.000000	0.001673	0.001624	28.0822	86.8979	0.001877	46305.6	4.216708	172.737	338.94	1.140820	0.082333	0.081852	340.737	46305.6	0.076814	0.192907	1766.32	96323.5
274	2.000000	1.151272	7.36774e+06	-52339.1	955.82	-29749.8	0.000000	0.000000	7.168919	421.702	NaN	0.000000	0.001669	0.001658	28.0814	97.3323	0.001815	53631.4	1.910204	173.909	421.636	1.151028	0.092304	0.092060	421.702	53631.4	0.086407	0.237158	1778.15	100617
274	2.000000	1.161358	7.36774e+06	-52339.1	955.821	-29749.8	0.000000	0.000000	7.182043	495.581	NaN	0.000000	0.001685	0.001663	28.0817	107.59	0.001902	56579.8	4.264129	170.674	499.881	1.161213	0.102389	0.102244	495.581	56579.8	0.095820	0.284708	1740.66	96880.1
274	2.000000	1.166201	7.36774e+06	-52339.1	955.82	-29749.8	0.000000	0.000000	7.189778	565.884	NaN	0.000000	0.001680	0.001644	28.0799	110.098	0.001794	61381.4	2.989079	172.274	562.653	1.165781	0.107233	0.106813	565.884	61381.4	0.100319	0.308860	1832.17	100909