Folder: unikorn_login/remote_trans/data/nanoindenter/0828-1/data/Data_2025-08-06,11h17m57s (part 193)

File: 2025-07-22_16-23-58_1_403.txt
2025-07-22, 16:23:58, 1
Index	Phase	Displacement	Time	Pos X	Pos Y	Pos Z	Rot A	Rot B	Piezo Z	Force A	Force B	Gripper	Voltage A	Voltage B	Temperature	Amplitude force	Amplitude pos	Stiffness	Phase shift	Phase excitation	Force A raw	Displacement raw	HMax	HMax raw	Real Force	Real Stiffness	Contact Depth	Area	Hardness	Reduced Mod.
[#]	[#]	[um]	[s]	[um]	[um]	[um]	[m°]	[m°]	[um]	[uN]	[uN]	[V]	[V]	[V]	[°C]	[uN]	[um]	[N/m]	[°]	[°]	[uN]	[um]	[um]	[um]	[uN]	[N/m]	[um]	[um^2]	[MPa]	[MPa]
403	1.000000	0.002263	7.369e+06	-56939.1	1005.82	-29737.9	0.000000	0.000000	6.002823	-0.010806	NaN	0.000000	0.001568	0.001644	28.0805	0.072057	0.000989	72.8602	-108.484	-166.946	-0.004388	0.000974	-1.047861	-1.049150	-0.010806	72.8602	-1.047750	-9.957747E+13	1.085166E-16	NaN
403	1.000000	0.040201	7.369e+06	-56939.1	1005.82	-29737.9	0.000000	0.000000	6.040759	-0.045109	NaN	0.000000	0.001702	0.001618	28.0821	0.040849	0.001961	20.829	78.3778	13.8771	-0.145556	0.038865	-1.009923	-1.011258	-0.045109	20.829	-1.008299	-2.934157E+13	1.537361E-15	NaN
403	1.000000	0.078198	7.369e+06	-56939.1	1005.82	-29737.9	0.000000	0.000000	6.078759	0.007389	NaN	0.000000	0.001613	0.001689	28.0816	0.088377	0.002162	40.8853	108.369	-165.031	0.088330	0.076862	-0.971925	-0.973262	0.007389	40.8853	-0.972061	-9.537574E+12	-7.746935E-16	NaN
403	1.000000	0.116202	7.369e+06	-56939.1	1005.82	-29737.9	0.000000	0.000000	6.116763	0.027560	NaN	0.000000	0.001561	0.001697	28.0816	0.063889	0.002033	31.4197	44.9407	12.2283	0.089885	0.114814	-0.933922	-0.935310	0.027560	31.4197	-0.934580	-2.978525E+12	-9.253050E-15	NaN
403	1.000000	0.154238	7.369e+06	-56939.1	1005.82	-29737.9	0.000000	0.000000	6.154796	-0.034217	NaN	0.000000	0.001617	0.001680	28.0812	0.049956	0.002003	24.9438	-53.6063	-165.375	0.024696	0.152903	-0.895886	-0.897220	-0.034217	24.9438	-0.894857	-8.661020E+11	3.950688E-14	NaN
403	1.000000	0.192244	7.369e+06	-56939.1	1005.82	-29737.9	0.000000	0.000000	6.192803	-0.044159	NaN	0.000000	0.001601	0.001689	28.0804	0.108837	0.002078	52.3672	-166.413	16.9303	-0.028656	0.190867	-0.857879	-0.859257	-0.044159	52.3672	-0.857247	-2.684442E+11	1.645000E-13	NaN
403	1.000000	0.230256	7.369e+06	-56939.1	1005.82	-29737.9	0.000000	0.000000	6.230816	-0.015637	NaN	0.000000	0.001610	0.001715	28.0803	0.144904	0.001994	72.6797	-142.434	-163.472	-0.036906	0.228971	-0.819867	-0.821153	-0.015637	72.6797	-0.819706	-8.321919E+10	1.879041E-13	NaN
403	1.000000	0.268306	7.369e+06	-56939.1	1005.82	-29737.9	0.000000	0.000000	6.268864	-0.034934	NaN	0.000000	0.001604	0.001736	28.0803	0.042304	0.001963	21.5516	-36.7787	14.1436	-0.007978	0.266908	-0.781818	-0.783216	-0.034934	21.5516	-0.780602	-2.451412E+10	1.425060E-12	NaN
403	1.000000	0.306290	7.369e+06	-56939.1	1005.82	-29737.9	0.000000	0.000000	6.306848	-0.038890	NaN	0.000000	0.001619	0.001700	28.0814	0.099153	0.001959	50.6048	-25.4017	-161.912	-0.052631	0.305040	-0.743834	-0.745084	-0.038890	50.6048	-0.743258	-7.610708E+9	5.109869E-12	NaN
403	1.000000	0.344339	7.369e+06	-56939.1	1005.82	-29737.9	0.000000	0.000000	6.344897	-0.041112	NaN	0.000000	0.001619	0.001647	28.0817	0.069481	0.001998	34.7677	132.179	13.0637	-0.054878	0.343035	-0.705785	-0.707089	-0.041112	34.7677	-0.704898	-2.282497E+9	1.801184E-11	NaN
403	1.000000	0.382318	7.369e+06	-56939.1	1005.82	-29737.9	0.000000	0.000000	6.382883	0.127548	NaN	0.000000	0.001604	0.001670	28.0814	0.038126	0.002004	19.0229	-1.049341	-162.882	0.041958	0.381041	-0.667806	-0.669083	0.127548	19.0229	-0.672835	-8.321123E+8	-1.532818E-10	NaN
403	1.000000	0.420325	7.369e+06	-56939.1	1005.82	-29737.9	0.000000	0.000000	6.420883	-0.063813	NaN	0.000000	0.001565	0.001672	28.0814	0.084888	0.002145	39.5727	164.055	16.6412	-0.068464	0.418991	-0.629798	-0.631133	-0.063813	39.5727	-0.628589	-2.058938E+8	3.099330E-10	NaN
403	1.000000	0.458360	7.369e+06	-56939.1	1005.82	-29737.9	0.000000	0.000000	6.458916	-0.077365	NaN	0.000000	0.001601	0.001679	28.0802	0.092844	0.002052	45.2487	2.578664	-164.666	-0.095067	0.457075	-0.591764	-0.593049	-0.077365	45.2487	-0.590482	-6.156145E+7	1.256706E-9	NaN
403	1.000000	0.496377	7.369e+06	-56939.1	1005.82	-29737.9	0.000000	0.000000	6.496937	0.004152	NaN	0.000000	0.001597	0.001666	28.0809	0.075432	0.002063	36.5729	173.146	8.941905	0.070366	0.495007	-0.553747	-0.555117	0.004152	36.5729	-0.553832	-1.918755E+7	-2.163697E-10	NaN
403	1.000000	0.534392	7.369e+06	-56939.1	1005.82	-29737.9	0.000000	0.000000	6.534952	-0.018001	NaN	0.000000	0.001602	0.001688	28.0805	0.109155	0.001920	56.8447	-155.422	-166.251	-0.052041	0.533051	-0.515731	-0.517072	-0.018001	56.8447	-0.515494	-5.63515e+06	3.194377E-9	NaN
403	1.000000	0.572399	7.36901e+06	-56939.1	1005.82	-29737.9	0.000000	0.000000	6.572956	-0.075786	NaN	0.000000	0.001612	0.001693	28.08	0.025923	0.001983	13.0736	-78.5428	14.9384	-0.069967	0.571082	-0.477724	-0.479042	-0.075786	13.0736	-0.473377	-1.45463e+06	5.209976E-8	NaN
403	1.000000	0.610422	7.36901e+06	-56939.1	1005.82	-29737.9	0.000000	0.000000	6.610983	0.026602	NaN	0.000000	0.001632	0.001712	28.0813	0.065039	0.001938	33.5565	117.16	-164.956	0.008563	0.609155	-0.439702	-0.440969	0.026602	33.5565	-0.440296	-498364	-5.337924E-8	NaN
403	1.000000	0.648449	7.36901e+06	-56939.1	1005.82	-29737.9	0.000000	0.000000	6.649005	-0.078303	NaN	0.000000	0.001595	0.001699	28.0812	0.069948	0.002230	31.366	-110.85	13.0707	-0.035088	0.647088	-0.401675	-0.403036	-0.078303	31.366	-0.399803	-132795	5.896486E-7	NaN
403	1.000000	0.686434	7.36901e+06	-56939.1	1005.82	-29737.9	0.000000	0.000000	6.686992	-0.062552	NaN	0.000000	0.001643	0.001718	28.0813	0.052845	0.001941	27.219	-39.3774	-163.472	-0.008911	0.685067	-0.363689	-0.365056	-0.062552	27.219	-0.361966	-38040.7	1.644340E-6	NaN
403	1.000000	0.724476	7.36901e+06	-56939.1	1005.82	-29737.9	0.000000	0.000000	6.725037	0.010413	NaN	0.000000	0.001603	0.001707	28.0801	0.055440	0.001984	27.9376	135.198	14.9941	-0.026219	0.723111	-0.325648	-0.327013	0.010413	27.9376	-0.325927	-11369.6	-9.158620E-7	NaN
403	1.000000	0.762495	7.36901e+06	-56939.1	1005.82	-29737.9	0.000000	0.000000	6.763054	-0.007748	NaN	0.000000	0.001640	0.001668	28.08	0.025655	0.001862	13.7767	-136.369	-167.238	-0.119850	0.761169	-0.287629	-0.288955	-0.007748	13.7767	-0.287207	-3029.86	2.557144E-6	NaN
403	1.000000	0.800536	7.36901e+06	-56939.1	1005.82	-29737.9	0.000000	0.000000	6.801095	-0.012806	NaN	0.000000	0.001680	0.001731	28.0798	0.073632	0.001960	37.5758	8.935826	14.6054	0.022010	0.799178	-0.249588	-0.250945	-0.012806	37.5758	-0.249332	-802.85	1.595032E-5	NaN
403	1.000000	0.838497	7.36901e+06	-56939.1	1005.82	-29737.9	0.000000	0.000000	6.839055	-0.039059	NaN	0.000000	0.001663	0.001697	28.0801	0.120253	0.002052	58.5929	177.158	-165.767	-0.081201	0.837215	-0.211627	-0.212909	-0.039059	58.5929	-0.211127	-200.012	0.000195	NaN
403	1.000000	0.876524	7.36901e+06	-56939.1	1005.82	-29737.9	0.000000	0.000000	6.877082	-0.053053	NaN	0.000000	0.001577	0.001730	28.0814	0.101292	0.002045	49.5293	20.3356	14.4445	-0.009882	0.875192	-0.173600	-0.174932	-0.053053	49.5293	-0.172796	-45.9227	0.001155	NaN
403	1.000000	0.914553	7.36901e+06	-56939.1	1005.82	-29737.9	0.000000	0.000000	6.915111	-0.061233	NaN	0.000000	0.001576	0.001715	28.0818	0.049447	0.001997	24.7653	109.373	-164.367	-0.025674	0.913237	-0.135571	-0.136886	-0.061233	24.7653	-0.133716	-8.989384	0.006812	NaN
403	1.000000	0.952539	7.36901e+06	-56939.1	1005.82	-29737.9	0.000000	0.000000	6.953098	-0.026408	NaN	0.000000	0.001589	0.001706	28.0814	0.107743	0.002114	50.9721	-168.738	14.7858	-0.027916	0.951259	-0.097585	-0.098865	-0.026408	50.9721	-0.097196	-1.581795	0.016695	NaN
403	1.000000	0.990585	7.36901e+06	-56939.1	1005.82	-29737.9	0.000000	0.000000	6.991197	1.258629	NaN	0.000000	0.001596	0.001654	28.0802	1.445159	0.001993	725.123	8.346505	-166.792	0.823480	0.989307	-0.059539	-0.060817	1.258629	725.123	-0.060841	-0.190348	-6.612251	NaN
403	2.000000	1.009505	7.36901e+06	-56939.1	1005.82	-29737.9	0.000000	0.000000	7.010672	14.7465	NaN	0.000000	0.001617	0.001664	28.0802	3.769263	0.002015	1870.59	7.484755	11.6667	14.3272	1.009184	-0.040619	-0.040940	14.7465	1870.59	-0.046531	-0.071578	-206.019	NaN
403	2.000000	1.018997	7.36901e+06	-56939.1	1005.82	-29737.9	0.000000	0.000000	7.020403	20.5584	NaN	0.000000	0.001627	0.001686	28.0805	4.607250	0.001987	2318.57	7.011132	-168.459	20.5026	1.018677	-0.031126	-0.031447	20.5584	2318.57	-0.037776	-0.038739	-530.695	NaN
403	2.000000	1.028504	7.36901e+06	-56939.1	1005.82	-29737.9	0.000000	0.000000	7.029081	0.421330	NaN	0.000000	0.001651	0.001681	28.0803	0.670808	0.001974	339.848	31.2102	14.4882	0.372975	1.028144	-0.021620	-0.021979	0.421330	339.848	-0.022550	-0.014585	-28.8886	NaN
403	2.000000	1.037953	7.36901e+06	-56939.1	1005.82	-29737.9	0.000000	0.000000	7.038537	0.580870	NaN	0.000000	0.001557	0.001680	28.0817	0.989629	0.002106	469.902	23.8608	-163.423	0.588873	1.037631	-0.012171	-0.012493	0.580870	469.902	-0.013098	-0.008159	-71.1957	NaN
403	2.000000	1.047455	7.36901e+06	-56939.1	1005.82	-29737.9	0.000000	0.000000	7.048068	1.291781	NaN	0.000000	0.001546	0.001640	28.0818	1.746407	0.002032	859.256	25.1428	12.1834	1.297872	1.047114	-0.002669	-0.003010	1.291781	859.256	-0.003796	-0.002647	-488.098	NaN
403	2.000000	1.056975	7.36901e+06	-56939.1	1005.82	-29737.9	0.000000	0.000000	7.057603	1.638886	NaN	0.000000	0.001530	0.001661	28.0816	2.467412	0.002033	1213.79	20.9901	-168.089	1.689644	1.056691	0.006852	0.006567	1.638886	1213.79	0.005839	0.004912	333.64	15822.7
403	2.000000	1.066420	7.36901e+06	-56939.1	1005.82	-29737.9	0.000000	0.000000	7.067087	2.581908	NaN	0.000000	0.001583	0.001673	28.0819	3.496792	0.001986	1760.99	19.5259	11.5194	2.448240	1.066023	0.016297	0.015900	2.581908	1760.99	0.015197	0.015549	166.051	12902.7
403	2.000000	1.075901	7.36901e+06	-56939.1	1005.82	-29737.9	0.000000	0.000000	7.076626	4.013150	NaN	0.000000	0.001606	0.001684	28.0805	5.457593	0.002061	2647.47	22.2402	-172.852	4.059502	1.075630	0.025777	0.025506	4.013150	2647.47	0.024640	0.030365	132.164	13880.9
403	2.000000	1.085385	7.36901e+06	-56939.1	1005.82	-29737.9	0.000000	0.000000	7.086364	10.181	NaN	0.000000	0.001631	0.001672	28.0806	11.7473	0.001820	6456.16	15.7966	3.755498	9.079032	1.085003	0.035261	0.034879	10.181	6456.16	0.034078	0.049622	205.171	26479.6
403	2.000000	1.094901	7.36901e+06	-56939.1	1005.82	-29737.9	0.000000	0.000000	7.097197	42.1968	NaN	0.000000	0.001610	0.001699	28.0805	21.7795	0.001709	12744.2	6.332431	-177.706	42.0702	1.094573	0.044777	0.044449	42.1968	12744.2	0.042294	0.070090	602.037	43980.4
403	2.000000	1.101331	7.36901e+06	-56939.1	1005.82	-29737.9	0.000000	0.000000	7.105136	78.8765	NaN	0.000000	0.001611	0.001638	28.0806	27.9769	0.001805	15498.2	4.342708	2.813622	74.9036	1.101028	0.051207	0.050904	78.8765	15498.2	0.047390	0.084516	933.271	48706.2

File: 2025-07-22_16-23-58_1_404.txt
2025-07-22, 16:23:58, 1
Index	Phase	Displacement	Time	Pos X	Pos Y	Pos Z	Rot A	Rot B	Piezo Z	Force A	Force B	Gripper	Voltage A	Voltage B	Temperature	Amplitude force	Amplitude pos	Stiffness	Phase shift	Phase excitation	Force A raw	Displacement raw	HMax	HMax raw	Real Force	Real Stiffness	Contact Depth	Area	Hardness	Reduced Mod.
[#]	[#]	[um]	[s]	[um]	[um]	[um]	[m°]	[m°]	[um]	[uN]	[uN]	[V]	[V]	[V]	[°C]	[uN]	[um]	[N/m]	[°]	[°]	[uN]	[um]	[um]	[um]	[uN]	[N/m]	[um]	[um^2]	[MPa]	[MPa]
404	1.000000	0.002021	7.36901e+06	-56889.1	1005.82	-29738	0.000000	0.000000	6.002816	0.026362	NaN	0.000000	0.001601	0.001680	28.0806	0.202560	0.000920	220.204	-0.069010	-162.496	0.010523	0.000770	-1.160499	-1.161750	0.026362	220.204	-1.160589	-3.256596E+15	-8.095079E-18	NaN
404	1.000000	0.043946	7.36901e+06	-56889.1	1005.82	-29738	0.000000	0.000000	6.044740	-0.017698	NaN	0.000000	0.001666	0.001732	28.0801	0.077418	0.002018	38.3638	-116.886	11.4629	0.007556	0.042649	-1.118574	-1.119871	-0.017698	38.3638	-1.118228	-8.804374E+14	2.010113E-17	NaN
404	1.000000	0.085990	7.36901e+06	-56889.1	1005.82	-29738	0.000000	0.000000	6.086782	-0.047597	NaN	0.000000	0.001681	0.001700	28.0815	0.114298	0.001998	57.1942	-115.586	-166.708	-0.086597	0.084690	-1.076531	-1.077830	-0.047597	57.1942	-1.075907	-2.379781E+14	2.000069E-16	NaN
404	1.000000	0.127976	7.36901e+06	-56889.1	1005.82	-29738	0.000000	0.000000	6.128770	-0.007096	NaN	0.000000	0.001566	0.001733	28.0815	0.044682	0.002018	22.1404	-53.7716	11.294	0.006344	0.126612	-1.034544	-1.035909	-0.007096	22.1404	-1.034304	-6.567025E+13	1.080603E-16	NaN
404	1.000000	0.170013	7.36901e+06	-56889.1	1005.82	-29738	0.000000	0.000000	6.170807	0.000854	NaN	0.000000	0.001606	0.001696	28.0815	0.146638	0.002025	72.4235	-98.5816	-165.192	0.126345	0.168744	-0.992507	-0.993777	0.000854	72.4235	-0.992516	-1.798866E+13	-4.746269E-17	NaN
404	1.000000	0.212023	7.36901e+06	-56889.1	1005.82	-29738	0.000000	0.000000	6.212815	-0.050051	NaN	0.000000	0.001610	0.001705	28.0813	0.051795	0.001874	27.6463	132.663	15.0074	0.060491	0.210720	-0.950498	-0.951801	-0.050051	27.6463	-0.949140	-4.681962E+12	1.069026E-14	NaN
404	1.000000	0.254036	7.36901e+06	-56889.1	1005.82	-29738	0.000000	0.000000	6.254829	-0.035909	NaN	0.000000	0.001568	0.001693	28.0802	0.118299	0.002017	58.6645	152.808	-164.84	-0.005950	0.252712	-0.908484	-0.909808	-0.035909	58.6645	-0.908025	-1.304629E+12	2.752397E-14	NaN
404	1.000000	0.296054	7.36901e+06	-56889.1	1005.82	-29738	0.000000	0.000000	6.296847	-0.050170	NaN	0.000000	0.001607	0.001706	28.0804	0.156922	0.001994	78.7106	153.651	12.8037	-0.086907	0.294685	-0.866466	-0.867835	-0.050170	78.7106	-0.865988	-3.524985E+11	1.423257E-13	NaN
404	1.000000	0.338087	7.36901e+06	-56889.1	1005.82	-29738	0.000000	0.000000	6.338881	-0.008076	NaN	0.000000	0.001617	0.001673	28.0804	0.073093	0.001977	36.9725	-63.6863	-165.909	0.139897	0.336795	-0.824433	-0.825725	-0.008076	36.9725	-0.824269	-9.596256E+10	8.415501E-14	NaN
404	1.000000	0.380088	7.36901e+06	-56889.1	1005.82	-29738	0.000000	0.000000	6.380881	-0.023869	NaN	0.000000	0.001627	0.001682	28.0817	0.055781	0.002007	27.7963	166.862	16.3813	-0.071771	0.378758	-0.782433	-0.783763	-0.023869	27.7963	-0.781789	-2.544110E+10	9.382013E-13	NaN
404	1.000000	0.422122	7.36901e+06	-56889.1	1005.82	-29738	0.000000	0.000000	6.422915	-0.050894	NaN	0.000000	0.001692	0.001745	28.0816	0.051622	0.002031	25.4159	74.8343	-167.005	-0.053248	0.420772	-0.740398	-0.741748	-0.050894	25.4159	-0.738896	-6.637709E+9	7.667437E-12	NaN
404	1.000000	0.464148	7.36901e+06	-56889.1	1005.82	-29738	0.000000	0.000000	6.464938	-0.085683	NaN	0.000000	0.001581	0.001758	28.0817	0.059883	0.002108	28.4141	-30.3161	18.6339	-0.030556	0.462761	-0.698373	-0.699759	-0.085683	28.4141	-0.696111	-1.731471E+9	4.948575E-11	NaN
404	1.000000	0.506137	7.36901e+06	-56889.1	1005.82	-29738	0.000000	0.000000	6.506929	-0.048528	NaN	0.000000	0.001605	0.001745	28.0803	0.063145	0.002038	30.9806	165.342	-165.257	-0.023220	0.504880	-0.656383	-0.657640	-0.048528	30.9806	-0.655208	-4.773353E+8	1.016642E-10	NaN
404	1.000000	0.548153	7.36901e+06	-56889.1	1005.82	-29738	0.000000	0.000000	6.548947	0.005959	NaN	0.000000	0.001635	0.001723	28.0804	0.110497	0.001946	56.7723	-155.39	18.4718	0.050582	0.546834	-0.614368	-0.615687	0.005959	56.7723	-0.614446	-1.316063E+8	-4.527858E-11	NaN
404	1.000000	0.590208	7.36901e+06	-56889.1	1005.82	-29738	0.000000	0.000000	6.591004	0.029038	NaN	0.000000	0.001658	0.001752	28.0805	0.063924	0.001971	32.4339	-164.568	-163.966	-0.074858	0.588834	-0.572312	-0.573686	0.029038	32.4339	-0.572984	-3.530622E+7	-8.224579E-10	NaN
404	1.000000	0.632217	7.36901e+06	-56889.1	1005.82	-29738	0.000000	0.000000	6.633011	-0.026452	NaN	0.000000	0.001618	0.001722	28.0821	0.076009	0.002024	37.5543	-129.016	15.222	0.012693	0.630836	-0.530303	-0.531685	-0.026452	37.5543	-0.529775	-8.9011e+06	2.971770E-9	NaN
404	1.000000	0.674215	7.36901e+06	-56889.1	1005.82	-29738	0.000000	0.000000	6.675009	-0.008408	NaN	0.000000	0.001575	0.001690	28.0819	0.068880	0.001960	35.1436	-54.9154	-164.039	-0.044955	0.672927	-0.488305	-0.489593	-0.008408	35.1436	-0.488126	-2.33991e+06	3.593492E-9	NaN
404	1.000000	0.716222	7.36902e+06	-56889.1	1005.82	-29738	0.000000	0.000000	6.717014	-0.059479	NaN	0.000000	0.001583	0.001702	28.0822	0.047846	0.002030	23.5674	-69.2746	15.3947	-0.079944	0.714876	-0.446298	-0.447644	-0.059479	23.5674	-0.444406	-569525	1.044363E-7	NaN
404	1.000000	0.758274	7.36902e+06	-56889.1	1005.82	-29738	0.000000	0.000000	6.759065	-0.066306	NaN	0.000000	0.001656	0.001742	28.0822	0.098781	0.001942	50.8605	84.1124	-164.59	-0.094090	0.756914	-0.404246	-0.405607	-0.066306	50.8605	-0.403269	-148794	4.456192E-7	NaN
404	1.000000	0.800268	7.36902e+06	-56889.1	1005.82	-29738	0.000000	0.000000	6.801062	-0.012845	NaN	0.000000	0.001709	0.001713	28.0808	0.139662	0.001978	70.6112	175.103	15.7945	-0.004228	0.798918	-0.362252	-0.363602	-0.012845	70.6112	-0.362116	-38231.5	3.359756E-7	NaN
404	1.000000	0.842273	7.36902e+06	-56889.1	1005.82	-29738	0.000000	0.000000	6.843066	-0.027160	NaN	0.000000	0.001648	0.001653	28.0807	0.064362	0.001864	34.528	136.708	-163.317	-0.023741	0.840914	-0.320247	-0.321606	-0.027160	34.528	-0.319657	-9195.81	2.953505E-6	NaN
404	1.000000	0.884303	7.36902e+06	-56889.1	1005.82	-29738	0.000000	0.000000	6.885096	-0.017602	NaN	0.000000	0.001665	0.001679	28.0806	0.065281	0.001962	33.2777	92.1087	15.9195	0.042207	0.882944	-0.278218	-0.279577	-0.017602	33.2777	-0.277821	-2188.12	8.044419E-6	NaN
404	1.000000	0.926334	7.36902e+06	-56889.1	1005.82	-29738	0.000000	0.000000	6.927127	-0.030000	NaN	0.000000	0.001730	0.001681	28.0818	0.021741	0.001969	11.0433	110.255	-166.425	-0.069006	0.924953	-0.236186	-0.237568	-0.030000	11.0433	-0.234149	-465.448	6.445442E-5	NaN
404	1.000000	0.968325	7.36902e+06	-56889.1	1005.82	-29738	0.000000	0.000000	6.969118	-0.019562	NaN	0.000000	0.001645	0.001687	28.082	0.101767	0.001961	51.9002	42.3486	13.8246	-0.031294	0.966958	-0.194196	-0.195562	-0.019562	51.9002	-0.193913	-104.515	0.000187	NaN
404	1.000000	1.010335	7.36902e+06	-56889.1	1005.82	-29738	0.000000	0.000000	7.011131	0.039047	NaN	0.000000	0.001617	0.001603	28.082	0.055049	0.001976	27.861	98.9109	-161.6	0.077478	1.009008	-0.152186	-0.153512	0.039047	27.861	-0.153237	-20.7384	-0.001883	NaN
404	1.000000	1.052335	7.36902e+06	-56889.1	1005.82	-29738	0.000000	0.000000	7.053129	-0.015833	NaN	0.000000	0.001626	0.001584	28.0812	0.069451	0.002109	32.9292	9.130022	14.4636	-0.102775	1.050949	-0.110185	-0.111571	-0.015833	32.9292	-0.109824	-2.979655	0.005314	NaN
404	1.000000	1.094408	7.36902e+06	-56889.1	1005.82	-29738	0.000000	0.000000	7.095201	-0.028555	NaN	0.000000	0.001613	0.001626	28.0806	0.085801	0.002086	41.1245	163.678	-168.07	-0.047663	1.093083	-0.068113	-0.069437	-0.028555	41.1245	-0.067592	-0.293650	0.097242	NaN
404	1.000000	1.136409	7.36902e+06	-56889.1	1005.82	-29738	0.000000	0.000000	7.137203	-0.016128	NaN	0.000000	0.001573	0.001592	28.0807	0.053858	0.002003	26.8883	-18.6708	15.5795	-0.038033	1.135044	-0.026111	-0.027476	-0.016128	26.8883	-0.025661	-0.017558	0.918590	NaN
404	2.000000	1.172078	7.36902e+06	-56889.1	1005.82	-29738	0.000000	0.000000	7.173385	12.4587	NaN	0.000000	0.001602	0.001661	28.0817	10.325	0.001624	6357.83	2.934666	-170.077	12.1235	1.171729	0.009558	0.009209	12.4587	6357.83	0.008088	0.007133	1746.63	68777.5
404	2.000000	1.182473	7.36902e+06	-56889.1	1005.82	-29738	0.000000	0.000000	7.184967	41.3048	NaN	0.000000	0.001674	0.001708	28.0819	21.9118	0.001780	12311.5	7.443023	2.156374	40.8421	1.182096	0.019953	0.019576	41.3048	12311.5	0.017437	0.018674	2211.94	82313.5
404	2.000000	1.192882	7.36902e+06	-56889.1	1005.82	-29738	0.000000	0.000000	7.196709	73.7037	NaN	0.000000	0.001714	0.001686	28.0818	30.5183	0.001796	16995.4	1.662616	-175.485	72.1555	1.192617	0.030362	0.030097	73.7037	16995.4	0.027110	0.034966	2107.9	83039.5
404	2.000000	1.203431	7.36902e+06	-56889.1	1005.82	-29738	0.000000	0.000000	7.208738	109.684	NaN	0.000000	0.001697	0.001698	28.082	39.7389	0.001740	22837.9	3.655991	-0.255144	107.478	1.203156	0.040910	0.040635	109.684	22837.9	0.037308	0.057257	1915.64	87199.6
404	2.000000	1.213909	7.36902e+06	-56889.1	1005.82	-29738	0.000000	0.000000	7.221110	155.708	NaN	0.000000	0.001710	0.001736	28.0808	51.4349	0.001873	27455.7	5.995419	176.23	152.376	1.213529	0.051389	0.051008	155.708	27455.7	0.047135	0.083765	1858.87	86671.2
404	2.000000	1.224484	7.36902e+06	-56889.1	1005.82	-29738	0.000000	0.000000	7.233929	210.256	NaN	0.000000	0.001702	0.001721	28.0804	60.4783	0.001803	33535.2	5.330201	-4.837570	213.019	1.224174	0.061964	0.061654	210.256	33535.2	0.057262	0.116173	1809.85	89892.1
404	2.000000	1.234859	7.36902e+06	-56889.1	1005.82	-29738	0.000000	0.000000	7.246630	266.796	NaN	0.000000	0.001692	0.001676	28.0807	71.2614	0.001801	39567.2	6.536728	171.984	263.934	1.234592	0.072339	0.072072	266.796	39567.2	0.067282	0.153206	1741.42	92357.3
404	2.000000	1.245318	7.36902e+06	-56889.1	1005.82	-29738	0.000000	0.000000	7.259984	337.18	NaN	0.000000	0.001688	0.001667	28.0821	78.9898	0.001766	44721.3	3.168320	-5.187697	331.893	1.244973	0.082797	0.082452	337.18	44721.3	0.077143	0.194351	1734.9	92681.7
404	2.000000	1.255821	7.36902e+06	-56889.1	1005.82	-29738	0.000000	0.000000	7.273492	410.185	NaN	0.000000	0.001686	0.001705	28.082	87.6639	0.001781	49225.5	0.660277	177.04	406.884	1.255541	0.093301	0.093021	410.185	49225.5	0.087051	0.240284	1707.08	91748.8
404	2.000000	1.266315	7.36902e+06	-56889.1	1005.82	-29738	0.000000	0.000000	7.287358	492.159	NaN	0.000000	0.001653	0.001667	28.0822	98.4371	0.001838	53562.2	5.122161	-8.280102	488.051	1.266002	0.103795	0.103481	492.159	53562.2	0.096903	0.290439	1694.54	90804
404	2.000000	1.268371	7.36902e+06	-56889.1	1005.82	-29738	0.000000	0.000000	7.290005	506.524	NaN	0.000000	0.001645	0.001701	28.0821	99.5277	0.001710	58204.7	2.155124	-5.805565	505.724	1.267999	0.105850	0.105479	506.524	58204.7	0.099323	0.303438	1669.28	96537.6