Folder: unikorn_login/remote_trans/data/nanoindenter/0828-1/data/Data_2025-08-06,11h17m57s (part 74)

File: 2025-07-22_16-23-58_1_165.txt
2025-07-22, 16:23:58, 1
Index	Phase	Displacement	Time	Pos X	Pos Y	Pos Z	Rot A	Rot B	Piezo Z	Force A	Force B	Gripper	Voltage A	Voltage B	Temperature	Amplitude force	Amplitude pos	Stiffness	Phase shift	Phase excitation	Force A raw	Displacement raw	HMax	HMax raw	Real Force	Real Stiffness	Contact Depth	Area	Hardness	Reduced Mod.
[#]	[#]	[um]	[s]	[um]	[um]	[um]	[m°]	[m°]	[um]	[uN]	[uN]	[V]	[V]	[V]	[°C]	[uN]	[um]	[N/m]	[°]	[°]	[uN]	[um]	[um]	[um]	[uN]	[N/m]	[um]	[um^2]	[MPa]	[MPa]
165	1.000000	0.002234	7.36665e+06	-46889.1	955.819	-29768.2	0.000000	0.000000	6.002794	0.016461	NaN	0.000000	0.001634	0.001623	28.1061	0.080182	0.000956	83.9152	-72.4558	-164.52	-0.004778	0.000966	-1.040641	-1.041908	0.016461	83.9152	-1.040788	-8.027167E+13	-2.050721E-16	NaN
165	1.000000	0.042191	7.36665e+06	-46889.1	955.819	-29768.2	0.000000	0.000000	6.042752	0.013475	NaN	0.000000	0.001594	0.001689	28.1052	0.022667	0.001977	11.4648	-9.690583	-164.657	0.030629	0.040902	-1.000683	-1.001972	0.013475	11.4648	-1.001565	-2.381406E+13	-5.658577E-16	NaN
165	1.000000	0.082177	7.36665e+06	-46889.1	955.819	-29768.2	0.000000	0.000000	6.082738	0.015771	NaN	0.000000	0.001617	0.001682	28.1035	0.065131	0.002137	30.4729	-82.3131	-167.266	-0.037806	0.080870	-0.960697	-0.962004	0.015771	30.4729	-0.961085	-6.784265E+12	-2.324606E-15	NaN
165	1.000000	0.122224	7.36665e+06	-46889.1	955.819	-29768.2	0.000000	0.000000	6.122785	0.014354	NaN	0.000000	0.001578	0.001722	28.1042	0.028232	0.002003	14.0972	72.6611	-165.908	-0.053191	0.120866	-0.920650	-0.922009	0.014354	14.0972	-0.921414	-1.978320E+12	-7.255708E-15	NaN
165	1.000000	0.162211	7.36665e+06	-46889.1	955.818	-29768.2	0.000000	0.000000	6.162772	0.007257	NaN	0.000000	0.001614	0.001685	28.1031	0.145151	0.002010	72.2202	-178.47	-162.9	-0.027651	0.160922	-0.880663	-0.881952	0.007257	72.2202	-0.880739	-5.580789E+11	-1.300394E-14	NaN
165	1.000000	0.202252	7.36665e+06	-46889.1	955.819	-29768.2	0.000000	0.000000	6.202809	-0.065686	NaN	0.000000	0.001630	0.001700	28.1053	0.100502	0.001990	50.508	176.544	-165.499	-0.012294	0.200967	-0.840623	-0.841907	-0.065686	50.508	-0.839647	-1.550651E+11	4.236013E-13	NaN
165	1.000000	0.242279	7.36665e+06	-46889.1	955.819	-29768.2	0.000000	0.000000	6.242841	0.039796	NaN	0.000000	0.001635	0.001659	28.1046	0.006713	0.002152	3.119724	-8.693170	-164.96	0.018214	0.240957	-0.800595	-0.801917	0.039796	3.119724	-0.810162	-6.176914E+10	-6.442712E-13	NaN
165	1.000000	0.282262	7.36665e+06	-46889.1	955.818	-29768.2	0.000000	0.000000	6.282825	0.071351	NaN	0.000000	0.001678	0.001657	28.1047	0.082979	0.002075	39.9869	-19.4046	-164.491	0.023520	0.280969	-0.760613	-0.761905	0.071351	39.9869	-0.761951	-1.367229E+10	-5.218690E-12	NaN
165	1.000000	0.322274	7.36665e+06	-46889.1	955.819	-29768.2	0.000000	0.000000	6.322834	0.009264	NaN	0.000000	0.001600	0.001636	28.1017	0.105154	0.002104	49.9803	-86.4818	-164.561	0.016759	0.321034	-0.720601	-0.721841	0.009264	49.9803	-0.720740	-3.754572E+9	-2.467427E-12	NaN
165	1.000000	0.362319	7.36665e+06	-46889.1	955.819	-29768.2	0.000000	0.000000	6.362877	-0.049339	NaN	0.000000	0.001577	0.001730	28.1032	0.021863	0.001976	11.0648	-149.874	-167.446	-0.003324	0.360980	-0.680556	-0.681894	-0.049339	11.0648	-0.677211	-9.551261E+8	5.165749E-11	NaN
165	1.000000	0.402339	7.36665e+06	-46889.1	955.819	-29768.2	0.000000	0.000000	6.402899	0.008924	NaN	0.000000	0.001505	0.001677	28.102	0.091362	0.002030	44.9987	-35.8401	-163.393	0.079588	0.401029	-0.640536	-0.641845	0.008924	44.9987	-0.640685	-3.017747E+8	-2.957072E-11	NaN
165	1.000000	0.442347	7.36665e+06	-46889.1	955.819	-29768.2	0.000000	0.000000	6.442909	0.050338	NaN	0.000000	0.001587	0.001721	28.1042	0.058653	0.002055	28.5485	-179.004	-164.147	-0.041573	0.441073	-0.600528	-0.601802	0.050338	28.5485	-0.601850	-8.829612E+7	-5.701028E-10	NaN
165	1.000000	0.482357	7.36665e+06	-46889.1	955.819	-29768.2	0.000000	0.000000	6.482918	0.024600	NaN	0.000000	0.001619	0.001704	28.1035	0.084362	0.002067	40.811	-121.588	-163.768	0.058200	0.481008	-0.560518	-0.561866	0.024600	40.811	-0.560970	-2.408759E+7	-1.021269E-9	NaN
165	1.000000	0.522405	7.36665e+06	-46889.1	955.819	-29768.2	0.000000	0.000000	6.522966	0.000185	NaN	0.000000	0.001656	0.001711	28.1033	0.087771	0.002009	43.6814	-87.0473	-162.788	0.044759	0.521120	-0.520469	-0.521754	0.000185	43.6814	-0.520472	-6.60943e+06	-2.792418E-11	NaN
165	1.000000	0.562403	7.36665e+06	-46889.1	955.819	-29768.2	0.000000	0.000000	6.562962	-0.032473	NaN	0.000000	0.001677	0.001705	28.1022	0.111872	0.002026	55.2146	-155.782	-164.177	0.015978	0.561125	-0.480471	-0.481750	-0.032473	55.2146	-0.480030	-1.80281e+06	1.801218E-8	NaN
165	1.000000	0.602434	7.36665e+06	-46889.1	955.819	-29768.2	0.000000	0.000000	6.602991	-0.076476	NaN	0.000000	0.001587	0.001700	28.1022	0.098116	0.002002	49.0084	39.7403	-164.977	-0.016192	0.601122	-0.440441	-0.441753	-0.076476	49.0084	-0.439270	-482019	1.586569E-7	NaN
165	1.000000	0.642429	7.36665e+06	-46889.1	955.819	-29768.2	0.000000	0.000000	6.642986	-0.067709	NaN	0.000000	0.001538	0.001702	28.1008	0.069926	0.001880	37.2044	-138.485	-165.483	0.001317	0.641085	-0.400446	-0.401790	-0.067709	37.2044	-0.399081	-129684	5.221100E-7	NaN
165	1.000000	0.682473	7.36666e+06	-46889.1	955.819	-29768.2	0.000000	0.000000	6.683033	0.013320	NaN	0.000000	0.001592	0.001716	28.101	0.120940	0.002014	60.0591	16.9318	-163.331	0.083575	0.681152	-0.360402	-0.361723	0.013320	60.0591	-0.360568	-36312.4	-3.668125E-7	NaN
165	1.000000	0.722457	7.36666e+06	-46889.1	955.818	-29768.2	0.000000	0.000000	6.723016	-0.036225	NaN	0.000000	0.001573	0.001731	28.1025	0.033472	0.002098	15.9509	97.2381	-163.586	-0.014327	0.721178	-0.320417	-0.321697	-0.036225	15.9509	-0.318714	-8906.35	4.067343E-6	NaN
165	1.000000	0.762474	7.36666e+06	-46889.1	955.819	-29768.2	0.000000	0.000000	6.763035	0.011029	NaN	0.000000	0.001663	0.001713	28.1023	0.059325	0.002050	28.9324	163.442	-161.497	0.030977	0.761168	-0.280400	-0.281706	0.011029	28.9324	-0.280686	-2417.24	-4.562760E-6	NaN
165	1.000000	0.802504	7.36666e+06	-46889.1	955.82	-29768.2	0.000000	0.000000	6.803065	0.015537	NaN	0.000000	0.001667	0.001695	28.1004	0.034888	0.002061	16.9243	-50.814	-167.153	-0.027772	0.801235	-0.240370	-0.241639	0.015537	16.9243	-0.241059	-597.144	-2.601916E-5	NaN
165	1.000000	0.842526	7.36666e+06	-46889.1	955.818	-29768.2	0.000000	0.000000	6.843083	-0.051394	NaN	0.000000	0.001683	0.001696	28.1021	0.008818	0.001900	4.641374	-115.739	-165.742	-0.063610	0.841218	-0.200349	-0.201657	-0.051394	4.641374	-0.192044	-97.3007	0.000528	NaN
165	1.000000	0.882578	7.36666e+06	-46889.1	955.819	-29768.2	0.000000	0.000000	6.883137	-0.010208	NaN	0.000000	0.001649	0.001682	28.0991	0.043071	0.001939	22.209	-121.247	-161.83	0.031273	0.881219	-0.160297	-0.161655	-0.010208	22.209	-0.159952	-27.3612	0.000373	NaN
165	1.000000	0.922544	7.36666e+06	-46889.1	955.818	-29768.2	0.000000	0.000000	6.923104	0.000114	NaN	0.000000	0.001673	0.001659	28.1001	0.041192	0.001899	21.6953	130.713	-168.115	0.050773	0.921269	-0.120331	-0.121606	0.000114	21.6953	-0.120335	-4.907224	-2.328633E-5	NaN
165	1.000000	0.962549	7.36666e+06	-46889.1	955.819	-29768.2	0.000000	0.000000	6.963108	-0.019638	NaN	0.000000	0.001598	0.001703	28.099	0.028865	0.001983	14.5558	80.8842	-161.979	-0.013356	0.961243	-0.080325	-0.081632	-0.019638	14.5558	-0.079313	-0.594949	0.033007	NaN
165	1.000000	1.002585	7.36666e+06	-46889.1	955.818	-29768.2	0.000000	0.000000	7.003143	-0.049597	NaN	0.000000	0.001609	0.001697	28.1012	0.074976	0.002027	36.9963	102.138	-161.441	0.009144	1.001284	-0.040290	-0.041591	-0.049597	36.9963	-0.039284	-0.043017	1.152970	NaN
165	1.000000	1.042605	7.36666e+06	-46889.1	955.819	-29768.2	0.000000	0.000000	7.043176	0.277188	NaN	0.000000	0.001623	0.001715	28.0997	0.653264	0.002020	323.469	13.4081	-166.49	0.000358	1.041299	-0.000269	-0.001575	0.277188	323.469	-0.000912	-0.000670	-413.814	NaN
165	2.000000	1.058031	7.36666e+06	-46889.1	955.819	-29768.2	0.000000	0.000000	7.059617	24.968	NaN	0.000000	0.001581	0.001723	28.1003	20.0038	0.001820	10994	5.060735	-175.244	24.5483	1.057723	0.015156	0.014849	24.968	10994	0.013453	0.013277	1880.52	87171.9
165	2.000000	1.067944	7.36666e+06	-46889.1	955.818	-29768.2	0.000000	0.000000	7.070378	45.5826	NaN	0.000000	0.001549	0.001715	28.0986	29.8347	0.001812	16462.1	4.875133	-179.133	43.3571	1.067673	0.025070	0.024799	45.5826	16462.1	0.022993	0.027465	1659.64	90754.2
165	2.000000	1.077999	7.36666e+06	-46889.1	955.818	-29768.2	0.000000	0.000000	7.081649	75.1515	NaN	0.000000	0.001540	0.001703	28.099	39.6053	0.001831	21633.3	8.481297	176.065	75.7156	1.077625	0.035125	0.034751	75.1515	21633.3	0.032519	0.046127	1629.22	92027.5
165	2.000000	1.087953	7.36666e+06	-46889.1	955.819	-29768.2	0.000000	0.000000	7.093235	114.863	NaN	0.000000	0.001567	0.001773	28.097	49.0806	0.001840	26680.3	4.839602	176.905	113.683	1.087727	0.045078	0.044852	114.863	26680.3	0.041850	0.068896	1667.2	92868.3
165	2.000000	1.097980	7.36666e+06	-46889.1	955.819	-29768.2	0.000000	0.000000	7.104979	156.621	NaN	0.000000	0.001650	0.001706	28.0988	58.9829	0.001887	31251.9	7.331613	173.004	156.791	1.097646	0.055106	0.054772	156.621	31251.9	0.051347	0.096623	1620.95	91856.6
165	2.000000	1.107910	7.36666e+06	-46889.1	955.82	-29768.2	0.000000	0.000000	7.116930	205.793	NaN	0.000000	0.001537	0.001699	28.099	67.2306	0.001739	38662.8	5.829064	172.778	203.306	1.107738	0.065035	0.064863	205.793	38662.8	0.061043	0.129576	1588.19	98130.5
165	2.000000	1.117947	7.36666e+06	-46889.1	955.821	-29768.2	0.000000	0.000000	7.129617	270.248	NaN	0.000000	0.001628	0.001711	28.0994	77.9218	0.001835	42462.2	9.366103	169.689	272.427	1.117550	0.075073	0.074676	270.248	42462.2	0.070299	0.165308	1634.82	95417.9
165	2.000000	1.127931	7.36666e+06	-46889.1	955.82	-29768.2	0.000000	0.000000	7.142151	332.269	NaN	0.000000	0.001655	0.001744	28.0991	85.1239	0.001783	47735.7	2.094938	175.818	331.959	1.127604	0.085057	0.084730	332.269	47735.7	0.079836	0.206385	1609.95	96001.2
165	2.000000	1.138001	7.36666e+06	-46889.1	955.819	-29768.2	0.000000	0.000000	7.154967	399.064	NaN	0.000000	0.001677	0.001714	28.0961	96.0658	0.001842	52156.5	5.365834	171.924	405.387	1.137555	0.095126	0.094680	399.064	52156.5	0.089388	0.251777	1584.99	94967.1
165	2.000000	1.147818	7.36666e+06	-46889.1	955.82	-29768.2	0.000000	0.000000	7.167872	474.168	NaN	0.000000	0.001567	0.001722	28.0966	102.581	0.001805	56824.6	0.464813	176.088	468.509	1.147542	0.104944	0.104668	474.168	56824.6	0.098685	0.299985	1580.64	94789.5
165	2.000000	1.148324	7.36666e+06	-46889.1	955.82	-29768.2	0.000000	0.000000	7.168693	481.85	NaN	0.000000	0.001581	0.001733	28.1296	102.37	0.001736	58967.2	0.343260	-3.863783	476.462	1.147988	0.105449	0.105114	481.85	58967.2	0.099321	0.303424	1588.05	97804.6

File: 2025-07-22_16-23-58_1_166.txt
2025-07-22, 16:23:58, 1
Index	Phase	Displacement	Time	Pos X	Pos Y	Pos Z	Rot A	Rot B	Piezo Z	Force A	Force B	Gripper	Voltage A	Voltage B	Temperature	Amplitude force	Amplitude pos	Stiffness	Phase shift	Phase excitation	Force A raw	Displacement raw	HMax	HMax raw	Real Force	Real Stiffness	Contact Depth	Area	Hardness	Reduced Mod.
[#]	[#]	[um]	[s]	[um]	[um]	[um]	[m°]	[m°]	[um]	[uN]	[uN]	[V]	[V]	[V]	[°C]	[uN]	[um]	[N/m]	[°]	[°]	[uN]	[um]	[um]	[um]	[uN]	[N/m]	[um]	[um^2]	[MPa]	[MPa]
166	1.000000	0.002745	7.36666e+06	-46939.1	955.818	-29768	0.000000	0.000000	6.002723	-0.037284	NaN	0.000000	0.001548	0.001699	28.0824	0.068337	0.000888	76.9479	37.7312	177.938	0.061853	0.001554	-1.068467	-1.069658	-0.037284	76.9479	-1.068104	-1.869446E+14	1.994393E-16	NaN
166	1.000000	0.042719	7.36666e+06	-46939.1	955.819	-29768	0.000000	0.000000	6.042695	-0.101432	NaN	0.000000	0.001589	0.001686	28.0819	0.131745	0.001968	66.9447	8.648650	177.114	-0.144642	0.041406	-1.028493	-1.029806	-0.101432	66.9447	-1.027357	-5.295736E+13	1.915343E-15	NaN
166	1.000000	0.082716	7.36666e+06	-46939.1	955.818	-29768	0.000000	0.000000	6.082695	-0.012935	NaN	0.000000	0.001695	0.001735	28.0812	0.067399	0.001991	33.8544	-86.9913	178.345	-0.070631	0.081391	-0.988496	-0.989821	-0.012935	33.8544	-0.988210	-1.573974E+13	8.217803E-16	NaN
166	1.000000	0.122743	7.36666e+06	-46939.1	955.818	-29768	0.000000	0.000000	6.122725	0.044733	NaN	0.000000	0.001645	0.001675	28.082	0.046398	0.001845	25.1508	-98.8551	179.389	-0.026620	0.121408	-0.948469	-0.949804	0.044733	25.1508	-0.949803	-4.779351E+12	-9.359555E-15	NaN
166	1.000000	0.162754	7.36666e+06	-46939.1	955.818	-29768	0.000000	0.000000	6.162732	-0.054448	NaN	0.000000	0.001663	0.001666	28.0801	0.019254	0.002099	9.173779	-151.757	178.156	-0.033096	0.161473	-0.908458	-0.909739	-0.054448	9.173779	-0.904007	-1.151337E+12	4.729147E-14	NaN
166	1.000000	0.202770	7.36666e+06	-46939.1	955.818	-29768	0.000000	0.000000	6.202747	-0.076867	NaN	0.000000	0.001588	0.001682	28.0808	0.075332	0.001901	39.6371	-88.1913	177.557	-0.009890	0.201505	-0.868442	-0.869707	-0.076867	39.6371	-0.866987	-3.636480E+11	2.113778E-13	NaN
166	1.000000	0.242793	7.36666e+06	-46939.1	955.817	-29768.1	0.000000	0.000000	6.242774	0.014292	NaN	0.000000	0.001600	0.001675	28.0849	0.025247	0.001938	13.0287	173.981	177.509	-0.034581	0.241477	-0.828419	-0.829735	0.014292	13.0287	-0.829242	-1.120743E+11	-1.275204E-13	NaN
166	1.000000	0.282811	7.36666e+06	-46939.1	955.818	-29768.1	0.000000	0.000000	6.282788	-0.078879	NaN	0.000000	0.001595	0.001673	28.0839	0.195574	0.002106	92.8474	128.453	177.21	-0.071278	0.281482	-0.788401	-0.789730	-0.078879	92.8474	-0.787764	-3.066987E+10	2.571857E-12	NaN
166	1.000000	0.322818	7.36666e+06	-46939.1	955.818	-29768.1	0.000000	0.000000	6.322796	-0.044752	NaN	0.000000	0.001615	0.001672	28.0837	0.124055	0.001884	65.8383	63.033	174.909	-0.127423	0.321506	-0.748394	-0.749706	-0.044752	65.8383	-0.747884	-8.798597E+9	5.086313E-12	NaN
166	1.000000	0.362873	7.36666e+06	-46939.1	955.818	-29768.1	0.000000	0.000000	6.362849	-0.116383	NaN	0.000000	0.001611	0.001672	28.082	0.089889	0.002102	42.772	150.899	174.926	-0.121507	0.361557	-0.708338	-0.709655	-0.116383	42.772	-0.706298	-2.385148E+9	4.879503E-11	NaN
166	1.000000	0.402855	7.36666e+06	-46939.1	955.819	-29768.1	0.000000	0.000000	6.402834	-0.020032	NaN	0.000000	0.001600	0.001661	28.0806	0.076590	0.001981	38.6647	149.397	177.557	-0.013826	0.401549	-0.668357	-0.669663	-0.020032	38.6647	-0.667968	-7.138035E+8	2.806389E-11	NaN
166	1.000000	0.442898	7.36666e+06	-46939.1	955.818	-29768.1	0.000000	0.000000	6.442876	-0.058318	NaN	0.000000	0.001537	0.001671	28.0818	0.084646	0.002073	40.8349	-173.063	-179.27	0.072296	0.441540	-0.628314	-0.629672	-0.058318	40.8349	-0.627242	-1.973103E+8	2.955664E-10	NaN
166	1.000000	0.482898	7.36666e+06	-46939.1	955.819	-29768.1	0.000000	0.000000	6.482875	-0.062952	NaN	0.000000	0.001584	0.001656	28.081	0.114755	0.001995	57.5245	84.0765	179.543	-0.063269	0.481591	-0.588314	-0.589620	-0.062952	57.5245	-0.587493	-5.598877E+7	1.124370E-9	NaN
166	1.000000	0.522888	7.36666e+06	-46939.1	955.818	-29768.1	0.000000	0.000000	6.522865	-0.086181	NaN	0.000000	0.001606	0.001674	28.0834	0.141423	0.001975	71.5934	164.376	173.539	-0.122832	0.521590	-0.548323	-0.549621	-0.086181	71.5934	-0.547421	-1.563949E+7	5.510498E-9	NaN
166	1.000000	0.562923	7.36666e+06	-46939.1	955.818	-29768.1	0.000000	0.000000	6.562903	-0.002968	NaN	0.000000	0.001533	0.001671	28.0819	0.078123	0.002000	39.0607	-179.726	177.448	-0.113032	0.561604	-0.508289	-0.509608	-0.002968	39.0607	-0.508232	-4.46458e+06	6.647472E-10	NaN
166	1.000000	0.602936	7.36666e+06	-46939.1	955.818	-29768.1	0.000000	0.000000	6.602917	0.012076	NaN	0.000000	0.001577	0.001665	28.0837	0.066251	0.002061	32.1415	148.886	177.963	0.035695	0.601659	-0.468275	-0.469553	0.012076	32.1415	-0.468557	-1.245e+06	-9.699404E-9	NaN
166	1.000000	0.642957	7.36666e+06	-46939.1	955.818	-29768.1	0.000000	0.000000	6.642932	-0.124985	NaN	0.000000	0.001612	0.001689	28.0794	0.105266	0.001950	53.9713	-110.603	177.198	-0.056448	0.641676	-0.428254	-0.429535	-0.124985	53.9713	-0.426518	-318254	3.927219E-7	NaN
166	1.000000	0.682992	7.36666e+06	-46939.1	955.819	-29768.1	0.000000	0.000000	6.682969	-0.078415	NaN	0.000000	0.001632	0.001631	28.0822	0.045876	0.001989	23.0631	-70.8024	177.785	-0.049159	0.681682	-0.388219	-0.389530	-0.078415	23.0631	-0.385669	-83402.1	9.402084E-7	NaN
166	1.000000	0.722966	7.36666e+06	-46939.1	955.817	-29768.1	0.000000	0.000000	6.722944	-0.057118	NaN	0.000000	0.001556	0.001736	28.0786	0.048924	0.001912	25.592	168.703	176.642	0.024293	0.721697	-0.348246	-0.349515	-0.057118	25.592	-0.346572	-22762.1	2.509368E-6	NaN
166	1.000000	0.762997	7.36666e+06	-46939.1	955.819	-29768.1	0.000000	0.000000	6.762973	-0.079802	NaN	0.000000	0.001573	0.001724	28.0816	0.105244	0.001912	55.051	38.6403	176.876	-0.017601	0.761720	-0.308215	-0.309492	-0.079802	55.051	-0.307128	-6005.1	1.328913E-5	NaN
166	1.000000	0.803046	7.36667e+06	-46939.1	955.819	-29768.1	0.000000	0.000000	6.803025	-0.037713	NaN	0.000000	0.001578	0.001721	28.0825	0.079780	0.002088	38.2112	-166.263	178.805	0.015240	0.801705	-0.268165	-0.269506	-0.037713	38.2112	-0.267425	-1521.83	2.478126E-5	NaN
166	1.000000	0.843043	7.36667e+06	-46939.1	955.818	-29768.1	0.000000	0.000000	6.843022	-0.028495	NaN	0.000000	0.001601	0.001731	28.0833	0.085036	0.001801	47.2158	91.9793	174.811	0.005138	0.841699	-0.228169	-0.229513	-0.028495	47.2158	-0.227716	-368.476	7.733082E-5	NaN
166	1.000000	0.883085	7.36667e+06	-46939.1	955.818	-29768.1	0.000000	0.000000	6.883062	-0.071229	NaN	0.000000	0.001588	0.001764	28.0819	0.013036	0.002070	6.298720	127.973	175.327	-0.054189	0.881751	-0.188127	-0.189460	-0.071229	6.298720	-0.179646	-60.1777	0.001184	NaN
166	1.000000	0.923072	7.36667e+06	-46939.1	955.817	-29768.1	0.000000	0.000000	6.923051	-0.034290	NaN	0.000000	0.001561	0.001714	28.0816	0.006892	0.001957	3.521918	127.388	179.036	0.040397	0.921729	-0.148139	-0.149483	-0.034290	3.521918	-0.140837	-12.2652	0.002796	NaN
166	1.000000	0.963115	7.36667e+06	-46939.1	955.818	-29768.1	0.000000	0.000000	6.963092	-0.081303	NaN	0.000000	0.001590	0.001723	28.0814	0.057322	0.002023	28.3298	115.912	177.375	-0.023705	0.961765	-0.108097	-0.109447	-0.081303	28.3298	-0.105945	-2.463371	0.033005	NaN
166	1.000000	1.003107	7.36667e+06	-46939.1	955.818	-29768.1	0.000000	0.000000	7.003084	-0.064085	NaN	0.000000	0.001623	0.001710	28.0811	0.081683	0.002142	38.143	-34.0455	176.434	-0.129992	1.001776	-0.068105	-0.069436	-0.064085	38.143	-0.066845	-0.280172	0.228734	NaN
166	1.000000	1.043111	7.36667e+06	-46939.1	955.819	-29768.1	0.000000	0.000000	7.043088	-0.075135	NaN	0.000000	0.001663	0.001714	28.0828	0.044163	0.001985	22.2537	106.791	174.23	-0.112415	1.041872	-0.028101	-0.029340	-0.075135	22.2537	-0.025569	-0.017460	4.303342	NaN
166	2.000000	1.080791	7.36667e+06	-46939.1	955.817	-29768.1	0.000000	0.000000	7.081124	8.585686	NaN	0.000000	0.001569	0.001751	28.0835	9.112689	0.001638	5562.97	4.028855	172.806	8.914147	1.080518	0.009580	0.009306	8.585686	5562.97	0.008422	0.007480	1147.82	58766.5
166	2.000000	1.090735	7.36667e+06	-46939.1	955.818	-29768.1	0.000000	0.000000	7.091738	24.8756	NaN	0.000000	0.001584	0.001731	28.0819	19.9128	0.001783	11168.3	5.085881	168.274	25.2976	1.090339	0.019523	0.019127	24.8756	11168.3	0.017853	0.019280	1290.23	73486.3
166	2.000000	1.100675	7.36667e+06	-46939.1	955.819	-29768.1	0.000000	0.000000	7.102634	48.135	NaN	0.000000	0.001560	0.001709	28.0826	30.5421	0.001762	17331.5	4.176610	162.011	46.6879	1.100435	0.029463	0.029223	48.135	17331.5	0.027380	0.035488	1356.36	84055.5
166	2.000000	1.110632	7.36667e+06	-46939.1	955.818	-29768.1	0.000000	0.000000	7.113914	80.3071	NaN	0.000000	0.001600	0.001682	28.0808	40.187	0.001810	22198.9	0.762354	164.821	77.8811	1.110335	0.039420	0.039123	80.3071	22198.9	0.036707	0.055795	1439.32	85863
166	2.000000	1.120608	7.36667e+06	-46939.1	955.819	-29768.1	0.000000	0.000000	7.125724	124.928	NaN	0.000000	0.001614	0.001739	28.0817	51.4718	0.001955	26322.6	5.954270	158.105	122.257	1.120241	0.049396	0.049029	124.928	26322.6	0.045837	0.079980	1561.99	85037.5
166	2.000000	1.130671	7.36667e+06	-46939.1	955.818	-29768.1	0.000000	0.000000	7.137784	173.496	NaN	0.000000	0.001654	0.001724	28.0809	60.5188	0.001860	32530.5	3.008116	159.403	174.513	1.130284	0.059459	0.059072	173.496	32530.5	0.055459	0.110031	1576.8	89599.8
166	2.000000	1.140568	7.36667e+06	-46939.1	955.818	-29768.1	0.000000	0.000000	7.149915	227.849	NaN	0.000000	0.001595	0.001739	28.0845	69.2483	0.001733	39954.9	2.633170	157.881	225.347	1.140292	0.069356	0.069080	227.849	39954.9	0.065079	0.144650	1575.18	95980.7
166	2.000000	1.150592	7.36667e+06	-46939.1	955.818	-29768.1	0.000000	0.000000	7.162373	287.037	NaN	0.000000	0.001589	0.001725	28.0832	80.6014	0.001864	43239.8	1.799755	157.951	284.424	1.150406	0.079380	0.079194	287.037	43239.8	0.074402	0.182452	1573.22	92487.3
166	2.000000	1.160611	7.36667e+06	-46939.1	955.818	-29768.1	0.000000	0.000000	7.175532	363.429	NaN	0.000000	0.001610	0.001772	28.083	90.288	0.001736	52017.5	0.822023	157.74	363.386	1.160381	0.089399	0.089169	363.429	52017.5	0.084159	0.226405	1605.22	99880.3
166	2.000000	1.170621	7.36667e+06	-46939.1	955.818	-29768.1	0.000000	0.000000	7.188432	433.722	NaN	0.000000	0.001614	0.001782	28.0826	100.788	0.001807	55784.4	1.615529	156.285	433.004	1.170363	0.099409	0.099151	433.722	55784.4	0.093578	0.273015	1588.64	97542.4
166	2.000000	1.178450	7.36667e+06	-46939.1	955.818	-29768.1	0.000000	0.000000	7.199422	510.627	NaN	0.000000	0.001615	0.001767	28.0822	108.89	0.001817	59915.9	3.406911	153.657	502.69	1.178168	0.107238	0.106956	510.627	59915.9	0.100846	0.311753	1637.92	98041.6