Folder: unikorn_login/remote_trans/data/nanoindenter/0828-1/data/Data_2025-08-06,11h17m57s (part 11)

File: 2025-07-22_16-23-58_1_20.txt
2025-07-22, 16:23:58, 1
Index	Phase	Displacement	Time	Pos X	Pos Y	Pos Z	Rot A	Rot B	Piezo Z	Force A	Force B	Gripper	Voltage A	Voltage B	Temperature	Amplitude force	Amplitude pos	Stiffness	Phase shift	Phase excitation	Force A raw	Displacement raw	HMax	HMax raw	Real Force	Real Stiffness	Contact Depth	Area	Hardness	Reduced Mod.
[#]	[#]	[um]	[s]	[um]	[um]	[um]	[m°]	[m°]	[um]	[uN]	[uN]	[V]	[V]	[V]	[°C]	[uN]	[um]	[N/m]	[°]	[°]	[uN]	[um]	[um]	[um]	[uN]	[N/m]	[um]	[um^2]	[MPa]	[MPa]
20	1.000000	0.002869	7.36524e+06	-39639.1	955.818	-29793.8	0.000000	0.000000	6.002817	0.023153	NaN	0.000000	0.001628	0.001671	28.0841	0.071819	0.000965	74.4611	-30.1408	-168.379	-0.010901	0.001696	-1.105025	-1.106198	0.023153	74.4611	-1.105259	-5.897294E+14	-3.926094E-17	NaN
20	1.000000	0.044795	7.36524e+06	-39639.1	955.818	-29793.8	0.000000	0.000000	6.044740	-0.039380	NaN	0.000000	0.001631	0.001678	28.0833	0.049750	0.001915	25.9811	-37.1195	13.5914	-0.009399	0.043480	-1.063100	-1.064415	-0.039380	25.9811	-1.061963	-1.545990E+14	2.547260E-16	NaN
20	1.000000	0.086805	7.36524e+06	-39639.1	955.819	-29793.8	0.000000	0.000000	6.086751	0.000413	NaN	0.000000	0.001610	0.001671	28.1224	0.063734	0.001963	32.4651	-163.233	-165.318	0.061498	0.085498	-1.021090	-1.022397	0.000413	32.4651	-1.021100	-4.362654E+13	-9.458499E-18	NaN
20	1.000000	0.128863	7.36524e+06	-39639.1	955.818	-29793.8	0.000000	0.000000	6.128810	0.006853	NaN	0.000000	0.001581	0.001643	28.1218	0.049370	0.002117	23.3246	8.351870	10.7583	-0.007742	0.127472	-0.979032	-0.980423	0.006853	23.3246	-0.979252	-1.192162E+13	-5.748289E-16	NaN
20	1.000000	0.170859	7.36524e+06	-39639.1	955.818	-29793.8	0.000000	0.000000	6.170802	-0.071904	NaN	0.000000	0.001596	0.001686	28.0844	0.058081	0.002056	28.2458	138.571	-162.207	-0.044747	0.169576	-0.937036	-0.938319	-0.071904	28.2458	-0.935127	-3.029615E+12	2.373377E-14	NaN
20	1.000000	0.212863	7.36524e+06	-39639.1	955.818	-29793.8	0.000000	0.000000	6.212812	0.076682	NaN	0.000000	0.001642	0.001686	28.0825	0.166381	0.002057	80.885	18.5314	14.725	0.041578	0.211510	-0.895032	-0.896385	0.076682	80.885	-0.895743	-8.903137E+11	-8.612868E-14	NaN
20	1.000000	0.254889	7.36524e+06	-39639.1	955.819	-29793.8	0.000000	0.000000	6.254834	-0.043890	NaN	0.000000	0.001585	0.001630	28.1201	0.065763	0.002077	31.6686	-122.703	-167.738	-0.018523	0.253552	-0.853006	-0.854343	-0.043890	31.6686	-0.851966	-2.276987E+11	1.927550E-13	NaN
20	1.000000	0.296914	7.36524e+06	-39639.1	955.819	-29793.8	0.000000	0.000000	6.296858	-0.046491	NaN	0.000000	0.001675	0.001639	28.1219	0.043587	0.002048	21.2827	62.0288	12.137	-0.020613	0.295516	-0.810981	-0.812379	-0.046491	21.2827	-0.809343	-6.020822E+10	7.721760E-13	NaN
20	1.000000	0.338930	7.36524e+06	-39639.1	955.818	-29793.8	0.000000	0.000000	6.338877	-0.001419	NaN	0.000000	0.001654	0.001669	28.0853	0.092517	0.001945	47.5592	-147.048	-168.108	-0.054933	0.337621	-0.768965	-0.770274	-0.001419	47.5592	-0.768943	-1.701875E+10	8.340362E-14	NaN
20	1.000000	0.380929	7.36524e+06	-39639.1	955.818	-29793.8	0.000000	0.000000	6.380875	-0.008090	NaN	0.000000	0.001661	0.001687	28.0828	0.072122	0.002126	33.9299	116.16	12.7697	-0.012307	0.379599	-0.726966	-0.728296	-0.008090	33.9299	-0.726787	-4.539548E+9	1.782017E-12	NaN
20	1.000000	0.422956	7.36524e+06	-39639.1	955.818	-29793.8	0.000000	0.000000	6.422902	-0.005852	NaN	0.000000	0.001666	0.001684	28.1208	0.173281	0.002019	85.8116	164.642	-170.133	0.008944	0.421642	-0.684939	-0.686253	-0.005852	85.8116	-0.684888	-1.216300E+9	4.811387E-12	NaN
20	1.000000	0.464991	7.36524e+06	-39639.1	955.819	-29793.8	0.000000	0.000000	6.464937	-0.001865	NaN	0.000000	0.001585	0.001652	28.1226	0.032644	0.002046	15.9587	-60.5164	12.7241	0.054159	0.463571	-0.642904	-0.644324	-0.001865	15.9587	-0.642816	-3.227948E+8	5.778882E-12	NaN
20	1.000000	0.507015	7.36524e+06	-39639.1	955.818	-29793.8	0.000000	0.000000	6.506961	-0.029392	NaN	0.000000	0.001580	0.001665	28.0844	0.062370	0.001913	32.6062	-99.8482	-165.95	-0.027495	0.505723	-0.600880	-0.602172	-0.029392	32.6062	-0.600204	-8.380370E+7	3.507294E-10	NaN
20	1.000000	0.548996	7.36524e+06	-39639.1	955.818	-29793.8	0.000000	0.000000	6.548945	0.049283	NaN	0.000000	0.001578	0.001679	28.0824	0.081265	0.002136	38.0461	17.5987	11.467	0.031302	0.547702	-0.558899	-0.560193	0.049283	38.0461	-0.559871	-2.325877E+7	-2.118891E-9	NaN
20	1.000000	0.591022	7.36524e+06	-39639.1	955.818	-29793.8	0.000000	0.000000	6.590971	0.042872	NaN	0.000000	0.001543	0.001689	28.1186	0.116908	0.002035	57.4403	142.753	-166.964	-0.019112	0.589784	-0.516873	-0.518111	0.042872	57.4403	-0.517432	-5.99628e+06	-7.149796E-9	NaN
20	1.000000	0.633037	7.36524e+06	-39639.1	955.819	-29793.8	0.000000	0.000000	6.632984	0.009990	NaN	0.000000	0.001579	0.001701	28.1239	0.082724	0.002084	39.6932	45.484	13.9953	0.058121	0.631682	-0.474858	-0.476213	0.009990	39.6932	-0.475047	-1.53517e+06	-6.507141E-9	NaN
20	1.000000	0.675093	7.36524e+06	-39639.1	955.818	-29793.8	0.000000	0.000000	6.675038	-0.055674	NaN	0.000000	0.001586	0.001632	28.0866	0.050917	0.001997	25.4967	-94.0569	-165.343	-0.082477	0.673765	-0.432801	-0.434130	-0.055674	25.4967	-0.431164	-370274	1.503596E-7	NaN
20	1.000000	0.717093	7.36524e+06	-39639.1	955.819	-29793.8	0.000000	0.000000	6.717037	-0.046513	NaN	0.000000	0.001591	0.001674	28.0843	0.027380	0.002013	13.5998	109.437	13.4058	-0.018732	0.715747	-0.390802	-0.392147	-0.046513	13.5998	-0.388237	-90770.4	5.124197E-7	NaN
20	1.000000	0.759099	7.36524e+06	-39639.1	955.818	-29793.8	0.000000	0.000000	6.759044	-0.035906	NaN	0.000000	0.001657	0.001674	28.1179	0.076764	0.001901	40.3782	107.715	-163.039	-0.013453	0.757782	-0.348796	-0.350113	-0.035906	40.3782	-0.348129	-23979.1	1.497400E-6	NaN
20	1.000000	0.801136	7.36524e+06	-39639.1	955.819	-29793.8	0.000000	0.000000	6.801082	-0.031706	NaN	0.000000	0.001625	0.001689	28.1237	0.117731	0.001944	60.5477	-145.42	14.2517	-0.012351	0.799790	-0.306759	-0.308105	-0.031706	60.5477	-0.306366	-5850.87	5.419099E-6	NaN
20	1.000000	0.843133	7.36524e+06	-39639.1	955.818	-29793.8	0.000000	0.000000	6.843078	-0.045834	NaN	0.000000	0.001639	0.001687	28.0832	0.111838	0.001806	61.9172	-36.8241	-160.049	-0.012763	0.841797	-0.264761	-0.266098	-0.045834	61.9172	-0.264206	-1359.16	3.372262E-5	NaN
20	1.000000	0.885138	7.36524e+06	-39639.1	955.818	-29793.8	0.000000	0.000000	6.885085	0.009328	NaN	0.000000	0.001613	0.001632	28.0837	0.038528	0.001938	19.8852	117.737	10.3379	-0.062580	0.883786	-0.222757	-0.224109	0.009328	19.8852	-0.223108	-311.356	-2.995825E-5	NaN
20	1.000000	0.927190	7.36524e+06	-39639.1	955.818	-29793.8	0.000000	0.000000	6.927138	0.021998	NaN	0.000000	0.001644	0.001640	28.1176	0.091051	0.002032	44.807	111.088	-167.448	0.019422	0.925839	-0.180704	-0.182056	0.021998	44.807	-0.181073	-63.6354	-0.000346	NaN
20	1.000000	0.969180	7.36524e+06	-39639.1	955.819	-29793.8	0.000000	0.000000	6.969128	0.033717	NaN	0.000000	0.001624	0.001645	28.1268	0.053682	0.001986	27.0269	3.093446	16.7403	0.064970	0.967804	-0.138715	-0.140091	0.033717	27.0269	-0.139650	-11.6518	-0.002894	NaN
20	1.000000	1.011191	7.36524e+06	-39639.1	955.818	-29793.8	0.000000	0.000000	7.011138	0.014935	NaN	0.000000	0.001609	0.001675	28.0856	0.132816	0.002025	65.5788	44.3091	-166.455	-0.056599	1.009886	-0.096704	-0.098009	0.014935	65.5788	-0.096875	-1.555630	-0.009600	NaN
20	1.000000	1.053214	7.36524e+06	-39639.1	955.819	-29793.8	0.000000	0.000000	7.053161	-0.005953	NaN	0.000000	0.001580	0.001702	28.0823	0.074458	0.002027	36.7376	-118.893	15.2494	0.024868	1.051874	-0.054680	-0.056021	-0.005953	36.7376	-0.054559	-0.124964	0.047637	NaN
20	1.000000	1.095281	7.36524e+06	-39639.1	955.819	-29793.8	0.000000	0.000000	7.095225	-0.081280	NaN	0.000000	0.001603	0.001622	28.1149	0.036035	0.002098	17.1744	-89.748	-166.947	0.009889	1.093938	-0.012614	-0.013957	-0.081280	17.1744	-0.009064	-0.005850	13.8942	NaN
20	2.000000	1.123224	7.36524e+06	-39639.1	955.818	-29793.8	0.000000	0.000000	7.123852	16.5759	NaN	0.000000	0.001606	0.001670	28.1264	15.3874	0.001811	8497.63	7.386748	4.024246	15.7222	1.122900	0.015330	0.015005	16.5759	8497.63	0.013867	0.013804	1200.83	66080.7
20	2.000000	1.133672	7.36524e+06	-39639.1	955.818	-29793.8	0.000000	0.000000	7.135192	38.2925	NaN	0.000000	0.001632	0.001693	28.0868	25.1596	0.001803	13957.4	6.685174	-178.804	40.2349	1.133410	0.025777	0.025515	38.2925	13957.4	0.023719	0.028726	1333.01	75238
20	2.000000	1.144091	7.36524e+06	-39639.1	955.818	-29793.8	0.000000	0.000000	7.146896	69.5719	NaN	0.000000	0.001642	0.001653	28.0837	34.1905	0.001771	19304.1	7.486618	-2.632260	67.3333	1.143746	0.036196	0.035851	69.5719	19304.1	0.033493	0.048295	1440.57	80255.3
20	2.000000	1.154624	7.36524e+06	-39639.1	955.818	-29793.8	0.000000	0.000000	7.158839	103.876	NaN	0.000000	0.001616	0.001715	28.1151	42.4008	0.001698	24964.4	1.783566	-179.051	104.183	1.154239	0.046729	0.046344	103.876	24964.4	0.043608	0.073685	1409.72	84024.1
20	2.000000	1.165025	7.36524e+06	-39639.1	955.818	-29793.8	0.000000	0.000000	7.170874	143.628	NaN	0.000000	0.001676	0.001642	28.127	53.1698	0.001912	27813.6	5.215686	-3.357406	138.909	1.164724	0.057130	0.056829	143.628	27813.6	0.053257	0.102746	1397.9	79277.3
20	2.000000	1.175580	7.36524e+06	-39639.1	955.819	-29793.8	0.000000	0.000000	7.183465	193.18	NaN	0.000000	0.001627	0.001677	28.0858	63.1749	0.001811	34882.6	6.623760	173.975	189.138	1.175175	0.067685	0.067280	193.18	34882.6	0.063531	0.138775	1392.04	85551.3
20	2.000000	1.186080	7.36524e+06	-39639.1	955.819	-29793.8	0.000000	0.000000	7.196049	243.895	NaN	0.000000	0.001626	0.001673	28.0835	71.4834	0.001743	41010.6	4.973928	-7.120340	242.388	1.185829	0.078185	0.077934	243.895	41010.6	0.073725	0.179569	1358.23	88420.7
20	2.000000	1.196500	7.36524e+06	-39639.1	955.819	-29793.8	0.000000	0.000000	7.208980	304.988	NaN	0.000000	0.001609	0.001666	28.114	80.9063	0.001733	46674.6	5.930788	171.545	301.575	1.196197	0.088605	0.088302	304.988	46674.6	0.083705	0.224261	1359.97	90048.6
20	2.000000	1.207092	7.36524e+06	-39639.1	955.819	-29793.8	0.000000	0.000000	7.222372	373.126	NaN	0.000000	0.001662	0.001643	28.1289	91.4093	0.001762	51885.8	5.639941	-9.111241	372.082	1.206675	0.099197	0.098780	373.126	51885.8	0.093803	0.274179	1360.88	90532.4
20	2.000000	1.217127	7.36524e+06	-39639.1	955.818	-29793.8	0.000000	0.000000	7.235652	452.106	NaN	0.000000	0.001643	0.001670	28.1281	102.624	0.001817	56471	10.5983	-14.33	455.066	1.216702	0.109232	0.108807	452.106	56471	0.103228	0.324968	1391.23	90506.3

File: 2025-07-22_16-23-58_1_21.txt
2025-07-22, 16:23:58, 1
Index	Phase	Displacement	Time	Pos X	Pos Y	Pos Z	Rot A	Rot B	Piezo Z	Force A	Force B	Gripper	Voltage A	Voltage B	Temperature	Amplitude force	Amplitude pos	Stiffness	Phase shift	Phase excitation	Force A raw	Displacement raw	HMax	HMax raw	Real Force	Real Stiffness	Contact Depth	Area	Hardness	Reduced Mod.
[#]	[#]	[um]	[s]	[um]	[um]	[um]	[m°]	[m°]	[um]	[uN]	[uN]	[V]	[V]	[V]	[°C]	[uN]	[um]	[N/m]	[°]	[°]	[uN]	[um]	[um]	[um]	[uN]	[N/m]	[um]	[um^2]	[MPa]	[MPa]
21	1.000000	0.002330	7.36524e+06	-39689.1	955.819	-29793.7	0.000000	0.000000	6.002737	0.057122	NaN	0.000000	0.001572	0.001643	28.1095	0.079675	0.001040	76.6363	8.368649	176.533	0.037577	0.001082	-0.978929	-0.980177	0.057122	76.6363	-0.979488	-1.200913E+13	-4.756514E-15	NaN
21	1.000000	0.040298	7.36525e+06	-39689.1	955.818	-29793.7	0.000000	0.000000	6.040698	-0.085857	NaN	0.000000	0.001621	0.001722	28.0818	0.038210	0.002002	19.0893	118.198	-4.068244	-0.092028	0.039015	-0.940962	-0.942244	-0.085857	19.0893	-0.937588	-3.270390E+12	2.625288E-14	NaN
21	1.000000	0.078313	7.36525e+06	-39689.1	955.818	-29793.7	0.000000	0.000000	6.078718	0.021448	NaN	0.000000	0.001590	0.001610	28.0907	0.052942	0.002023	26.1675	-49.2721	178.386	0.025134	0.077033	-0.902946	-0.904227	0.021448	26.1675	-0.903561	-1.135487E+12	-1.888857E-14	NaN
21	1.000000	0.116311	7.36525e+06	-39689.1	955.818	-29793.7	0.000000	0.000000	6.116715	0.024899	NaN	0.000000	0.001564	0.001640	28.1293	0.045248	0.002167	20.8793	-32.4231	-3.755228	-0.020159	0.115000	-0.864949	-0.866259	0.024899	20.8793	-0.865843	-3.509137E+11	-7.095454E-14	NaN
21	1.000000	0.154308	7.36525e+06	-39689.1	955.819	-29793.7	0.000000	0.000000	6.154711	-0.010892	NaN	0.000000	0.001610	0.001664	28.1082	0.022205	0.002088	10.6349	145.297	179.163	0.015273	0.153025	-0.826951	-0.828234	-0.010892	10.6349	-0.826183	-1.018706E+11	1.069239E-13	NaN
21	1.000000	0.192336	7.36525e+06	-39689.1	955.818	-29793.7	0.000000	0.000000	6.192739	-0.011381	NaN	0.000000	0.001577	0.001623	28.0798	0.033368	0.002018	16.5345	-163.226	0.662439	0.035060	0.191043	-0.788923	-0.790216	-0.011381	16.5345	-0.788407	-3.129317E+10	3.636973E-13	NaN
21	1.000000	0.230345	7.36525e+06	-39689.1	955.819	-29793.7	0.000000	0.000000	6.230751	0.049864	NaN	0.000000	0.001557	0.001635	28.09	0.077535	0.001860	41.6749	13.2796	176.37	-0.011724	0.229039	-0.750914	-0.752220	0.049864	41.6749	-0.751811	-9.951171E+9	-5.010863E-12	NaN
21	1.000000	0.268365	7.36525e+06	-39689.1	955.818	-29793.7	0.000000	0.000000	6.268771	0.068482	NaN	0.000000	0.001587	0.001674	28.1287	0.138206	0.001917	72.08	52.8609	-3.100956	0.053424	0.267031	-0.712895	-0.714229	0.068482	72.08	-0.713607	-3.001031E+9	-2.281945E-11	NaN
21	1.000000	0.306375	7.36525e+06	-39689.1	955.818	-29793.7	0.000000	0.000000	6.306780	0.018115	NaN	0.000000	0.001571	0.001612	28.1079	0.066363	0.002010	33.0099	47.0293	176.408	-0.059483	0.305050	-0.674884	-0.676209	0.018115	33.0099	-0.675296	-8.991957E+8	-2.014570E-11	NaN
21	1.000000	0.344392	7.36525e+06	-39689.1	955.819	-29793.7	0.000000	0.000000	6.344796	0.000204	NaN	0.000000	0.001614	0.001591	28.0804	0.035269	0.001939	18.1854	117.105	-2.602291	0.074432	0.343051	-0.636867	-0.638209	0.000204	18.1854	-0.636876	-2.675556E+8	-7.631367E-13	NaN
21	1.000000	0.382418	7.36525e+06	-39689.1	955.819	-29793.7	0.000000	0.000000	6.382820	-0.056655	NaN	0.000000	0.001599	0.001582	28.0913	0.022626	0.001984	11.4022	-38.9495	178.412	0.007809	0.381111	-0.598841	-0.600149	-0.056655	11.4022	-0.595114	-7.131119E+7	7.944753E-10	NaN
21	1.000000	0.420435	7.36525e+06	-39689.1	955.818	-29793.7	0.000000	0.000000	6.420835	-0.092468	NaN	0.000000	0.001579	0.001637	28.1295	0.186191	0.002046	91.0113	70.8698	-2.277476	-0.107588	0.419116	-0.560824	-0.562144	-0.092468	91.0113	-0.560062	-2.340106E+7	3.951429E-9	NaN
21	1.000000	0.458465	7.36525e+06	-39689.1	955.818	-29793.7	0.000000	0.000000	6.458870	0.019191	NaN	0.000000	0.001596	0.001631	28.1057	0.090789	0.002040	44.5124	-128.434	177.606	0.049718	0.457135	-0.522794	-0.524124	0.019191	44.5124	-0.523117	-7.19357e+06	-2.667763E-9	NaN
21	1.000000	0.496469	7.36525e+06	-39689.1	955.818	-29793.7	0.000000	0.000000	6.496872	-0.001493	NaN	0.000000	0.001620	0.001602	28.08	0.044081	0.002067	21.3298	-100.384	-2.044779	-0.048820	0.495089	-0.484791	-0.486171	-0.001493	21.3298	-0.484738	-2.09812e+06	7.116764E-10	NaN
21	1.000000	0.534483	7.36525e+06	-39689.1	955.819	-29793.7	0.000000	0.000000	6.534886	-0.027630	NaN	0.000000	0.001587	0.001607	28.0899	0.061149	0.001934	31.6159	160.271	178.102	-0.016314	0.533196	-0.446776	-0.448063	-0.027630	31.6159	-0.446121	-602130	4.588745E-8	NaN
21	1.000000	0.572523	7.36525e+06	-39689.1	955.818	-29793.7	0.000000	0.000000	6.572925	-0.046353	NaN	0.000000	0.001567	0.001600	28.1311	0.045268	0.002005	22.5748	-15.0985	-0.446285	-0.018989	0.571193	-0.408737	-0.410067	-0.046353	22.5748	-0.407197	-169248	2.738755E-7	NaN
21	1.000000	0.610538	7.36525e+06	-39689.1	955.818	-29793.7	0.000000	0.000000	6.610939	-0.075801	NaN	0.000000	0.001574	0.001603	28.1056	0.057477	0.002011	28.5753	-1.134264	175.615	-0.101038	0.609186	-0.370721	-0.372074	-0.075801	28.5753	-0.368732	-47627.2	1.591557E-6	NaN
21	1.000000	0.648545	7.36525e+06	-39689.1	955.819	-29793.7	0.000000	0.000000	6.648949	0.011545	NaN	0.000000	0.001647	0.001582	28.0811	0.131297	0.002082	63.0556	-144.177	-2.431664	0.042399	0.647187	-0.332714	-0.334073	0.011545	63.0556	-0.332852	-14361	-8.039150E-7	NaN
21	1.000000	0.686531	7.36525e+06	-39689.1	955.818	-29793.7	0.000000	0.000000	6.686934	-0.004689	NaN	0.000000	0.001691	0.001599	28.0911	0.089612	0.002031	44.1166	-19.1242	177.469	-0.049521	0.685256	-0.294729	-0.296003	-0.004689	44.1166	-0.294649	-3916.05	1.197375E-6	NaN
21	1.000000	0.724558	7.36525e+06	-39689.1	955.818	-29793.7	0.000000	0.000000	6.724960	-0.062090	NaN	0.000000	0.001640	0.001583	28.1308	0.064329	0.002027	31.7333	-159.62	-0.135372	-0.071110	0.723130	-0.256701	-0.258129	-0.062090	31.7333	-0.255233	-990.168	6.270685E-5	NaN
21	1.000000	0.762569	7.36525e+06	-39689.1	955.818	-29793.7	0.000000	0.000000	6.762974	0.019525	NaN	0.000000	0.001585	0.001637	28.103	0.069175	0.001840	37.5893	-156.899	-178.907	0.045097	0.761278	-0.218690	-0.219981	0.019525	37.5893	-0.219080	-268.509	-7.271627E-5	NaN
21	1.000000	0.800584	7.36525e+06	-39689.1	955.818	-29793.7	0.000000	0.000000	6.800988	0.019454	NaN	0.000000	0.001577	0.001594	28.0793	0.076181	0.001902	40.0611	-119.79	-0.295682	-0.010004	0.799224	-0.180676	-0.182035	0.019454	40.0611	-0.181040	-63.5536	-0.000306	NaN
21	1.000000	0.838619	7.36525e+06	-39689.1	955.817	-29793.7	0.000000	0.000000	6.839019	-0.086643	NaN	0.000000	0.001578	0.001646	28.092	0.081023	0.001924	42.1219	80.0284	-179.187	-0.114486	0.837302	-0.142641	-0.143957	-0.086643	42.1219	-0.141098	-12.4038	0.006985	NaN
21	1.000000	0.876659	7.36525e+06	-39689.1	955.817	-29793.7	0.000000	0.000000	6.877064	0.009669	NaN	0.000000	0.001565	0.001621	28.1318	0.012575	0.001951	6.446383	-160.176	-2.872907	0.015992	0.875304	-0.104600	-0.105956	0.009669	6.446383	-0.105725	-2.436719	-0.003968	NaN
21	1.000000	0.914646	7.36525e+06	-39689.1	955.818	-29793.7	0.000000	0.000000	6.915049	-0.037626	NaN	0.000000	0.001588	0.001643	28.1038	0.081683	0.001946	41.9729	-24.2769	176.398	-0.055570	0.913345	-0.066613	-0.067915	-0.037626	41.9729	-0.065941	-0.264596	0.142203	NaN
21	1.000000	0.952630	7.36525e+06	-39689.1	955.818	-29793.7	0.000000	0.000000	6.953034	0.000770	NaN	0.000000	0.001577	0.001706	28.0808	0.057006	0.001965	29.0055	-24.2528	-3.693363	-0.085744	0.951324	-0.028630	-0.029935	0.000770	29.0055	-0.028650	-0.021119	-0.036477	NaN
21	2.000000	0.989315	7.36525e+06	-39689.1	955.818	-29793.7	0.000000	0.000000	6.990030	7.567486	NaN	0.000000	0.001626	0.001682	28.09	7.558841	0.001687	4481.15	8.904895	170.651	8.212090	0.988933	0.008055	0.007673	7.567486	4481.15	0.006789	0.005826	1298.94	53639
21	2.000000	0.998774	7.36525e+06	-39689.1	955.82	-29793.7	0.000000	0.000000	7.000041	20.9981	NaN	0.000000	0.001560	0.001682	28.1308	17.601	0.001878	9370.44	7.331804	-14.548	21.5466	0.998486	0.017515	0.017227	20.9981	9370.44	0.015834	0.016414	1279.31	66823.8
21	2.000000	1.008233	7.36525e+06	-39689.1	955.819	-29793.7	0.000000	0.000000	7.010335	41.3317	NaN	0.000000	0.001587	0.001653	28.1021	25.5783	0.001724	14832.3	7.963790	162.982	41.2981	1.007906	0.026974	0.026647	41.3317	14832.3	0.024884	0.030804	1341.74	77210.3
21	2.000000	1.017749	7.36525e+06	-39689.1	955.818	-29793.7	0.000000	0.000000	7.020879	66.3321	NaN	0.000000	0.001647	0.001668	28.0801	34.5332	0.001800	19181.3	6.095882	-19.391	67.7458	1.017386	0.036490	0.036127	66.3321	19181.3	0.033896	0.049207	1348.04	79002.3
21	2.000000	1.027155	7.36525e+06	-39689.1	955.818	-29793.7	0.000000	0.000000	7.031683	100.365	NaN	0.000000	0.001621	0.001662	28.0931	42.4866	0.001724	24638.9	3.503368	160.189	97.6553	1.026856	0.045896	0.045597	100.365	24638.9	0.042841	0.071575	1402.23	84141.9
21	2.000000	1.036701	7.36525e+06	-39689.1	955.818	-29793.7	0.000000	0.000000	7.042758	137.565	NaN	0.000000	0.001596	0.001660	28.1326	52.7907	0.001843	28650	4.110768	-20.8146	137.296	1.036407	0.055442	0.055148	137.565	28650	0.051841	0.098188	1401.04	83535.3
21	2.000000	1.046221	7.36525e+06	-39689.1	955.819	-29793.7	0.000000	0.000000	7.054030	180.197	NaN	0.000000	0.001577	0.001712	28.1015	60.5421	0.001859	32571	6.151793	155.499	181.512	1.045795	0.064962	0.064536	180.197	32571	0.060812	0.128737	1399.73	82937.9
21	2.000000	1.055690	7.36525e+06	-39689.1	955.819	-29793.7	0.000000	0.000000	7.065553	230.167	NaN	0.000000	0.001594	0.001614	28.0799	68.7392	0.001763	38988.5	5.328095	-24.7174	228.499	1.055195	0.074431	0.073936	230.167	38988.5	0.070003	0.164102	1402.59	87933.4
21	2.000000	1.065090	7.36525e+06	-39689.1	955.819	-29793.7	0.000000	0.000000	7.077290	287.046	NaN	0.000000	0.001591	0.001652	28.0932	77.589	0.001838	42216.6	4.340335	155.316	282.286	1.064827	0.083830	0.083568	287.046	42216.6	0.078731	0.201406	1425.21	85944.9
21	2.000000	1.074599	7.36525e+06	-39689.1	955.818	-29793.7	0.000000	0.000000	7.089643	356.262	NaN	0.000000	0.001577	0.001604	28.1308	84.2682	0.001783	47255.4	2.478637	-22.7156	354.107	1.074230	0.093339	0.092971	356.262	47255.4	0.087685	0.243377	1463.83	87515.5
21	2.000000	1.084116	7.36525e+06	-39689.1	955.818	-29793.7	0.000000	0.000000	7.102067	427.015	NaN	0.000000	0.001601	0.001625	28.1015	95.9446	0.001734	55334.6	7.658589	150.504	425.196	1.083731	0.102856	0.102472	427.015	55334.6	0.097069	0.291318	1465.8	93666.8
21	2.000000	1.087071	7.36525e+06	-39689.1	955.818	-29793.7	0.000000	0.000000	7.105914	448.709	NaN	0.000000	0.001601	0.001659	28.0948	98.872	0.001767	55945.2	3.769170	154.541	445.503	1.086770	0.105812	0.105510	448.709	55945.2	0.099796	0.306008	1466.33	92399.5