Folder: unikorn_login/remote_trans/data/nanoindenter/0828-1/data/Data_2025-08-06,11h17m57s (part 34)

File: 2025-07-22_16-23-58_1_66.txt
2025-07-22, 16:23:58, 1
Index	Phase	Displacement	Time	Pos X	Pos Y	Pos Z	Rot A	Rot B	Piezo Z	Force A	Force B	Gripper	Voltage A	Voltage B	Temperature	Amplitude force	Amplitude pos	Stiffness	Phase shift	Phase excitation	Force A raw	Displacement raw	HMax	HMax raw	Real Force	Real Stiffness	Contact Depth	Area	Hardness	Reduced Mod.
[#]	[#]	[um]	[s]	[um]	[um]	[um]	[m°]	[m°]	[um]	[uN]	[uN]	[V]	[V]	[V]	[°C]	[uN]	[um]	[N/m]	[°]	[°]	[uN]	[um]	[um]	[um]	[uN]	[N/m]	[um]	[um^2]	[MPa]	[MPa]
66	1.000000	0.002905	7.36569e+06	-41939.1	955.818	-29785	0.000000	0.000000	6.002830	0.030529	NaN	0.000000	0.001742	0.001634	28.1055	0.071904	0.000958	75.0775	-166.002	-170.225	0.034020	0.001589	-1.085097	-1.086413	0.030529	75.0775	-1.085402	-3.192031E+14	-9.564166E-17	NaN
66	1.000000	0.042856	7.36569e+06	-41939.1	955.819	-29785	0.000000	0.000000	6.042781	0.022212	NaN	0.000000	0.001734	0.001643	28.1038	0.013423	0.002039	6.584683	-71.0805	-168.148	0.012631	0.041553	-1.045146	-1.046448	0.022212	6.584683	-1.047676	-9.935100E+13	-2.235725E-16	NaN
66	1.000000	0.082822	7.36569e+06	-41939.1	955.818	-29785	0.000000	0.000000	6.082747	0.023463	NaN	0.000000	0.001719	0.001681	28.1059	0.038857	0.002026	19.182	-159.822	-163.268	0.035684	0.081547	-1.005180	-1.006455	0.023463	19.182	-1.006097	-2.740644E+13	-8.561276E-16	NaN
66	1.000000	0.122867	7.36569e+06	-41939.1	955.819	-29785	0.000000	0.000000	6.122792	0.009950	NaN	0.000000	0.001645	0.001683	28.105	0.050385	0.002021	24.9334	-19.2615	-167.483	0.054075	0.121525	-0.965135	-0.966477	0.009950	24.9334	-0.965434	-7.764603E+12	-1.281435E-15	NaN
66	1.000000	0.162876	7.36569e+06	-41939.1	955.818	-29785	0.000000	0.000000	6.162800	-0.019569	NaN	0.000000	0.001606	0.001694	28.1062	0.069523	0.001996	34.8228	-30.6914	-166.357	-0.044205	0.161593	-0.925126	-0.926408	-0.019569	34.8228	-0.924704	-2.191358E+12	8.929966E-15	NaN
66	1.000000	0.202917	7.36569e+06	-41939.1	955.818	-29785	0.000000	0.000000	6.202839	-0.034137	NaN	0.000000	0.001639	0.001671	28.1057	0.051714	0.002133	24.2497	1.359439	-164.545	0.011635	0.201557	-0.885085	-0.886445	-0.034137	24.2497	-0.884029	-6.182943E+11	5.521129E-14	NaN
66	1.000000	0.242917	7.36569e+06	-41939.1	955.819	-29785	0.000000	0.000000	6.242844	0.059969	NaN	0.000000	0.001661	0.001638	28.1056	0.084261	0.001923	43.8215	-40.3132	-164.453	-0.012509	0.241596	-0.845085	-0.846406	0.059969	43.8215	-0.846111	-1.897019E+11	-3.161237E-13	NaN
66	1.000000	0.282912	7.36569e+06	-41939.1	955.817	-29785	0.000000	0.000000	6.282833	-0.091900	NaN	0.000000	0.001539	0.001694	28.105	0.070637	0.001983	35.6228	-167.718	-165.191	-0.080571	0.281612	-0.805089	-0.806390	-0.091900	35.6228	-0.803154	-4.962238E+10	1.851980E-12	NaN
66	1.000000	0.322936	7.36569e+06	-41939.1	955.817	-29785	0.000000	0.000000	6.322859	-0.033027	NaN	0.000000	0.001535	0.001719	28.1058	0.046735	0.002010	23.2567	15.3775	-164.518	-0.061935	0.321601	-0.765066	-0.766401	-0.033027	23.2567	-0.764001	-1.457901E+10	2.265388E-12	NaN
66	1.000000	0.362978	7.36569e+06	-41939.1	955.818	-29785	0.000000	0.000000	6.362900	-0.056640	NaN	0.000000	0.001573	0.001709	28.1061	0.067592	0.001959	34.5095	61.0588	-164.828	-0.019576	0.361676	-0.725024	-0.726326	-0.056640	34.5095	-0.723793	-4.132279E+9	1.370664E-11	NaN
66	1.000000	0.402979	7.36569e+06	-41939.1	955.819	-29785	0.000000	0.000000	6.402901	-0.066048	NaN	0.000000	0.001653	0.001664	28.1076	0.031574	0.002041	15.4678	-163.379	-163.451	-0.041449	0.401755	-0.685022	-0.686247	-0.066048	15.4678	-0.681820	-1.104309E+9	5.980948E-11	NaN
66	1.000000	0.442981	7.36569e+06	-41939.1	955.818	-29785	0.000000	0.000000	6.442908	0.053232	NaN	0.000000	0.001631	0.001675	28.107	0.099502	0.002124	46.8428	125.115	-165.952	0.019279	0.441675	-0.645020	-0.646327	0.053232	46.8428	-0.645873	-3.555059E+8	-1.497373E-10	NaN
66	1.000000	0.483021	7.36569e+06	-41939.1	955.819	-29785	0.000000	0.000000	6.482945	0.013969	NaN	0.000000	0.001610	0.001667	28.108	0.081940	0.001918	42.7199	135.888	-164.279	0.053613	0.481717	-0.604981	-0.606285	0.013969	42.7199	-0.605226	-9.827007E+7	-1.421458E-10	NaN
66	1.000000	0.523010	7.36569e+06	-41939.1	955.818	-29785	0.000000	0.000000	6.522936	0.051928	NaN	0.000000	0.001629	0.001660	28.1062	0.068449	0.002078	32.9362	124.362	-167.464	0.008917	0.521690	-0.564992	-0.566312	0.051928	32.9362	-0.566175	-2.842918E+7	-1.826591E-9	NaN
66	1.000000	0.563053	7.36569e+06	-41939.1	955.818	-29785	0.000000	0.000000	6.562976	-0.046349	NaN	0.000000	0.001549	0.001747	28.1075	0.088575	0.002019	43.8689	132.459	-168.438	0.002611	0.561750	-0.524949	-0.526252	-0.046349	43.8689	-0.524156	-7.43674e+06	6.232425E-9	NaN
66	1.000000	0.603069	7.36569e+06	-41939.1	955.818	-29785.1	0.000000	0.000000	6.602992	-0.025240	NaN	0.000000	0.001554	0.001709	28.1066	0.145447	0.001939	74.9954	176.074	-165.755	-0.103567	0.601745	-0.484933	-0.486257	-0.025240	74.9954	-0.484680	-2.0942e+06	1.205236E-8	NaN
66	1.000000	0.643061	7.36569e+06	-41939.1	955.818	-29785.1	0.000000	0.000000	6.642984	-0.025086	NaN	0.000000	0.001541	0.001687	28.1089	0.074098	0.001919	38.6163	-64.4131	-161.828	-0.048335	0.641755	-0.444941	-0.446246	-0.025086	38.6163	-0.444453	-570408	4.397851E-8	NaN
66	1.000000	0.683095	7.36569e+06	-41939.1	955.819	-29785.1	0.000000	0.000000	6.683019	-0.021017	NaN	0.000000	0.001554	0.001695	28.108	0.042618	0.002068	20.6041	-78.1145	-162.671	-0.113588	0.681751	-0.404906	-0.406250	-0.021017	20.6041	-0.404141	-153115	1.372645E-7	NaN
66	1.000000	0.723144	7.36569e+06	-41939.1	955.818	-29785.1	0.000000	0.000000	6.723068	-0.023349	NaN	0.000000	0.001528	0.001676	28.1094	0.108702	0.002023	53.7336	35.3436	-163.586	-0.001129	0.721863	-0.364857	-0.366139	-0.023349	53.7336	-0.364531	-41427.7	5.636091E-7	NaN
66	1.000000	0.763119	7.36569e+06	-41939.1	955.818	-29785.1	0.000000	0.000000	6.763042	-0.044943	NaN	0.000000	0.001548	0.001684	28.1075	0.045321	0.001983	22.858	100.4	-165.535	-0.013697	0.761808	-0.324882	-0.326194	-0.044943	22.858	-0.323408	-10441.2	4.304376E-6	NaN
66	1.000000	0.803149	7.36569e+06	-41939.1	955.818	-29785.1	0.000000	0.000000	6.803074	0.018858	NaN	0.000000	0.001522	0.001697	28.1086	0.077149	0.002058	37.4784	123.589	-166.214	-0.053733	0.801862	-0.284853	-0.286140	0.018858	37.4784	-0.285231	-2829.65	-6.664326E-6	NaN
66	1.000000	0.843170	7.36569e+06	-41939.1	955.818	-29785.1	0.000000	0.000000	6.843095	0.011395	NaN	0.000000	0.001565	0.001694	28.1075	0.111471	0.001939	57.4747	57.5849	-167.43	-0.039004	0.841862	-0.244831	-0.246140	0.011395	57.4747	-0.244980	-687.292	-1.658009E-5	NaN
66	1.000000	0.883173	7.36569e+06	-41939.1	955.819	-29785.1	0.000000	0.000000	6.883096	-0.025399	NaN	0.000000	0.001561	0.001686	28.1095	0.029855	0.001988	15.0195	-134.881	-165.032	-0.096050	0.881856	-0.204829	-0.206146	-0.025399	15.0195	-0.203560	-150.679	0.000169	NaN
66	1.000000	0.923164	7.36569e+06	-41939.1	955.818	-29785.1	0.000000	0.000000	6.923088	0.004866	NaN	0.000000	0.001559	0.001654	28.1094	0.046370	0.002033	22.8044	84.4166	-164.081	-0.040118	0.921871	-0.164838	-0.166131	0.004866	22.8044	-0.164998	-33.5946	-0.000145	NaN
66	1.000000	0.963233	7.36569e+06	-41939.1	955.819	-29785.1	0.000000	0.000000	6.963158	0.010976	NaN	0.000000	0.001580	0.001691	28.1112	0.121923	0.001970	61.8805	92.6978	-165.501	-0.055658	0.961893	-0.124769	-0.126109	0.010976	61.8805	-0.124902	-6.054166	-0.001813	NaN
66	1.000000	1.003213	7.36569e+06	-41939.1	955.819	-29785.1	0.000000	0.000000	7.003134	-0.081899	NaN	0.000000	0.001568	0.001670	28.1101	0.092558	0.001955	47.3413	-157.576	-164.065	0.015652	1.001914	-0.084789	-0.086088	-0.081899	47.3413	-0.083491	-0.755076	0.108465	NaN
66	1.000000	1.043259	7.36569e+06	-41939.1	955.819	-29785.1	0.000000	0.000000	7.043182	-0.039979	NaN	0.000000	0.001633	0.001688	28.1101	0.048009	0.002016	23.8096	132.453	-166.914	-0.057704	1.041968	-0.044743	-0.046034	-0.039979	23.8096	-0.043484	-0.057758	0.692181	NaN
66	1.000000	1.083226	7.3657e+06	-41939.1	955.819	-29785.1	0.000000	0.000000	7.083149	-0.026567	NaN	0.000000	0.001628	0.001673	28.1095	0.024531	0.001993	12.3108	105.322	-166.441	-0.115814	1.081940	-0.004776	-0.006062	-0.026567	12.3108	-0.003157	-0.002226	11.9371	NaN
66	2.000000	1.101907	7.3657e+06	-41939.1	955.819	-29785.1	0.000000	0.000000	7.102651	19.9491	NaN	0.000000	0.001590	0.001682	28.1107	17.1223	0.001755	9757.32	9.368243	-179.469	18.9666	1.101609	0.013905	0.013607	19.9491	9757.32	0.012372	0.011939	1670.95	81587.6
66	2.000000	1.111881	7.3657e+06	-41939.1	955.819	-29785.1	0.000000	0.000000	7.113682	45.6736	NaN	0.000000	0.001554	0.001744	28.1098	27.006	0.001670	16171.7	2.615807	-178.549	45.5628	1.111619	0.023879	0.023618	45.6736	16171.7	0.021761	0.025385	1799.24	92734.5
66	2.000000	1.121808	7.3657e+06	-41939.1	955.818	-29785.1	0.000000	0.000000	7.125009	79.728	NaN	0.000000	0.001572	0.001714	28.1121	37.8318	0.001801	21005.5	8.485291	174.017	78.0254	1.121553	0.033807	0.033551	79.728	21005.5	0.030960	0.042757	1864.68	92811.8
66	2.000000	1.131766	7.3657e+06	-41939.1	955.819	-29785.1	0.000000	0.000000	7.136751	123.129	NaN	0.000000	0.001540	0.001720	28.1115	47.7354	0.001711	27904.2	3.623535	176.551	120.2	1.131508	0.043764	0.043506	123.129	27904.2	0.040455	0.065209	1888.23	99836.7
66	2.000000	1.141759	7.3657e+06	-41939.1	955.82	-29785.1	0.000000	0.000000	7.148624	168.892	NaN	0.000000	0.001583	0.001705	28.1127	58.0936	0.001870	31070.8	5.313193	174.131	165.543	1.141549	0.053757	0.053547	168.892	31070.8	0.049680	0.091427	1847.29	93883.5
66	2.000000	1.151839	7.3657e+06	-41939.1	955.819	-29785.1	0.000000	0.000000	7.160760	218.902	NaN	0.000000	0.001570	0.001652	28.1107	66.5474	0.001713	38843.7	3.634265	174.149	220.873	1.151514	0.063837	0.063512	218.902	38843.7	0.059611	0.124417	1759.43	100613
66	2.000000	1.161780	7.3657e+06	-41939.1	955.82	-29785.1	0.000000	0.000000	7.173316	282.516	NaN	0.000000	0.001641	0.001718	28.112	77.403	0.001967	39350.4	4.429189	173.914	282.074	1.161424	0.073779	0.073422	282.516	39350.4	0.068394	0.157617	1792.42	90556.9
66	2.000000	1.171713	7.3657e+06	-41939.1	955.819	-29785.1	0.000000	0.000000	7.185994	349.32	NaN	0.000000	0.001623	0.001692	28.1107	86.8714	0.001722	50440.7	3.694590	171.857	345.068	1.171470	0.083711	0.083469	349.32	50440.7	0.078517	0.200450	1742.68	102932
66	2.000000	1.181694	7.3657e+06	-41939.1	955.819	-29785.1	0.000000	0.000000	7.199367	431.854	NaN	0.000000	0.001606	0.001696	28.1126	97.0618	0.001832	52973.6	4.865150	170.804	426.922	1.181452	0.093692	0.093450	431.854	52973.6	0.087578	0.242853	1778.25	98211.3
66	2.000000	1.191740	7.3657e+06	-41939.1	955.82	-29785.1	0.000000	0.000000	7.212886	516.356	NaN	0.000000	0.001546	0.001709	28.1127	106.028	0.001781	59530.2	3.264798	171.299	514.671	1.191505	0.103738	0.103504	516.356	59530.2	0.097233	0.292194	1767.17	100618
66	2.000000	1.193207	7.3657e+06	-41939.1	955.819	-29785.1	0.000000	0.000000	7.214979	531.593	NaN	0.000000	0.001574	0.001700	28.1245	106.469	0.001773	60034.1	3.490069	-8.924269	525.559	1.192944	0.105205	0.104942	531.593	60034.1	0.098564	0.299329	1775.95	100253

File: 2025-07-22_16-23-58_1_67.txt
2025-07-22, 16:23:58, 1
Index	Phase	Displacement	Time	Pos X	Pos Y	Pos Z	Rot A	Rot B	Piezo Z	Force A	Force B	Gripper	Voltage A	Voltage B	Temperature	Amplitude force	Amplitude pos	Stiffness	Phase shift	Phase excitation	Force A raw	Displacement raw	HMax	HMax raw	Real Force	Real Stiffness	Contact Depth	Area	Hardness	Reduced Mod.
[#]	[#]	[um]	[s]	[um]	[um]	[um]	[m°]	[m°]	[um]	[uN]	[uN]	[V]	[V]	[V]	[°C]	[uN]	[um]	[N/m]	[°]	[°]	[uN]	[um]	[um]	[um]	[uN]	[N/m]	[um]	[um^2]	[MPa]	[MPa]
67	1.000000	0.002702	7.3657e+06	-41989.1	955.819	-29784.9	0.000000	0.000000	6.002805	0.007107	NaN	0.000000	0.001601	0.001649	28.0825	0.059852	0.001015	58.9456	-137.717	-166.167	0.051984	0.001495	-1.090393	-1.091600	0.007107	58.9456	-1.090484	-3.735152E+14	-1.902719E-17	NaN
67	1.000000	0.042648	7.3657e+06	-41989.1	955.818	-29784.9	0.000000	0.000000	6.042751	0.006229	NaN	0.000000	0.001603	0.001657	28.0822	0.071913	0.001927	37.3188	105.395	-165.544	0.039765	0.041327	-1.050447	-1.051768	0.006229	37.3188	-1.050572	-1.086682E+14	-5.732037E-17	NaN
67	1.000000	0.082681	7.3657e+06	-41989.1	955.818	-29784.9	0.000000	0.000000	6.082785	0.037019	NaN	0.000000	0.001578	0.001646	28.0817	0.108043	0.001972	54.7825	173.752	-170.238	0.011802	0.081387	-1.010414	-1.011708	0.037019	54.7825	-1.010921	-3.182555E+13	-1.163187E-15	NaN
67	1.000000	0.122678	7.3657e+06	-41989.1	955.819	-29784.9	0.000000	0.000000	6.122782	0.017822	NaN	0.000000	0.001580	0.001667	28.0818	0.069903	0.001953	35.801	159.504	-164.794	0.045615	0.121386	-0.970417	-0.971709	0.017822	35.801	-0.970790	-9.168841E+12	-1.943750E-15	NaN
67	1.000000	0.162690	7.3657e+06	-41989.1	955.819	-29784.8	0.000000	0.000000	6.162792	-0.017127	NaN	0.000000	0.001589	0.001657	28.083	0.179107	0.001962	91.2911	-137.88	-165.345	0.032322	0.161414	-0.930405	-0.931681	-0.017127	91.2911	-0.930264	-2.604721E+12	6.575477E-15	NaN
67	1.000000	0.202724	7.3657e+06	-41989.1	955.82	-29784.8	0.000000	0.000000	6.202825	-0.041392	NaN	0.000000	0.001625	0.001639	28.0812	0.010886	0.002034	5.351096	89.1083	-168.929	0.043082	0.201339	-0.890371	-0.891756	-0.041392	5.351096	-0.884570	-6.287813E+11	6.582829E-14	NaN
67	1.000000	0.242763	7.3657e+06	-41989.1	955.818	-29784.8	0.000000	0.000000	6.242866	-0.015208	NaN	0.000000	0.001647	0.001632	28.0819	0.134211	0.002014	66.6523	-114.346	-166.233	-0.005207	0.241457	-0.850332	-0.851638	-0.015208	66.6523	-0.850160	-2.152339E+11	7.065803E-14	NaN
67	1.000000	0.282759	7.3657e+06	-41989.1	955.819	-29784.8	0.000000	0.000000	6.282862	0.018937	NaN	0.000000	0.001547	0.001650	28.0816	0.047511	0.002073	22.9226	28.8731	-167.201	0.046679	0.281476	-0.810337	-0.811620	0.018937	22.9226	-0.810956	-6.332040E+10	-2.990651E-13	NaN
67	1.000000	0.322753	7.3657e+06	-41989.1	955.818	-29784.8	0.000000	0.000000	6.322856	-0.002067	NaN	0.000000	0.001635	0.001686	28.0829	0.083782	0.002066	40.5439	162.158	-165.523	-0.044017	0.321468	-0.770342	-0.771627	-0.002067	40.5439	-0.770304	-1.775975E+10	1.163654E-13	NaN
67	1.000000	0.362783	7.3657e+06	-41989.1	955.818	-29784.8	0.000000	0.000000	6.362886	-0.005649	NaN	0.000000	0.001586	0.001639	28.0821	0.011776	0.001975	5.962624	-1.283111	-165.98	0.004016	0.361487	-0.730312	-0.731608	-0.005649	5.962624	-0.729602	-4.958811E+9	1.139210E-12	NaN
67	1.000000	0.402781	7.3657e+06	-41989.1	955.818	-29784.8	0.000000	0.000000	6.402881	-0.067150	NaN	0.000000	0.001553	0.001670	28.0832	0.075979	0.001790	42.4542	-133.758	-166.503	0.079929	0.401511	-0.690314	-0.691584	-0.067150	42.4542	-0.689128	-1.389943E+9	4.831164E-11	NaN
67	1.000000	0.442828	7.3657e+06	-41989.1	955.818	-29784.8	0.000000	0.000000	6.442927	-0.079408	NaN	0.000000	0.001626	0.001651	28.0823	0.125529	0.002028	61.9129	-36.9754	-166.251	0.004398	0.441497	-0.650267	-0.651598	-0.079408	61.9129	-0.649305	-3.961988E+8	2.004249E-10	NaN
67	1.000000	0.482828	7.3657e+06	-41989.1	955.819	-29784.8	0.000000	0.000000	6.482930	-0.036648	NaN	0.000000	0.001561	0.001735	28.0841	0.082820	0.001998	41.4486	38.2302	-170.163	-0.056139	0.481549	-0.610267	-0.611546	-0.036648	41.4486	-0.609604	-1.128917E+8	3.246339E-10	NaN
67	1.000000	0.522881	7.3657e+06	-41989.1	955.819	-29784.8	0.000000	0.000000	6.522986	0.055648	NaN	0.000000	0.001540	0.001729	28.0817	0.090209	0.002108	42.8012	24.416	-165.406	0.085462	0.521507	-0.570214	-0.571589	0.055648	42.8012	-0.571190	-3.334781E+7	-1.668713E-9	NaN
67	1.000000	0.562884	7.3657e+06	-41989.1	955.819	-29784.8	0.000000	0.000000	6.562985	-0.053940	NaN	0.000000	0.001636	0.001738	28.0828	0.144287	0.002129	67.7753	-49.0425	-167.365	-0.074542	0.561601	-0.530211	-0.531494	-0.053940	67.7753	-0.529614	-8.85549e+06	6.091129E-9	NaN
67	1.000000	0.602867	7.3657e+06	-41989.1	955.818	-29784.8	0.000000	0.000000	6.602974	0.101187	NaN	0.000000	0.001659	0.001707	28.0822	0.132376	0.001933	68.4847	-65.003	-168.545	0.111090	0.601627	-0.490228	-0.491468	0.101187	68.4847	-0.491336	-2.59452e+06	-3.900035E-8	NaN
67	1.000000	0.642921	7.3657e+06	-41989.1	955.818	-29784.8	0.000000	0.000000	6.643024	0.007602	NaN	0.000000	0.001624	0.001657	28.0859	0.076821	0.002065	37.2036	151.616	-166.885	0.027947	0.641614	-0.450174	-0.451481	0.007602	37.2036	-0.450327	-690165	-1.101468E-8	NaN
67	1.000000	0.682911	7.3657e+06	-41989.1	955.818	-29784.8	0.000000	0.000000	6.683013	0.000468	NaN	0.000000	0.001610	0.001701	28.083	0.093165	0.002009	46.3691	-171.171	-164.993	-0.044391	0.681612	-0.410184	-0.411483	0.000468	46.3691	-0.410192	-186695	-2.505056E-9	NaN
67	1.000000	0.722916	7.3657e+06	-41989.1	955.818	-29784.8	0.000000	0.000000	6.723020	0.042644	NaN	0.000000	0.001587	0.001724	28.0853	0.121332	0.002084	58.2167	-2.718321	-168.895	0.057387	0.721646	-0.370179	-0.371449	0.042644	58.2167	-0.370729	-50888.3	-8.379932E-7	NaN
67	1.000000	0.762955	7.3657e+06	-41989.1	955.818	-29784.8	0.000000	0.000000	6.763057	-0.021801	NaN	0.000000	0.001550	0.001717	28.0835	0.060155	0.002018	29.8057	-116.203	-164.734	-0.034321	0.761657	-0.330140	-0.331438	-0.021801	29.8057	-0.329591	-12866.6	1.694365E-6	NaN
67	1.000000	0.802966	7.3657e+06	-41989.1	955.819	-29784.8	0.000000	0.000000	6.803069	0.019709	NaN	0.000000	0.001585	0.001751	28.0837	0.005459	0.001893	2.884213	-168.736	-164.563	-0.031285	0.801769	-0.290130	-0.291327	0.019709	2.884213	-0.295255	-3998.44	-4.929170E-6	NaN
67	1.000000	0.842976	7.3657e+06	-41989.1	955.818	-29784.8	0.000000	0.000000	6.843078	-0.018117	NaN	0.000000	0.001576	0.001727	28.0821	0.044095	0.002025	21.7759	91.1539	-168.954	0.093313	0.841668	-0.250119	-0.251427	-0.018117	21.7759	-0.249495	-807.528	2.243531E-5	NaN
67	1.000000	0.883011	7.3657e+06	-41989.1	955.818	-29784.8	0.000000	0.000000	6.883116	0.044263	NaN	0.000000	0.001573	0.001723	28.0839	0.004163	0.002047	2.033766	-165.471	-170.75	0.040930	0.881729	-0.210084	-0.211366	0.044263	2.033766	-0.226407	-351.288	-0.000126	NaN
67	1.000000	0.923011	7.3657e+06	-41989.1	955.818	-29784.8	0.000000	0.000000	6.923114	0.012312	NaN	0.000000	0.001579	0.001738	28.0846	0.117954	0.001995	59.128	-50.6937	-165.367	0.060280	0.921716	-0.170084	-0.171379	0.012312	59.128	-0.170240	-41.4747	-0.000297	NaN
67	1.000000	0.963062	7.3657e+06	-41989.1	955.819	-29784.8	0.000000	0.000000	6.963166	0.028756	NaN	0.000000	0.001589	0.001754	28.0845	0.037441	0.001909	19.6129	-136.296	-168.569	-0.002343	0.961736	-0.130033	-0.131359	0.028756	19.6129	-0.131133	-8.016361	-0.003587	NaN
67	1.000000	1.003071	7.3657e+06	-41989.1	955.819	-29784.8	0.000000	0.000000	7.003174	-0.007485	NaN	0.000000	0.001589	0.001759	28.0841	0.062234	0.001967	31.6342	-118.958	-167.431	-0.020314	1.001701	-0.090024	-0.091395	-0.007485	31.6342	-0.089846	-1.072037	0.006982	NaN
67	1.000000	1.043047	7.3657e+06	-41989.1	955.819	-29784.8	0.000000	0.000000	7.043148	-0.029001	NaN	0.000000	0.001589	0.001781	28.0832	0.080857	0.002016	40.1031	-159.222	-169.644	-0.047016	1.041743	-0.050048	-0.051352	-0.029001	40.1031	-0.049506	-0.088162	0.328955	NaN
67	1.000000	1.083061	7.3657e+06	-41989.1	955.819	-29784.8	0.000000	0.000000	7.083164	0.008029	NaN	0.000000	0.001562	0.001697	28.0829	0.057045	0.002086	27.3425	70.6868	-170.909	-0.064213	1.081763	-0.010034	-0.011332	0.008029	27.3425	-0.010255	-0.006533	-1.228977	NaN
67	2.000000	1.106640	7.3657e+06	-41989.1	955.819	-29784.8	0.000000	0.000000	7.107439	16.9507	NaN	0.000000	0.001560	0.001701	28.083	14.515	0.001875	7739.81	6.099519	-172.426	16.5515	1.106297	0.013545	0.013202	16.9507	7739.81	0.011902	0.011373	1490.44	66308.3
67	2.000000	1.116586	7.3657e+06	-41989.1	955.82	-29784.8	0.000000	0.000000	7.118263	38.2956	NaN	0.000000	0.001524	0.001720	28.0841	25.1093	0.001775	14148.2	7.941170	178.962	37.9157	1.116220	0.023491	0.023124	38.2956	14148.2	0.021461	0.024891	1538.54	81932.2
67	2.000000	1.126526	7.36571e+06	-41989.1	955.819	-29784.8	0.000000	0.000000	7.129482	69.4219	NaN	0.000000	0.001553	0.001714	28.0863	35.7618	0.001847	19365.7	3.662209	179.445	67.2251	1.126280	0.033431	0.033185	69.4219	19365.7	0.030743	0.042297	1641.29	86030.3
67	2.000000	1.136525	7.36571e+06	-41989.1	955.819	-29784.8	0.000000	0.000000	7.141025	106.984	NaN	0.000000	0.001648	0.001659	28.0845	44.6527	0.001728	25837.9	2.637630	177.446	104.759	1.136332	0.043430	0.043237	106.984	25837.9	0.040325	0.064871	1649.18	92684.1
67	2.000000	1.146514	7.36571e+06	-41989.1	955.819	-29784.8	0.000000	0.000000	7.153099	157.739	NaN	0.000000	0.001535	0.001674	28.0865	54.6256	0.001851	29504.7	6.057496	174.145	155.766	1.146188	0.053419	0.053093	157.739	29504.7	0.049409	0.090595	1741.13	89559.6
67	2.000000	1.156505	7.36571e+06	-41989.1	955.819	-29784.8	0.000000	0.000000	7.164934	202.571	NaN	0.000000	0.001568	0.001695	28.0833	63.9015	0.001697	37655.8	1.627003	176.525	201.008	1.156325	0.063410	0.063230	202.571	37655.8	0.059376	0.123579	1639.21	97866.3
67	2.000000	1.166505	7.36571e+06	-41989.1	955.82	-29784.8	0.000000	0.000000	7.177764	271.443	NaN	0.000000	0.001572	0.001726	28.0845	73.5357	0.001686	43626.7	5.009238	171.595	271.306	1.166146	0.073410	0.073051	271.443	43626.7	0.068744	0.159014	1707.04	99955.6
67	2.000000	1.176495	7.36571e+06	-41989.1	955.82	-29784.8	0.000000	0.000000	7.190492	338.069	NaN	0.000000	0.001548	0.001711	28.0846	82.0791	0.001813	45280.5	4.472921	172.236	336.682	1.176223	0.083400	0.083128	338.069	45280.5	0.077801	0.197260	1713.82	93146
67	2.000000	1.186524	7.36571e+06	-41989.1	955.819	-29784.8	0.000000	0.000000	7.203493	410.393	NaN	0.000000	0.001558	0.001648	28.0848	91.7552	0.001856	49441.3	6.254408	169.981	411.731	1.186343	0.093429	0.093248	410.393	49441.3	0.087203	0.241025	1702.7	92009.4
67	2.000000	1.196504	7.36571e+06	-41989.1	955.82	-29784.8	0.000000	0.000000	7.216986	495.864	NaN	0.000000	0.001550	0.001734	28.0854	100.161	0.001816	55162.8	5.307494	170.657	495.684	1.196058	0.103409	0.102963	495.864	55162.8	0.096667	0.289185	1714.69	93719.9
67	2.000000	1.199464	7.36571e+06	-41989.1	955.819	-29784.8	0.000000	0.000000	7.220979	520.979	NaN	0.000000	0.001513	0.001740	28.1154	103.015	0.001784	57756.9	2.593118	173.072	519.243	1.199168	0.106369	0.106073	520.979	57756.9	0.099604	0.304963	1708.34	95555.1