Folder: unikorn_login/remote_trans/data/nanoindenter/0828-1/data/Data_2025-08-06,11h17m57s (part 3)

File: 2025-07-22_16-23-58_1_3.txt
2025-07-22, 16:23:58, 1
Index	Phase	Displacement	Time	Pos X	Pos Y	Pos Z	Rot A	Rot B	Piezo Z	Force A	Force B	Gripper	Voltage A	Voltage B	Temperature	Amplitude force	Amplitude pos	Stiffness	Phase shift	Phase excitation	Force A raw	Displacement raw	HMax	HMax raw	Real Force	Real Stiffness	Contact Depth	Area	Hardness	Reduced Mod.
[#]	[#]	[um]	[s]	[um]	[um]	[um]	[m°]	[m°]	[um]	[uN]	[uN]	[V]	[V]	[V]	[°C]	[uN]	[um]	[N/m]	[°]	[°]	[uN]	[um]	[um]	[um]	[uN]	[N/m]	[um]	[um^2]	[MPa]	[MPa]
3.000000	1.000000	0.002500	7.36507e+06	-38789.1	955.819	-29797	0.000000	0.000000	6.002825	-0.019289	NaN	0.000000	0.001660	0.001661	28.1126	0.019656	0.000902	21.7806	19.7145	-167.598	0.019707	0.001267	-1.024817	-1.026050	-0.019289	21.7806	-1.024153	-4.795420E+13	4.022430E-16	NaN
3.000000	1.000000	0.042457	7.36507e+06	-38789.1	955.818	-29797	0.000000	0.000000	6.042782	-0.018283	NaN	0.000000	0.001679	0.001698	28.1127	0.045712	0.002035	22.46	-178.706	-164.598	0.039478	0.041178	-0.984859	-0.986139	-0.018283	22.46	-0.984249	-1.392034E+13	1.313402E-15	NaN
3.000000	1.000000	0.082463	7.36507e+06	-38789.1	955.818	-29797	0.000000	0.000000	6.082789	-0.000843	NaN	0.000000	0.001584	0.001668	28.1136	0.016980	0.002035	8.342193	107.644	-166.054	-0.011440	0.081119	-0.944854	-0.946198	-0.000843	8.342193	-0.944778	-4.088818E+12	2.060809E-16	NaN
3.000000	1.000000	0.122444	7.36507e+06	-38789.1	955.819	-29797	0.000000	0.000000	6.122771	0.014053	NaN	0.000000	0.001638	0.001697	28.1117	0.011527	0.002091	5.512804	66.105	-164.93	0.036856	0.121163	-0.904873	-0.906154	0.014053	5.512804	-0.906784	-1.255241E+12	-1.119556E-14	NaN
3.000000	1.000000	0.162484	7.36507e+06	-38789.1	955.819	-29797	0.000000	0.000000	6.162810	0.003622	NaN	0.000000	0.001636	0.001677	28.1126	0.059120	0.002022	29.2417	-170.831	-162.938	-0.014602	0.161176	-0.864832	-0.866141	0.003622	29.2417	-0.864925	-3.410183E+11	-1.062175E-14	NaN
3.000000	1.000000	0.202508	7.36507e+06	-38789.1	955.819	-29797	0.000000	0.000000	6.202833	-0.016129	NaN	0.000000	0.001615	0.001667	28.1109	0.046110	0.002006	22.9864	141.249	-163.702	0.043927	0.201173	-0.824809	-0.826144	-0.016129	22.9864	-0.824283	-9.600223E+10	1.680079E-13	NaN
3.000000	1.000000	0.242507	7.36507e+06	-38789.1	955.818	-29797	0.000000	0.000000	6.242832	-0.021801	NaN	0.000000	0.001602	0.001653	28.111	0.095281	0.002117	45.0083	63.1712	-166.894	-0.051008	0.241206	-0.784809	-0.786111	-0.021801	45.0083	-0.784446	-2.764660E+10	7.885711E-13	NaN
3.000000	1.000000	0.282540	7.36507e+06	-38789.1	955.818	-29797	0.000000	0.000000	6.282867	0.017577	NaN	0.000000	0.001550	0.001676	28.11	0.035913	0.001940	18.5118	-166.671	-165.759	-0.037567	0.281215	-0.744776	-0.746102	0.017577	18.5118	-0.745489	-8.162087E+9	-2.153447E-12	NaN
3.000000	1.000000	0.322543	7.36507e+06	-38789.1	955.818	-29797	0.000000	0.000000	6.322868	-0.011085	NaN	0.000000	0.001592	0.001630	28.1118	0.041016	0.002085	19.6745	46.9598	-163.382	-0.030503	0.321218	-0.704774	-0.706099	-0.011085	19.6745	-0.704351	-2.243589E+9	4.940561E-12	NaN
3.000000	1.000000	0.362580	7.36507e+06	-38789.1	955.818	-29797	0.000000	0.000000	6.362909	0.080890	NaN	0.000000	0.001583	0.001668	28.1106	0.042058	0.002012	20.9043	119.053	-164.412	0.088718	0.361314	-0.664737	-0.666003	0.080890	20.9043	-0.667639	-7.064374E+8	-1.145039E-10	NaN
3.000000	1.000000	0.402608	7.36507e+06	-38789.1	955.817	-29797	0.000000	0.000000	6.402933	-0.017920	NaN	0.000000	0.001595	0.001703	28.1117	0.030328	0.002153	14.0897	-150.25	-163.138	0.013250	0.401286	-0.624709	-0.626031	-0.017920	14.0897	-0.623755	-1.767003E+8	1.014149E-10	NaN
3.000000	1.000000	0.442611	7.36508e+06	-38789.1	955.818	-29797	0.000000	0.000000	6.442936	-0.014549	NaN	0.000000	0.001620	0.001675	28.1097	0.055250	0.002182	25.3231	-36.3175	-166.594	-0.010916	0.441299	-0.584706	-0.586018	-0.014549	25.3231	-0.584275	-5.054931E+7	2.878081E-10	NaN
3.000000	1.000000	0.482628	7.36508e+06	-38789.1	955.818	-29797	0.000000	0.000000	6.482954	-0.002928	NaN	0.000000	0.001571	0.001681	28.1094	0.064649	0.002047	31.5901	116.733	-166.844	0.040586	0.481323	-0.544688	-0.545993	-0.002928	31.5901	-0.544619	-1.430206E+7	2.046943E-10	NaN
3.000000	1.000000	0.522611	7.36508e+06	-38789.1	955.818	-29797	0.000000	0.000000	6.522938	0.017361	NaN	0.000000	0.001571	0.001673	28.1083	0.017814	0.002006	8.881538	91.2739	-163.774	-0.010091	0.521324	-0.504706	-0.505993	0.017361	8.881538	-0.506172	-4.17905e+06	-4.154407E-9	NaN
3.000000	1.000000	0.562639	7.36508e+06	-38789.1	955.818	-29797	0.000000	0.000000	6.562967	0.057731	NaN	0.000000	0.001600	0.001720	28.1093	0.057763	0.001902	30.3635	-124.579	-164.264	0.030031	0.561371	-0.464678	-0.465946	0.057731	30.3635	-0.466104	-1.15013e+06	-5.019512E-8	NaN
3.000000	1.000000	0.602672	7.36508e+06	-38789.1	955.817	-29797	0.000000	0.000000	6.602999	0.050708	NaN	0.000000	0.001595	0.001652	28.1093	0.156137	0.001986	78.6078	-115.762	-165.039	-0.031415	0.601339	-0.424645	-0.425977	0.050708	78.6078	-0.425129	-304166	-1.667127E-7	NaN
3.000000	1.000000	0.642692	7.36508e+06	-38789.1	955.818	-29797	0.000000	0.000000	6.643018	-0.012330	NaN	0.000000	0.001604	0.001738	28.1113	0.123394	0.002018	61.1589	-131.071	-164.581	-0.001656	0.641407	-0.384624	-0.385910	-0.012330	61.1589	-0.384473	-80174.5	1.537885E-7	NaN
3.000000	1.000000	0.682710	7.36508e+06	-38789.1	955.819	-29797	0.000000	0.000000	6.683035	-0.018169	NaN	0.000000	0.001548	0.001756	28.1086	0.106328	0.002081	51.0965	-11.6355	-164.488	-0.017250	0.681392	-0.344607	-0.345925	-0.018169	51.0965	-0.344340	-21123.3	8.601180E-7	NaN
3.000000	1.000000	0.722745	7.36508e+06	-38789.1	955.818	-29797	0.000000	0.000000	6.723072	0.008698	NaN	0.000000	0.001625	0.001749	28.1086	0.092458	0.002014	45.9087	115.628	-167.493	-0.019271	0.721418	-0.304571	-0.305898	0.008698	45.9087	-0.304714	-5529.72	-1.572926E-6	NaN
3.000000	1.000000	0.762682	7.36508e+06	-38789.1	955.818	-29797	0.000000	0.000000	6.763007	-0.014513	NaN	0.000000	0.001580	0.001748	28.1073	0.037088	0.002016	18.3946	163.029	-163.247	-0.032986	0.761434	-0.264635	-0.265883	-0.014513	18.3946	-0.264043	-1351.37	1.073935E-5	NaN
3.000000	1.000000	0.802747	7.36508e+06	-38789.1	955.818	-29797	0.000000	0.000000	6.803074	0.029459	NaN	0.000000	0.001588	0.001722	28.1085	0.058453	0.001928	30.3234	160.28	-162.944	0.096063	0.801444	-0.224570	-0.225873	0.029459	30.3234	-0.225298	-337.344	-8.732572E-5	NaN
3.000000	1.000000	0.842753	7.36508e+06	-38789.1	955.818	-29797	0.000000	0.000000	6.843079	-0.007981	NaN	0.000000	0.001554	0.001742	28.1089	0.068714	0.001937	35.4685	79.228	-168.722	-0.020626	0.841458	-0.184564	-0.185859	-0.007981	35.4685	-0.184395	-72.4312	0.000110	NaN
3.000000	1.000000	0.882808	7.36508e+06	-38789.1	955.818	-29797	0.000000	0.000000	6.883135	0.037257	NaN	0.000000	0.001542	0.001754	28.1099	0.029038	0.001825	15.9138	-118.889	-163.14	0.057941	0.881475	-0.144509	-0.145842	0.037257	15.9138	-0.146265	-15.471	-0.002408	NaN
3.000000	1.000000	0.922799	7.36508e+06	-38789.1	955.819	-29797	0.000000	0.000000	6.923127	0.037957	NaN	0.000000	0.001619	0.001711	28.1081	0.067655	0.001965	34.4338	174.563	-160.88	-0.033823	0.921480	-0.104518	-0.105837	0.037957	34.4338	-0.105344	-2.391133	-0.015874	NaN
3.000000	1.000000	0.962847	7.36508e+06	-38789.1	955.818	-29797	0.000000	0.000000	6.963174	0.016237	NaN	0.000000	0.001671	0.001721	28.108	0.044021	0.002153	20.4447	1.855343	-162.368	0.024919	0.961477	-0.064469	-0.065840	0.016237	20.4447	-0.065065	-0.250254	-0.064883	NaN
3.000000	1.000000	1.002833	7.36508e+06	-38789.1	955.818	-29797	0.000000	0.000000	7.003158	-0.031531	NaN	0.000000	0.001637	0.001732	28.1059	0.048379	0.001943	24.893	23.0296	-167.123	-0.034638	1.001551	-0.024484	-0.025765	-0.031531	24.893	-0.023534	-0.015457	2.039994	NaN
3.000000	2.000000	1.037379	7.36508e+06	-38789.1	955.818	-29797	0.000000	0.000000	7.038168	11.2788	NaN	0.000000	0.001614	0.001694	28.1068	11.1158	0.001742	6379.28	8.645282	-175.54	10.699	1.037038	0.010062	0.009722	11.2788	6379.28	0.008736	0.007810	1444.12	65950.1
3.000000	2.000000	1.047310	7.36508e+06	-38789.1	955.818	-29797	0.000000	0.000000	7.048943	31.802	NaN	0.000000	0.001617	0.001699	28.1057	20.8165	0.001643	12672.4	2.300664	-174.468	31.1259	1.046954	0.019993	0.019637	31.802	12672.4	0.018111	0.019660	1617.57	82572.7
3.000000	2.000000	1.057258	7.36508e+06	-38789.1	955.818	-29797	0.000000	0.000000	7.059478	46.0927	NaN	0.000000	0.001694	0.001690	28.1073	29.8572	0.001775	16820.3	7.168264	179.037	45.2434	1.056969	0.029941	0.029652	46.0927	16820.3	0.027886	0.036476	1263.64	80464.4
3.000000	2.000000	1.067295	7.36508e+06	-38789.1	955.819	-29797	0.000000	0.000000	7.070394	67.4881	NaN	0.000000	0.001695	0.001740	28.105	39.0867	0.001818	21498.9	4.712986	178.789	66.2913	1.067072	0.039978	0.039755	67.4881	21498.9	0.037624	0.058032	1162.95	81537.2
3.000000	2.000000	1.077203	7.36508e+06	-38789.1	955.819	-29797	0.000000	0.000000	7.082140	112.216	NaN	0.000000	0.001645	0.001724	28.107	49.3536	0.001779	27746.8	5.161528	176.37	109.171	1.076971	0.049886	0.049654	112.216	27746.8	0.046853	0.082936	1353.05	88026.9
3.000000	2.000000	1.087192	7.36508e+06	-38789.1	955.817	-29797	0.000000	0.000000	7.094043	158.8	NaN	0.000000	0.001622	0.001713	28.1058	59.6166	0.001910	31219.1	1.742243	179.254	155.051	1.086945	0.059875	0.059628	158.8	31219.1	0.056060	0.112061	1417.1	85205.4
3.000000	2.000000	1.097303	7.36508e+06	-38789.1	955.818	-29797	0.000000	0.000000	7.105906	201.436	NaN	0.000000	0.001641	0.001732	28.1059	70.892	0.001909	37127.5	6.750480	173.209	205.809	1.096959	0.069986	0.069642	201.436	37127.5	0.065917	0.147876	1362.2	88210.6
3.000000	2.000000	1.107152	7.36508e+06	-38789.1	955.818	-29797	0.000000	0.000000	7.118094	258.37	NaN	0.000000	0.001648	0.001715	28.1049	79.2331	0.001889	41953.8	2.532357	176.133	253.634	1.106901	0.079835	0.079584	258.37	41953.8	0.075216	0.185951	1389.46	88888.5
3.000000	2.000000	1.117193	7.36508e+06	-38789.1	955.818	-29797	0.000000	0.000000	7.130869	324.87	NaN	0.000000	0.001624	0.001772	28.1049	88.9227	0.001811	49101.6	4.694195	172.79	322.853	1.116831	0.089876	0.089514	324.87	49101.6	0.084914	0.229992	1412.53	93543.3
3.000000	2.000000	1.127203	7.36508e+06	-38789.1	955.818	-29797	0.000000	0.000000	7.143902	398.446	NaN	0.000000	0.001699	0.001745	28.105	97.933	0.001849	52964.4	10.6456	166.415	399.556	1.126916	0.099886	0.099599	398.446	52964.4	0.094244	0.276463	1441.23	92032
3.000000	2.000000	1.134151	7.36508e+06	-38789.1	955.817	-29797	0.000000	0.000000	7.152989	450.517	NaN	0.000000	0.001662	0.001713	28.0936	102.494	0.001899	53977.6	7.242752	169.818	448.45	1.133842	0.106834	0.106525	450.517	53977.6	0.100574	0.310259	1452.07	88536.8

File: 2025-07-22_16-23-58_1_4.txt
2025-07-22, 16:23:58, 1
Index	Phase	Displacement	Time	Pos X	Pos Y	Pos Z	Rot A	Rot B	Piezo Z	Force A	Force B	Gripper	Voltage A	Voltage B	Temperature	Amplitude force	Amplitude pos	Stiffness	Phase shift	Phase excitation	Force A raw	Displacement raw	HMax	HMax raw	Real Force	Real Stiffness	Contact Depth	Area	Hardness	Reduced Mod.
[#]	[#]	[um]	[s]	[um]	[um]	[um]	[m°]	[m°]	[um]	[uN]	[uN]	[V]	[V]	[V]	[°C]	[uN]	[um]	[N/m]	[°]	[°]	[uN]	[um]	[um]	[um]	[uN]	[N/m]	[um]	[um^2]	[MPa]	[MPa]
4.000000	1.000000	0.002592	7.36508e+06	-38839.1	955.819	-29796.7	0.000000	0.000000	6.002805	-0.037961	NaN	0.000000	0.001635	0.001724	28.0944	0.082428	0.001007	81.817	15.5273	-162.921	-0.086879	0.001363	-1.124861	-1.126090	-0.037961	81.817	-1.124513	-1.069104E+15	3.550743E-17	NaN
4.000000	1.000000	0.044534	7.36508e+06	-38839.1	955.818	-29796.7	0.000000	0.000000	6.044748	-0.012257	NaN	0.000000	0.001629	0.001703	28.08	0.078682	0.002167	36.3021	91.3571	14.6788	-0.103482	0.043165	-1.082918	-1.084288	-0.012257	36.3021	-1.082665	-2.933018E+14	4.179025E-17	NaN
4.000000	1.000000	0.086555	7.36508e+06	-38839.1	955.818	-29796.7	0.000000	0.000000	6.086768	-0.034240	NaN	0.000000	0.001630	0.001687	28.1001	0.090984	0.002083	43.6732	-178.956	-163.538	-0.061826	0.085256	-1.040897	-1.042197	-0.034240	43.6732	-1.040309	-7.909127E+13	4.329158E-16	NaN
4.000000	1.000000	0.128583	7.36508e+06	-38839.1	955.818	-29796.7	0.000000	0.000000	6.128799	0.039856	NaN	0.000000	0.001659	0.001715	28.1305	0.018381	0.001993	9.222571	124.719	15.5718	0.027264	0.127244	-0.998870	-1.000209	0.039856	9.222571	-1.002111	-2.422105E+13	-1.645500E-15	NaN
4.000000	1.000000	0.170601	7.36508e+06	-38839.1	955.819	-29796.7	0.000000	0.000000	6.170815	-0.008907	NaN	0.000000	0.001689	0.001706	28.0975	0.018746	0.001901	9.861770	127.573	-161.861	-0.051339	0.169305	-0.956852	-0.958148	-0.008907	9.861770	-0.956175	-5.824964E+12	1.529083E-15	NaN
4.000000	1.000000	0.212632	7.36508e+06	-38839.1	955.818	-29796.7	0.000000	0.000000	6.212846	-0.008121	NaN	0.000000	0.001608	0.001710	28.0802	0.049197	0.002040	24.1144	143.135	11.0869	-0.092394	0.211228	-0.914821	-0.916225	-0.008121	24.1144	-0.914569	-1.599058E+12	5.078558E-15	NaN
4.000000	1.000000	0.254645	7.36508e+06	-38839.1	955.817	-29796.7	0.000000	0.000000	6.254854	-0.125394	NaN	0.000000	0.001604	0.001697	28.0985	0.056632	0.002073	27.3136	131.965	-162.207	-0.120510	0.253330	-0.872808	-0.874123	-0.125394	27.3136	-0.869365	-3.916091E+11	3.202019E-13	NaN
4.000000	1.000000	0.296692	7.36508e+06	-38839.1	955.819	-29796.7	0.000000	0.000000	6.296904	-0.054010	NaN	0.000000	0.001607	0.001688	28.1299	0.113004	0.001972	57.3161	-83.7202	17.2815	-0.051450	0.295276	-0.830761	-0.832176	-0.054010	57.3161	-0.830054	-1.149521E+11	4.698474E-13	NaN
4.000000	1.000000	0.338675	7.36508e+06	-38839.1	955.819	-29796.7	0.000000	0.000000	6.338889	-0.004605	NaN	0.000000	0.001616	0.001733	28.0955	0.086623	0.002052	42.222	-42.1461	-165.765	-0.001787	0.337353	-0.788778	-0.790100	-0.004605	42.222	-0.788696	-3.157721E+10	1.458427E-13	NaN
4.000000	1.000000	0.380652	7.36508e+06	-38839.1	955.819	-29796.7	0.000000	0.000000	6.380867	0.021259	NaN	0.000000	0.001644	0.001709	28.0799	0.024213	0.001995	12.1349	-175.85	13.8773	-0.060803	0.379310	-0.746801	-0.748143	0.021259	12.1349	-0.748115	-8.862575E+9	-2.398698E-12	NaN
4.000000	1.000000	0.422702	7.36508e+06	-38839.1	955.819	-29796.7	0.000000	0.000000	6.422915	-0.048813	NaN	0.000000	0.001614	0.001719	28.0993	0.073161	0.002031	36.021	-46.6656	-161.674	0.041283	0.421405	-0.704750	-0.706048	-0.048813	36.021	-0.703734	-2.200490E+9	2.218265E-11	NaN
4.000000	1.000000	0.464723	7.36508e+06	-38839.1	955.818	-29796.7	0.000000	0.000000	6.464939	0.040455	NaN	0.000000	0.001593	0.001711	28.1318	0.051058	0.002067	24.697	-115.327	12.9597	0.009824	0.463366	-0.662730	-0.664087	0.040455	24.697	-0.663959	-6.290507E+8	-6.431070E-11	NaN
4.000000	1.000000	0.506750	7.36508e+06	-38839.1	955.819	-29796.7	0.000000	0.000000	6.506963	-0.041693	NaN	0.000000	0.001601	0.001696	28.0962	0.083788	0.001952	42.9187	21.6817	-165.128	-0.061245	0.505444	-0.620703	-0.622009	-0.041693	42.9187	-0.619974	-1.567768E+8	2.659365E-10	NaN
4.000000	1.000000	0.548775	7.36508e+06	-38839.1	955.818	-29796.7	0.000000	0.000000	6.548991	0.034107	NaN	0.000000	0.001618	0.001677	28.0804	0.087666	0.001923	45.595	85.4569	13.8235	0.097475	0.547404	-0.578678	-0.580049	0.034107	45.595	-0.579239	-4.307445E+7	-7.918247E-10	NaN
4.000000	1.000000	0.590760	7.36508e+06	-38839.1	955.818	-29796.7	0.000000	0.000000	6.590972	-0.044707	NaN	0.000000	0.001572	0.001672	28.0959	0.026429	0.002153	12.2766	-33.7719	-164.313	-0.054200	0.589512	-0.536693	-0.537941	-0.044707	12.2766	-0.533962	-1.017607E+7	4.393360E-9	NaN
4.000000	1.000000	0.632781	7.36509e+06	-38839.1	955.817	-29796.7	0.000000	0.000000	6.632995	-0.013280	NaN	0.000000	0.001552	0.001809	28.1308	0.088502	0.001981	44.6832	-63.91	18.5401	-0.067151	0.631418	-0.494672	-0.496035	-0.013280	44.6832	-0.494449	-2.86772e+06	4.630697E-9	NaN
4.000000	1.000000	0.674800	7.36509e+06	-38839.1	955.818	-29796.7	0.000000	0.000000	6.675014	-0.018882	NaN	0.000000	0.001581	0.001784	28.0967	0.036228	0.002012	18.0031	-92.2435	-166.687	-0.034717	0.673475	-0.452653	-0.453978	-0.018882	18.0031	-0.451866	-725462	2.602775E-8	NaN
4.000000	1.000000	0.716820	7.36509e+06	-38839.1	955.818	-29796.7	0.000000	0.000000	6.717035	0.000841	NaN	0.000000	0.001615	0.001705	28.0807	0.067886	0.001997	33.9941	-145.73	15.0713	0.058178	0.715451	-0.410632	-0.412002	0.000841	33.9941	-0.410651	-189521	-4.438330E-9	NaN
4.000000	1.000000	0.758848	7.36509e+06	-38839.1	955.819	-29796.7	0.000000	0.000000	6.759061	-0.038249	NaN	0.000000	0.001548	0.001707	28.096	0.079717	0.001963	40.6043	56.6564	-169.042	-0.007719	0.757574	-0.368605	-0.369879	-0.038249	40.6043	-0.367899	-46328.8	8.255895E-7	NaN
4.000000	1.000000	0.800850	7.36509e+06	-38839.1	955.819	-29796.7	0.000000	0.000000	6.801061	-0.068553	NaN	0.000000	0.001580	0.001738	28.1307	0.118731	0.002074	57.2352	134.545	14.4816	-0.137290	0.799508	-0.326603	-0.327945	-0.068553	57.2352	-0.325705	-11284.5	6.075014E-6	NaN
4.000000	1.000000	0.842861	7.36509e+06	-38839.1	955.819	-29796.7	0.000000	0.000000	6.843075	0.004855	NaN	0.000000	0.001601	0.001707	28.0962	0.058555	0.002056	28.4777	37.6754	-165.712	0.034887	0.841585	-0.284592	-0.285868	0.004855	28.4777	-0.284720	-2780.1	-1.746445E-6	NaN
4.000000	1.000000	0.884888	7.36509e+06	-38839.1	955.818	-29796.7	0.000000	0.000000	6.885100	-0.055755	NaN	0.000000	0.001551	0.001705	28.0776	0.126302	0.002077	60.7976	-87.2019	16.185	-0.069128	0.883505	-0.242565	-0.243948	-0.055755	60.7976	-0.241877	-614.953	9.066579E-5	NaN
4.000000	1.000000	0.926882	7.36509e+06	-38839.1	955.819	-29796.7	0.000000	0.000000	6.927097	0.032957	NaN	0.000000	0.001588	0.001629	28.0962	0.083895	0.001884	44.5332	-50.0163	-165.851	0.027713	0.925589	-0.200571	-0.201863	0.032957	44.5332	-0.201126	-137.466	-0.000240	NaN
4.000000	1.000000	0.968955	7.36509e+06	-38839.1	955.818	-29796.7	0.000000	0.000000	6.969165	-0.085440	NaN	0.000000	0.001569	0.001663	28.1317	0.025717	0.002147	11.9762	159.149	14.0327	-0.052164	0.967555	-0.158498	-0.159898	-0.085440	11.9762	-0.153148	-20.6619	0.004135	NaN
4.000000	1.000000	1.010922	7.36509e+06	-38839.1	955.817	-29796.7	0.000000	0.000000	7.011135	-0.031887	NaN	0.000000	0.001567	0.001669	28.0986	0.073357	0.001911	38.3837	78.0527	-162.029	-0.019123	1.009605	-0.116531	-0.117848	-0.031887	38.3837	-0.115908	-3.988331	0.007995	NaN
4.000000	1.000000	1.052966	7.36509e+06	-38839.1	955.819	-29796.7	0.000000	0.000000	7.053180	-0.018879	NaN	0.000000	0.001614	0.001706	28.0786	0.039335	0.001988	19.7868	-57.4536	14.7771	-0.089069	1.051626	-0.074487	-0.075827	-0.018879	19.7868	-0.073771	-0.429140	0.043993	NaN
4.000000	1.000000	1.094992	7.36509e+06	-38839.1	955.818	-29796.7	0.000000	0.000000	7.095204	-0.047201	NaN	0.000000	0.001583	0.001659	28.0935	0.084626	0.001934	43.7662	-84.9118	-166.839	-0.083541	1.093683	-0.032461	-0.033770	-0.047201	43.7662	-0.031652	-0.025615	1.842731	NaN
4.000000	2.000000	1.136014	7.36509e+06	-38839.1	955.819	-29796.7	0.000000	0.000000	7.136596	8.931443	NaN	0.000000	0.001577	0.001658	28.1301	9.470212	0.001654	5723.92	10.5432	6.237112	8.254341	1.135458	0.008561	0.008005	8.931443	5723.92	0.007391	0.006423	1390.46	65250.7
4.000000	2.000000	1.146477	7.36509e+06	-38839.1	955.818	-29796.7	0.000000	0.000000	7.147780	26.5001	NaN	0.000000	0.001619	0.001654	28.0991	21.5568	0.001790	12043.6	7.002371	-179.59	24.0387	1.146183	0.019024	0.018730	26.5001	12043.6	0.017374	0.018583	1426.07	80718.8
4.000000	2.000000	1.156984	7.36509e+06	-38839.1	955.818	-29796.7	0.000000	0.000000	7.159256	50.0546	NaN	0.000000	0.001592	0.001674	28.0797	32.0895	0.001939	16551	5.734260	0.776254	48.5573	1.156579	0.029531	0.029126	50.0546	16551	0.027263	0.035262	1419.5	80527.3
4.000000	2.000000	1.167451	7.36509e+06	-38839.1	955.817	-29796.7	0.000000	0.000000	7.171207	86.1864	NaN	0.000000	0.001588	0.001672	28.0942	40.8955	0.001782	22943.5	6.892689	177.004	84.5555	1.167100	0.039998	0.039647	86.1864	22943.5	0.037181	0.056946	1513.47	87841.5
4.000000	2.000000	1.177869	7.36509e+06	-38839.1	955.819	-29796.7	0.000000	0.000000	7.183397	129.309	NaN	0.000000	0.001606	0.001649	28.1311	49.6261	0.001803	27516.8	5.271947	-3.285363	124.958	1.177578	0.050416	0.050125	129.309	27516.8	0.046891	0.083047	1557.06	87238.8
4.000000	2.000000	1.188394	7.36509e+06	-38839.1	955.819	-29796.7	0.000000	0.000000	7.196086	181.983	NaN	0.000000	0.001621	0.001644	28.1004	58.4993	0.001817	32200.8	0.877039	-179.887	178.046	1.188075	0.060941	0.060622	181.983	32200.8	0.056702	0.114249	1592.86	87038.9
4.000000	2.000000	1.198892	7.36509e+06	-38839.1	955.818	-29796.7	0.000000	0.000000	7.208674	232.839	NaN	0.000000	0.001613	0.001720	28.078	69.5038	0.001817	38243.3	-0.120119	-0.193315	229.883	1.198637	0.071439	0.071184	232.839	38243.3	0.066873	0.151600	1535.87	89738.4
4.000000	2.000000	1.209383	7.36509e+06	-38839.1	955.819	-29796.7	0.000000	0.000000	7.222135	305.1	NaN	0.000000	0.001606	0.001692	28.0929	79.5645	0.001848	43065.6	4.279705	175.276	302.084	1.208940	0.081931	0.081487	305.1	43065.6	0.076617	0.192042	1588.71	89785.3
4.000000	2.000000	1.219846	7.36509e+06	-38839.1	955.818	-29796.7	0.000000	0.000000	7.235877	384.911	NaN	0.000000	0.001577	0.001667	28.1301	89.8957	0.001854	48496	6.174632	-8.435304	379.596	1.219482	0.092393	0.092029	384.911	48496	0.086440	0.237321	1621.9	90951.7
4.000000	2.000000	1.230291	7.36509e+06	-38839.1	955.818	-29796.7	0.000000	0.000000	7.249737	468.034	NaN	0.000000	0.001627	0.001668	28.1022	98.4527	0.001730	56918.8	0.566518	175.823	462.802	1.229877	0.102838	0.102424	468.034	56918.8	0.096671	0.289203	1618.36	96700.2
4.000000	2.000000	1.234278	7.36509e+06	-38839.1	955.819	-29796.7	0.000000	0.000000	7.255011	499.329	NaN	0.000000	0.001590	0.001678	28.1026	103.459	0.001798	57550.2	6.285302	170.412	493.644	1.233958	0.106825	0.106505	499.329	57550.2	0.100318	0.308854	1616.72	94611.4