Folder: unikorn_login/remote_trans/data/nanoindenter/0828-1/data/Data_2025-08-06,11h17m57s (part 136)

File: 2025-07-22_16-23-58_1_289.txt
2025-07-22, 16:23:58, 1
Index	Phase	Displacement	Time	Pos X	Pos Y	Pos Z	Rot A	Rot B	Piezo Z	Force A	Force B	Gripper	Voltage A	Voltage B	Temperature	Amplitude force	Amplitude pos	Stiffness	Phase shift	Phase excitation	Force A raw	Displacement raw	HMax	HMax raw	Real Force	Real Stiffness	Contact Depth	Area	Hardness	Reduced Mod.
[#]	[#]	[um]	[s]	[um]	[um]	[um]	[m°]	[m°]	[um]	[uN]	[uN]	[V]	[V]	[V]	[°C]	[uN]	[um]	[N/m]	[°]	[°]	[uN]	[um]	[um]	[um]	[uN]	[N/m]	[um]	[um^2]	[MPa]	[MPa]
289	1.000000	0.002771	7.36788e+06	-53089.1	955.819	-29747.1	0.000000	0.000000	6.002807	-0.009704	NaN	0.000000	0.001624	0.001739	28.0785	0.065910	0.001022	64.4697	115.703	-164.505	-0.005127	0.001526	-1.737934	-1.739180	-0.009704	64.4697	-1.737821	-1.617201E+23	6.000735E-26	NaN
289	1.000000	0.060750	7.36788e+06	-53089.1	955.818	-29747.1	0.000000	0.000000	6.060785	0.001192	NaN	0.000000	0.001652	0.001678	28.0773	0.058523	0.001943	30.1208	-35.6959	19.1221	0.009803	0.059377	-1.679956	-1.681329	0.001192	30.1208	-1.679986	-2.757627E+22	-4.323507E-26	NaN
289	1.000000	0.118717	7.36788e+06	-53089.1	955.817	-29747	0.000000	0.000000	6.118757	0.081662	NaN	0.000000	0.001608	0.001714	28.0766	0.094734	0.002011	47.1063	139.267	-165.221	0.114202	0.117424	-1.621988	-1.623282	0.081662	47.1063	-1.623289	-4.863223E+21	-1.679174E-23	NaN
289	1.000000	0.176763	7.36788e+06	-53089.1	955.818	-29747	0.000000	0.000000	6.176802	0.080057	NaN	0.000000	0.001632	0.001659	28.0783	0.050176	0.002039	24.6143	61.2827	14.7643	0.094037	0.175371	-1.563943	-1.565334	0.080057	24.6143	-1.566382	-8.511465E+20	-9.405819E-23	NaN
289	1.000000	0.234797	7.36788e+06	-53089.1	955.818	-29747	0.000000	0.000000	6.234836	0.086874	NaN	0.000000	0.001637	0.001658	28.0787	0.043794	0.002047	21.3906	3.645121	-165.946	0.002345	0.233475	-1.505909	-1.507231	0.086874	21.3906	-1.508955	-1.464101E+20	-5.933599E-22	NaN
289	1.000000	0.292808	7.36788e+06	-53089.1	955.819	-29747	0.000000	0.000000	6.292845	0.026662	NaN	0.000000	0.001675	0.001672	28.0784	0.120073	0.001932	62.1584	176.247	17.0249	0.112534	0.291460	-1.447898	-1.449246	0.026662	62.1584	-1.448220	-2.272064E+19	-1.173451E-21	NaN
289	1.000000	0.350859	7.36788e+06	-53089.1	955.818	-29747	0.000000	0.000000	6.350896	0.029393	NaN	0.000000	0.001625	0.001693	28.0774	0.057677	0.002011	28.6854	-83.1961	-165.405	-0.036742	0.349473	-1.389846	-1.391233	0.029393	28.6854	-1.390615	-3.874971E+18	-7.585408E-21	NaN
289	1.000000	0.408888	7.36788e+06	-53089.1	955.817	-29747	0.000000	0.000000	6.408924	-0.001049	NaN	0.000000	0.001648	0.001724	28.077	0.134868	0.001940	69.5319	-60.3154	15.4791	-0.001048	0.407509	-1.331818	-1.333197	-0.001049	69.5319	-1.331807	-6.357690E+17	1.650640E-21	NaN
289	1.000000	0.466878	7.36788e+06	-53089.1	955.819	-29747	0.000000	0.000000	6.466915	0.007969	NaN	0.000000	0.001661	0.001714	28.0785	0.012261	0.002049	5.984339	-72.3727	-165.032	0.045281	0.465573	-1.273827	-1.275133	0.007969	5.984339	-1.274826	-1.101332E+17	-7.235576E-20	NaN
289	1.000000	0.524893	7.36788e+06	-53089.1	955.817	-29747	0.000000	0.000000	6.524934	0.127729	NaN	0.000000	0.001690	0.001731	28.0785	0.033720	0.001899	17.7526	-135.669	16.5349	0.105852	0.523557	-1.215813	-1.217149	0.127729	17.7526	-1.221209	-2.111976E+16	-6.047854E-18	NaN
289	1.000000	0.582933	7.36788e+06	-53089.1	955.818	-29747	0.000000	0.000000	6.582968	-0.004240	NaN	0.000000	0.001622	0.001683	28.0769	0.058909	0.001941	30.357	-6.466987	-166.625	0.019819	0.581633	-1.157773	-1.159073	-0.004240	30.357	-1.157668	-2.975898E+15	1.424782E-18	NaN
289	1.000000	0.640958	7.36788e+06	-53089.1	955.819	-29747	0.000000	0.000000	6.640994	0.011481	NaN	0.000000	0.001615	0.001693	28.0773	0.079972	0.001944	41.1409	167.226	17.7481	0.015944	0.639617	-1.099748	-1.101088	0.011481	41.1409	-1.099958	-5.006087E+14	-2.293339E-17	NaN
289	1.000000	0.698963	7.36788e+06	-53089.1	955.819	-29747	0.000000	0.000000	6.698998	-0.020861	NaN	0.000000	0.001628	0.001693	28.0769	0.100862	0.001936	52.1026	-43.9293	-160.225	0.084496	0.697681	-1.041743	-1.043025	-0.020861	52.1026	-1.041442	-8.191441E+13	2.546698E-16	NaN
289	1.000000	0.757025	7.36788e+06	-53089.1	955.818	-29747	0.000000	0.000000	6.757060	-0.013679	NaN	0.000000	0.001599	0.001655	28.0782	0.057498	0.001957	29.3754	-156.632	14.2619	0.004832	0.755634	-0.983681	-0.985072	-0.013679	29.3754	-0.983332	-1.353001E+13	1.011035E-15	NaN
289	1.000000	0.815015	7.36788e+06	-53089.1	955.819	-29747	0.000000	0.000000	6.815053	0.033851	NaN	0.000000	0.001634	0.001670	28.0782	0.018357	0.002182	8.414646	127.872	-163.165	0.091901	0.813754	-0.925690	-0.926952	0.033851	8.414646	-0.928708	-2.481729E+12	-1.364008E-14	NaN
289	1.000000	0.873087	7.36788e+06	-53089.1	955.818	-29747	0.000000	0.000000	6.873123	-0.001063	NaN	0.000000	0.001601	0.001659	28.0771	0.070734	0.002013	35.1362	33.8148	14.7472	0.062260	0.871765	-0.867619	-0.868941	-0.001063	35.1362	-0.867596	-3.706121E+11	2.868929E-15	NaN
289	1.000000	0.931101	7.36789e+06	-53089.1	955.818	-29747	0.000000	0.000000	6.931139	0.065224	NaN	0.000000	0.001642	0.001673	28.0773	0.066891	0.001950	34.297	-80.3939	-164.04	0.061352	0.929817	-0.809605	-0.810888	0.065224	34.297	-0.811031	-6.346937E+10	-1.027646E-12	NaN
289	1.000000	0.989087	7.36789e+06	-53089.1	955.819	-29747	0.000000	0.000000	6.989124	0.036394	NaN	0.000000	0.001635	0.001672	28.0786	0.081558	0.001911	42.674	-20.3547	16.1775	-0.007731	0.987747	-0.751619	-0.752958	0.036394	42.674	-0.752259	-1.009166E+10	-3.606350E-12	NaN
289	1.000000	1.047122	7.36789e+06	-53089.1	955.819	-29747	0.000000	0.000000	7.047157	-0.026803	NaN	0.000000	0.001655	0.001700	28.0785	0.059789	0.001948	30.6889	66.6388	-165.443	-0.015295	1.045829	-0.693584	-0.694876	-0.026803	30.6889	-0.692929	-1.566539E+9	1.710939E-11	NaN
289	1.000000	1.105153	7.36789e+06	-53089.1	955.819	-29747	0.000000	0.000000	7.105185	-0.084673	NaN	0.000000	0.001623	0.001676	28.0784	0.137490	0.001988	69.1474	-168.834	16.1304	-0.020452	1.103789	-0.635553	-0.636917	-0.084673	69.1474	-0.634634	-2.492610E+8	3.396956E-10	NaN
289	1.000000	1.163163	7.36789e+06	-53089.1	955.818	-29747	0.000000	0.000000	7.163201	0.041310	NaN	0.000000	0.001631	0.001650	28.0773	0.089950	0.002057	43.7309	143.986	-168.922	-0.045410	1.161873	-0.577542	-0.578833	0.041310	43.7309	-0.578251	-4.174298E+7	-9.896252E-10	NaN
289	1.000000	1.221165	7.36789e+06	-53089.1	955.818	-29747	0.000000	0.000000	7.221203	0.052240	NaN	0.000000	0.001617	0.001671	28.0778	0.085152	0.002199	38.7167	147.052	12.6704	0.055250	1.219803	-0.519541	-0.520903	0.052240	38.7167	-0.520553	-6.62648e+06	-7.883501E-9	NaN
289	1.000000	1.279224	7.36789e+06	-53089.1	955.82	-29747	0.000000	0.000000	7.279262	0.043308	NaN	0.000000	0.001673	0.001663	28.0787	0.104148	0.002019	51.5841	-166.606	-170.022	-0.076391	1.277912	-0.461482	-0.462794	0.043308	51.5841	-0.462112	-1.01085e+06	-4.284289E-8	NaN
289	1.000000	1.337222	7.36789e+06	-53089.1	955.82	-29747	0.000000	0.000000	7.337261	0.066127	NaN	0.000000	0.001694	0.001685	28.0786	0.053075	0.002049	25.9002	141.322	12.7432	0.037766	1.335862	-0.403483	-0.404844	0.066127	25.9002	-0.405398	-159558	-4.144364E-7	NaN
289	1.000000	1.395277	7.36789e+06	-53089.1	955.82	-29747	0.000000	0.000000	7.395317	0.089214	NaN	0.000000	0.001683	0.001652	28.0772	0.079167	0.002075	38.148	147.42	-166.488	0.101393	1.393948	-0.345429	-0.346758	0.089214	38.148	-0.347183	-23232.1	-3.840102E-6	NaN
289	1.000000	1.453282	7.36789e+06	-53089.1	955.821	-29747	0.000000	0.000000	7.453319	0.007339	NaN	0.000000	0.001682	0.001673	28.0774	0.065053	0.001925	33.7906	-103.097	13.5076	0.054437	1.451916	-0.287423	-0.288789	0.007339	33.7906	-0.287586	-3069.81	-2.390718E-6	NaN
289	1.000000	1.511368	7.36789e+06	-53089.1	955.821	-29747	0.000000	0.000000	7.511406	0.033418	NaN	0.000000	0.001656	0.001646	28.0777	0.133942	0.001846	72.5489	-22.3623	-164.006	0.124409	1.509979	-0.229337	-0.230727	0.033418	72.5489	-0.229683	-395.831	-8.442599E-5	NaN
289	1.000000	1.569369	7.36789e+06	-53089.1	955.822	-29747	0.000000	0.000000	7.569406	0.027511	NaN	0.000000	0.001611	0.001678	28.0788	0.065510	0.002056	31.8617	-154.467	13.1923	0.057450	1.568034	-0.171337	-0.172672	0.027511	31.8617	-0.171984	-44.4626	-0.000619	NaN
289	1.000000	1.627368	7.36789e+06	-53089.1	955.821	-29747	0.000000	0.000000	7.627407	0.091244	NaN	0.000000	0.001606	0.001661	28.0789	0.129076	0.002069	62.3979	44.1089	-169.817	0.029350	1.626037	-0.113338	-0.114669	0.091244	62.3979	-0.114435	-3.719105	-0.024534	NaN
289	1.000000	1.685400	7.36789e+06	-53089.1	955.821	-29747	0.000000	0.000000	7.685442	0.136096	NaN	0.000000	0.001617	0.001647	28.0775	0.124400	0.002039	61.0082	-12.9379	13.4504	0.064550	1.684079	-0.055305	-0.056627	0.136096	61.0082	-0.056979	-0.147231	-0.924369	NaN
289	1.000000	1.743407	7.36789e+06	-53089.1	955.821	-29747	0.000000	0.000000	7.743496	1.284134	NaN	0.000000	0.001576	0.001627	28.0775	1.884361	0.002029	928.856	13.9786	-172.833	0.425443	1.742130	0.002702	0.001424	1.284134	928.856	0.001665	0.001286	998.929	23669.2
289	2.000000	1.763410	7.36789e+06	-53089.1	955.822	-29747	0.000000	0.000000	7.764660	29.5165	NaN	0.000000	0.001593	0.001648	28.0777	21.4447	0.001781	12043.2	1.016644	6.753756	28.3854	1.763063	0.022704	0.022357	29.5165	12043.2	0.020866	0.023921	1233.9	71141.7
289	2.000000	1.777850	7.36789e+06	-53089.1	955.821	-29747	0.000000	0.000000	7.780614	66.3224	NaN	0.000000	0.001644	0.001637	28.0786	35.3289	0.001823	19383.4	7.274018	174.791	64.9558	1.777537	0.037145	0.036831	66.3224	19383.4	0.034578	0.050769	1306.36	78596.9
289	2.000000	1.792430	7.36789e+06	-53089.1	955.821	-29747	0.000000	0.000000	7.797029	110.947	NaN	0.000000	0.001576	0.001714	28.0785	48.122	0.001735	27736.8	9.023497	-9.416230	114.173	1.792050	0.051725	0.051345	110.947	27736.8	0.048725	0.088512	1253.47	85178.3
289	2.000000	1.806794	7.36789e+06	-53089.1	955.822	-29747	0.000000	0.000000	7.813955	173.222	NaN	0.000000	0.001609	0.001685	28.0772	60.3521	0.001776	33989.3	2.500907	175.921	171.328	1.806589	0.066088	0.065883	173.222	33989.3	0.062266	0.134060	1292.13	84813.6
289	2.000000	1.821284	7.36789e+06	-53089.1	955.822	-29747	0.000000	0.000000	7.831612	250.225	NaN	0.000000	0.001604	0.001715	28.077	72.2662	0.001834	39413.8	1.808324	-4.291728	246.143	1.820956	0.080579	0.080250	250.225	39413.8	0.075817	0.188553	1327.08	82928.8
289	2.000000	1.835789	7.36789e+06	-53089.1	955.821	-29747	0.000000	0.000000	7.849564	334.038	NaN	0.000000	0.001580	0.001719	28.0785	84.0551	0.001711	49133.7	3.454897	172.223	334.32	1.835464	0.095084	0.094759	334.038	49133.7	0.089985	0.254753	1311.22	88939.1
289	2.000000	1.849238	7.36789e+06	-53089.1	955.821	-29747	0.000000	0.000000	7.866945	429.635	NaN	0.000000	0.001603	0.001690	28.0785	98.032	0.001822	53791.6	7.842863	-12.5602	425.562	1.848805	0.108532	0.108099	429.635	53791.6	0.102542	0.321138	1337.85	86724.5

File: 2025-07-22_16-23-58_1_290.txt
2025-07-22, 16:23:58, 1
Index	Phase	Displacement	Time	Pos X	Pos Y	Pos Z	Rot A	Rot B	Piezo Z	Force A	Force B	Gripper	Voltage A	Voltage B	Temperature	Amplitude force	Amplitude pos	Stiffness	Phase shift	Phase excitation	Force A raw	Displacement raw	HMax	HMax raw	Real Force	Real Stiffness	Contact Depth	Area	Hardness	Reduced Mod.
[#]	[#]	[um]	[s]	[um]	[um]	[um]	[m°]	[m°]	[um]	[uN]	[uN]	[V]	[V]	[V]	[°C]	[uN]	[um]	[N/m]	[°]	[°]	[uN]	[um]	[um]	[um]	[uN]	[N/m]	[um]	[um^2]	[MPa]	[MPa]
290	1.000000	0.002589	7.36789e+06	-53139.1	955.819	-29747.4	0.000000	0.000000	6.002803	-0.030003	NaN	0.000000	0.001581	0.001689	28.0787	0.059798	0.001004	59.5715	33.8539	-163.011	-0.058728	0.001287	-1.081775	-1.083077	-0.030003	59.5715	-1.081397	-2.820256E+14	1.063847E-16	NaN
290	1.000000	0.042550	7.36789e+06	-53139.1	955.82	-29747.4	0.000000	0.000000	6.042763	-0.037371	NaN	0.000000	0.001618	0.001709	28.0786	0.110080	0.001987	55.3934	129.717	-170.483	-0.012547	0.041212	-1.041814	-1.043153	-0.037371	55.3934	-1.041309	-8.157600E+13	4.581088E-16	NaN
290	1.000000	0.082545	7.36789e+06	-53139.1	955.818	-29747.4	0.000000	0.000000	6.082759	-0.025400	NaN	0.000000	0.001645	0.001636	28.0797	0.152273	0.002123	71.7255	-82.3434	-166.173	0.009290	0.081248	-1.001819	-1.003117	-0.025400	71.7255	-1.001554	-2.380600E+13	1.066938E-15	NaN
290	1.000000	0.122589	7.36789e+06	-53139.1	955.818	-29747.4	0.000000	0.000000	6.122803	-0.003265	NaN	0.000000	0.001626	0.001639	28.0795	0.024768	0.002031	12.196	-76.2085	-163.905	0.005850	0.121256	-0.961776	-0.963109	-0.003265	12.196	-0.961575	-6.888111E+12	4.739779E-16	NaN
290	1.000000	0.162557	7.36789e+06	-53139.1	955.819	-29747.4	0.000000	0.000000	6.162769	-0.072007	NaN	0.000000	0.001552	0.001643	28.0794	0.015031	0.001869	8.041140	-23.1489	-165.079	-0.149138	0.161251	-0.921807	-0.923114	-0.072007	8.041140	-0.915091	-1.625256E+12	4.430532E-14	NaN
290	1.000000	0.202613	7.36789e+06	-53139.1	955.818	-29747.4	0.000000	0.000000	6.202826	-0.027914	NaN	0.000000	0.001557	0.001653	28.0785	0.049846	0.001898	26.2668	-38.3822	-163.22	0.010001	0.201302	-0.881752	-0.883062	-0.027914	26.2668	-0.880955	-5.618503E+11	4.968296E-14	NaN
290	1.000000	0.242604	7.36789e+06	-53139.1	955.818	-29747.5	0.000000	0.000000	6.242816	-0.045381	NaN	0.000000	0.001592	0.001675	28.0785	0.099974	0.002023	49.4157	133.209	-167.637	-0.125984	0.241290	-0.841761	-0.843075	-0.045381	49.4157	-0.841072	-1.621126E+11	2.799335E-13	NaN
290	1.000000	0.282639	7.36789e+06	-53139.1	955.819	-29747.5	0.000000	0.000000	6.282853	-0.015237	NaN	0.000000	0.001556	0.001723	28.0784	0.072287	0.002001	36.1318	-136.061	-163.214	-0.006406	0.281308	-0.801725	-0.803057	-0.015237	36.1318	-0.801409	-4.698818E+10	3.242669E-13	NaN
290	1.000000	0.322640	7.3679e+06	-53139.1	955.818	-29747.5	0.000000	0.000000	6.322857	0.054144	NaN	0.000000	0.001625	0.001681	28.0783	0.123260	0.001924	64.0589	-102.674	-164.987	-0.016296	0.321326	-0.761725	-0.763038	0.054144	64.0589	-0.762358	-1.384793E+10	-3.909908E-12	NaN
290	1.000000	0.362681	7.3679e+06	-53139.1	955.818	-29747.5	0.000000	0.000000	6.362892	-0.071268	NaN	0.000000	0.001624	0.001606	28.0797	0.075954	0.001894	40.0946	-68.1732	-167.546	-0.081505	0.361309	-0.721684	-0.723056	-0.071268	40.0946	-0.720351	-3.709011E+9	1.921474E-11	NaN
290	1.000000	0.402677	7.3679e+06	-53139.1	955.817	-29747.5	0.000000	0.000000	6.402890	-0.024120	NaN	0.000000	0.001651	0.001634	28.0797	0.023693	0.001970	12.0278	-177.99	-167.39	0.002552	0.401356	-0.681688	-0.683009	-0.024120	12.0278	-0.680184	-1.048865E+9	2.299626E-11	NaN
290	1.000000	0.442686	7.3679e+06	-53139.1	955.818	-29747.5	0.000000	0.000000	6.442903	0.059161	NaN	0.000000	0.001686	0.001620	28.0797	0.077191	0.001990	38.7951	-83.5328	-169.417	0.033548	0.441422	-0.641678	-0.642942	0.059161	38.7951	-0.642822	-3.228517E+8	-1.832463E-10	NaN
290	1.000000	0.482709	7.3679e+06	-53139.1	955.818	-29747.5	0.000000	0.000000	6.482923	-0.014892	NaN	0.000000	0.001697	0.001640	28.0783	0.067819	0.001990	34.0859	34.9507	-165.616	0.042975	0.481421	-0.601656	-0.602944	-0.014892	34.0859	-0.601328	-8.684541E+7	1.714792E-10	NaN
290	1.000000	0.522712	7.3679e+06	-53139.1	955.819	-29747.5	0.000000	0.000000	6.522925	-0.017002	NaN	0.000000	0.001637	0.001636	28.0785	0.054021	0.001916	28.1969	-14.6779	-167.283	-0.025503	0.521441	-0.561653	-0.562923	-0.017002	28.1969	-0.561201	-2.426551E+7	7.006679E-10	NaN
290	1.000000	0.562763	7.3679e+06	-53139.1	955.819	-29747.5	0.000000	0.000000	6.562974	-0.090780	NaN	0.000000	0.001573	0.001632	28.0786	0.015147	0.001932	7.840038	22.5072	-162.69	-0.052794	0.561431	-0.521602	-0.522933	-0.090780	7.840038	-0.512917	-5.1885e+06	1.749646E-8	NaN
290	1.000000	0.602766	7.3679e+06	-53139.1	955.818	-29747.5	0.000000	0.000000	6.602981	0.029187	NaN	0.000000	0.001589	0.001666	28.0795	0.055178	0.002039	27.0644	-88.0761	-162.502	0.111466	0.601385	-0.481599	-0.482980	0.029187	27.0644	-0.482408	-1.94638e+06	-1.499548E-8	NaN
290	1.000000	0.642750	7.3679e+06	-53139.1	955.819	-29747.5	0.000000	0.000000	6.642964	0.000301	NaN	0.000000	0.001571	0.001664	28.0799	0.041526	0.001934	21.4743	106.389	-168.367	-0.026693	0.641461	-0.441615	-0.442904	0.000301	21.4743	-0.441625	-520351	-5.793068E-10	NaN
290	1.000000	0.682799	7.3679e+06	-53139.1	955.819	-29747.5	0.000000	0.000000	6.683010	-0.080264	NaN	0.000000	0.001584	0.001635	28.0798	0.055891	0.002029	27.5457	171.204	-165.439	-0.092031	0.681440	-0.401566	-0.402925	-0.080264	27.5457	-0.399380	-130965	6.128657E-7	NaN
290	1.000000	0.722831	7.3679e+06	-53139.1	955.82	-29747.5	0.000000	0.000000	6.723045	-0.010853	NaN	0.000000	0.001613	0.001632	28.0798	0.083560	0.002120	39.4151	-136.255	-164.744	-0.037202	0.721511	-0.361534	-0.362853	-0.010853	39.4151	-0.361327	-37241.7	2.914099E-7	NaN
290	1.000000	0.762820	7.3679e+06	-53139.1	955.819	-29747.5	0.000000	0.000000	6.763034	-0.005395	NaN	0.000000	0.001587	0.001624	28.0786	0.087993	0.001990	44.2148	21.4011	-164.56	-0.034704	0.761607	-0.321544	-0.322758	-0.005395	44.2148	-0.321453	-9772.74	5.520156E-7	NaN
290	1.000000	0.802835	7.3679e+06	-53139.1	955.818	-29747.5	0.000000	0.000000	6.803049	0.000488	NaN	0.000000	0.001685	0.001615	28.0788	0.071997	0.002034	35.4028	101.691	-168.763	-0.007762	0.801561	-0.281530	-0.282803	0.000488	35.4028	-0.281540	-2489.96	-1.958423E-7	NaN
290	1.000000	0.842863	7.3679e+06	-53139.1	955.818	-29747.5	0.000000	0.000000	6.843077	0.003354	NaN	0.000000	0.001644	0.001640	28.0787	0.084058	0.002089	40.2383	71.4786	-166.537	0.030521	0.841584	-0.241502	-0.242781	0.003354	40.2383	-0.241564	-608.087	-5.515367E-6	NaN
290	1.000000	0.882892	7.3679e+06	-53139.1	955.819	-29747.5	0.000000	0.000000	6.883107	0.013642	NaN	0.000000	0.001684	0.001656	28.08	0.029870	0.002069	14.4376	-72.2626	-165.874	-0.027167	0.881610	-0.201473	-0.202754	0.013642	14.4376	-0.202181	-143.049	-9.536278E-5	NaN
290	1.000000	0.922886	7.3679e+06	-53139.1	955.818	-29747.5	0.000000	0.000000	6.923100	-0.011549	NaN	0.000000	0.001654	0.001641	28.0801	0.063193	0.002024	31.2244	18.6164	-165.21	0.020041	0.921584	-0.161478	-0.162781	-0.011549	31.2244	-0.161201	-28.7936	0.000401	NaN
290	1.000000	0.962913	7.3679e+06	-53139.1	955.818	-29747.5	0.000000	0.000000	6.963127	-0.027745	NaN	0.000000	0.001661	0.001601	28.0803	0.063981	0.002039	31.3852	-5.882276	-166.899	-0.059367	0.961615	-0.121451	-0.122749	-0.027745	31.3852	-0.120788	-5.011469	0.005536	NaN
290	1.000000	1.002963	7.3679e+06	-53139.1	955.819	-29747.5	0.000000	0.000000	7.003177	0.006365	NaN	0.000000	0.001688	0.001656	28.0799	0.049448	0.001949	25.3732	132.455	-164.356	0.090805	1.001621	-0.081402	-0.082744	0.006365	25.3732	-0.081590	-0.678005	-0.009388	NaN
290	1.000000	1.042958	7.3679e+06	-53139.1	955.819	-29747.5	0.000000	0.000000	7.043169	-0.061116	NaN	0.000000	0.001678	0.001680	28.0785	0.096828	0.001979	48.9282	-114.306	-167.881	-0.028382	1.041619	-0.041407	-0.042746	-0.061116	48.9282	-0.040470	-0.046735	1.307716	NaN
290	1.000000	1.082974	7.3679e+06	-53139.1	955.819	-29747.5	0.000000	0.000000	7.083187	-0.017287	NaN	0.000000	0.001677	0.001612	28.0785	0.024622	0.001962	12.5508	-137.206	-166.197	-0.101559	1.081697	-0.001391	-0.002667	-0.017287	12.5508	-0.000358	-0.000266	65.0982	NaN
290	2.000000	1.100548	7.3679e+06	-53139.1	955.818	-29747.5	0.000000	0.000000	7.101407	15.6745	NaN	0.000000	0.001623	0.001622	28.0787	14.7232	0.001788	8235.03	6.859891	-176.062	15.7501	1.100271	0.016183	0.015907	15.6745	8235.03	0.014756	0.014961	1047.67	61511.3
290	2.000000	1.110498	7.3679e+06	-53139.1	955.819	-29747.5	0.000000	0.000000	7.112107	33.8934	NaN	0.000000	0.001610	0.001657	28.08	24.1952	0.001909	12673.9	5.972039	-177.585	32.657	1.110267	0.026134	0.025902	33.8934	12673.9	0.024128	0.029448	1150.94	67476.4
290	2.000000	1.120514	7.3679e+06	-53139.1	955.819	-29747.5	0.000000	0.000000	7.123340	63.5052	NaN	0.000000	0.001660	0.001635	28.08	34.4675	0.001780	19366.6	1.006272	-177.836	62.6127	1.120313	0.036150	0.035949	63.5052	19366.6	0.033690	0.048740	1302.93	80146.3
290	2.000000	1.130476	7.3679e+06	-53139.1	955.82	-29747.5	0.000000	0.000000	7.135013	105.118	NaN	0.000000	0.001668	0.001673	28.0801	45.5162	0.001803	25240.2	2.907351	179.309	103.57	1.130123	0.046111	0.045758	105.118	25240.2	0.042987	0.071976	1460.45	85954.9
290	2.000000	1.140432	7.3679e+06	-53139.1	955.818	-29747.5	0.000000	0.000000	7.146893	151.889	NaN	0.000000	0.001683	0.001662	28.08	56.8806	0.001850	30754.3	5.500514	174.741	151.126	1.140133	0.056067	0.055769	151.889	30754.3	0.052363	0.099857	1521.08	88918.1
290	2.000000	1.150413	7.3679e+06	-53139.1	955.82	-29747.5	0.000000	0.000000	7.159036	204.455	NaN	0.000000	0.001707	0.001652	28.0787	65.263	0.001767	36925.5	3.400977	175.063	202.072	1.150166	0.066048	0.065802	204.455	36925.5	0.061895	0.132692	1540.82	92614
290	2.000000	1.160389	7.3679e+06	-53139.1	955.818	-29747.5	0.000000	0.000000	7.171537	265.846	NaN	0.000000	0.001682	0.001655	28.0786	75.1982	0.001813	41477.2	2.915038	175.42	262.435	1.160120	0.076024	0.075755	265.846	41477.2	0.071217	0.169074	1572.37	92160.4
290	2.000000	1.170337	7.3679e+06	-53139.1	955.818	-29747.5	0.000000	0.000000	7.184515	339.506	NaN	0.000000	0.001641	0.001613	28.0785	85.6789	0.001835	46691.8	4.612040	173.026	334.416	1.170101	0.085973	0.085736	339.506	46691.8	0.080519	0.209491	1620.62	93203.2
290	2.000000	1.180466	7.3679e+06	-53139.1	955.819	-29747.5	0.000000	0.000000	7.197893	418.504	NaN	0.000000	0.001617	0.001680	28.0797	96.5111	0.001755	54981.3	0.644657	174.964	418.309	1.180214	0.096101	0.095849	418.504	54981.3	0.090392	0.256794	1629.73	99127.8
290	2.000000	1.190230	7.3679e+06	-53139.1	955.819	-29747.5	0.000000	0.000000	7.212029	524.773	NaN	0.000000	0.001599	0.001691	28.0797	104.34	0.001771	58915.3	3.018795	173.667	516.015	1.189891	0.105866	0.105527	524.773	58915.3	0.099185	0.302689	1733.71	97837
290	2.000000	1.191481	7.3679e+06	-53139.1	955.82	-29747.5	0.000000	0.000000	7.213029	518.692	NaN	0.000000	0.001608	0.001705	28.0799	106.219	0.001845	57579.4	1.526031	174.296	519.795	1.191278	0.107116	0.106913	518.692	57579.4	0.100360	0.309084	1678.16	94624.1