Folder: unikorn_login/remote_trans/data/nanoindenter/0828-1/data/Data_2025-08-06,11h17m57s (part 191)

File: 2025-07-22_16-23-58_1_399.txt
2025-07-22, 16:23:58, 1
Index	Phase	Displacement	Time	Pos X	Pos Y	Pos Z	Rot A	Rot B	Piezo Z	Force A	Force B	Gripper	Voltage A	Voltage B	Temperature	Amplitude force	Amplitude pos	Stiffness	Phase shift	Phase excitation	Force A raw	Displacement raw	HMax	HMax raw	Real Force	Real Stiffness	Contact Depth	Area	Hardness	Reduced Mod.
[#]	[#]	[um]	[s]	[um]	[um]	[um]	[m°]	[m°]	[um]	[uN]	[uN]	[V]	[V]	[V]	[°C]	[uN]	[um]	[N/m]	[°]	[°]	[uN]	[um]	[um]	[um]	[uN]	[N/m]	[um]	[um^2]	[MPa]	[MPa]
399	1.000000	0.002719	7.36896e+06	-57139.1	1005.82	-29737.6	0.000000	0.000000	6.002766	0.019505	NaN	0.000000	0.001617	0.001742	28.0786	0.043109	0.001062	40.5919	-118.248	-159.933	0.039495	0.001466	-0.997506	-0.998758	0.019505	40.5919	-0.997867	-2.123463E+13	-9.185632E-16	NaN
399	1.000000	0.040700	7.36896e+06	-57139.1	1005.82	-29737.6	0.000000	0.000000	6.040752	0.112001	NaN	0.000000	0.001630	0.001683	28.079	0.031216	0.001858	16.8033	-144.372	11.3043	0.057739	0.039375	-0.959525	-0.960850	0.112001	16.8033	-0.964524	-7.548324E+12	-1.483787E-14	NaN
399	1.000000	0.078673	7.36896e+06	-57139.1	1005.82	-29737.6	0.000000	0.000000	6.078720	-0.001718	NaN	0.000000	0.001620	0.001698	28.0783	0.045433	0.001918	23.6902	-110.507	-164.329	0.105716	0.077430	-0.921551	-0.922795	-0.001718	23.6902	-0.921497	-1.983425E+12	8.663153E-16	NaN
399	1.000000	0.116732	7.36896e+06	-57139.1	1005.82	-29737.6	0.000000	0.000000	6.116782	0.081172	NaN	0.000000	0.001622	0.001710	28.0795	0.053696	0.002058	26.0857	171.82	18.269	0.116907	0.115389	-0.883493	-0.884836	0.081172	26.0857	-0.885826	-6.538710E+11	-1.241406E-13	NaN
399	1.000000	0.154750	7.36896e+06	-57139.1	1005.82	-29737.6	0.000000	0.000000	6.154799	0.050200	NaN	0.000000	0.001654	0.001660	28.0796	0.071069	0.002010	35.3503	-51.6829	-167.697	0.027716	0.153426	-0.845474	-0.846798	0.050200	35.3503	-0.846539	-1.922532E+11	-2.611132E-13	NaN
399	1.000000	0.192772	7.36896e+06	-57139.1	1005.82	-29737.6	0.000000	0.000000	6.192822	0.066454	NaN	0.000000	0.001689	0.001696	28.0801	0.097307	0.002030	47.9458	-17.0316	14.368	0.051035	0.191398	-0.807452	-0.808826	0.066454	47.9458	-0.808492	-5.862861E+10	-1.133479E-12	NaN
399	1.000000	0.230732	7.36896e+06	-57139.1	1005.82	-29737.6	0.000000	0.000000	6.230784	0.114983	NaN	0.000000	0.001649	0.001698	28.0786	0.091137	0.002090	43.6008	141.502	-164.002	0.068162	0.229524	-0.769493	-0.770701	0.114983	43.6008	-0.771471	-1.842051E+10	-6.242113E-12	NaN
399	1.000000	0.268766	7.36896e+06	-57139.1	1005.82	-29737.6	0.000000	0.000000	6.268811	-0.052437	NaN	0.000000	0.001641	0.001717	28.0783	0.089707	0.001969	45.5622	-131.416	17.9642	-0.001344	0.267412	-0.731459	-0.732812	-0.052437	45.5622	-0.730595	-5.115899E+9	1.024981E-11	NaN
399	1.000000	0.306789	7.36897e+06	-57139.1	1005.82	-29737.6	0.000000	0.000000	6.306836	-0.019027	NaN	0.000000	0.001653	0.001724	28.0785	0.068754	0.001906	36.0814	-37.4804	-163.17	-0.006825	0.305508	-0.693435	-0.694717	-0.019027	36.0814	-0.693040	-1.572015E+9	1.210379E-11	NaN
399	1.000000	0.344832	7.36897e+06	-57139.1	1005.82	-29737.6	0.000000	0.000000	6.344882	0.083058	NaN	0.000000	0.001623	0.001732	28.0789	0.014894	0.001985	7.501622	121.962	17.5312	0.027826	0.343477	-0.655393	-0.656748	0.083058	7.501622	-0.663697	-6.238803E+8	-1.331318E-10	NaN
399	1.000000	0.382828	7.36897e+06	-57139.1	1005.82	-29737.6	0.000000	0.000000	6.382877	0.030446	NaN	0.000000	0.001589	0.001743	28.0798	0.028930	0.001962	14.7441	102.44	-164.627	0.050331	0.381523	-0.617396	-0.618702	0.030446	14.7441	-0.618945	-1.517512E+8	-2.006297E-10	NaN
399	1.000000	0.420845	7.36897e+06	-57139.1	1005.82	-29737.6	0.000000	0.000000	6.420892	0.010283	NaN	0.000000	0.001582	0.001704	28.0799	0.033609	0.002038	16.4915	-155.055	14.2772	0.044282	0.419519	-0.579380	-0.580706	0.010283	16.4915	-0.579847	-4.391581E+7	-2.341429E-10	NaN
399	1.000000	0.458867	7.36897e+06	-57139.1	1005.82	-29737.6	0.000000	0.000000	6.458917	0.051741	NaN	0.000000	0.001606	0.001693	28.0798	0.097053	0.001977	49.0879	-142.159	-165.93	0.021437	0.457559	-0.541357	-0.542666	0.051741	49.0879	-0.542148	-1.321729E+7	-3.914642E-9	NaN
399	1.000000	0.496900	7.36897e+06	-57139.1	1005.82	-29737.6	0.000000	0.000000	6.496949	0.055764	NaN	0.000000	0.001666	0.001698	28.0799	0.069967	0.001832	38.1866	160.719	15.8607	0.066900	0.495563	-0.503325	-0.504662	0.055764	38.1866	-0.504420	-3.95056e+06	-1.411542E-8	NaN
399	1.000000	0.534922	7.36897e+06	-57139.1	1005.82	-29737.6	0.000000	0.000000	6.534972	0.072567	NaN	0.000000	0.001705	0.001681	28.0786	0.078133	0.001936	40.3578	119.448	-167.488	0.050422	0.533580	-0.465303	-0.466645	0.072567	40.3578	-0.466651	-1.17064e+06	-6.198871E-8	NaN
399	1.000000	0.572933	7.36897e+06	-57139.1	1005.82	-29737.6	0.000000	0.000000	6.572982	0.046516	NaN	0.000000	0.001672	0.001731	28.0788	0.116418	0.002006	58.0378	87.818	15.5274	0.043226	0.571592	-0.427292	-0.428633	0.046516	58.0378	-0.427893	-332850	-1.397523E-7	NaN
399	1.000000	0.610956	7.36897e+06	-57139.1	1005.82	-29737.6	0.000000	0.000000	6.611006	0.081316	NaN	0.000000	0.001643	0.001708	28.0785	0.072993	0.002055	35.5273	150.698	-164.771	0.065307	0.609597	-0.389269	-0.390628	0.081316	35.5273	-0.390986	-99372.2	-8.182937E-7	NaN
399	1.000000	0.648940	7.36897e+06	-57139.1	1005.82	-29737.6	0.000000	0.000000	6.648987	0.007340	NaN	0.000000	0.001611	0.001702	28.0795	0.047363	0.001960	24.1654	91.6945	17.2644	0.011039	0.647625	-0.351285	-0.352599	0.007340	24.1654	-0.351513	-26850.5	-2.733637E-7	NaN
399	1.000000	0.686975	7.36897e+06	-57139.1	1005.82	-29737.6	0.000000	0.000000	6.687024	0.057334	NaN	0.000000	0.001599	0.001703	28.0797	0.010459	0.002071	5.051239	51.8908	-163.841	0.080012	0.685665	-0.313250	-0.314559	0.057334	5.051239	-0.321763	-9875.86	-5.805451E-6	NaN
399	1.000000	0.725000	7.36897e+06	-57139.1	1005.82	-29737.6	0.000000	0.000000	6.725049	0.044253	NaN	0.000000	0.001624	0.001706	28.0801	0.085320	0.001895	45.0171	32.0076	13.5338	0.018838	0.723642	-0.275225	-0.276582	0.044253	45.0171	-0.275962	-2051	-2.157622E-5	NaN
399	1.000000	0.762993	7.36897e+06	-57139.1	1005.82	-29737.6	0.000000	0.000000	6.763042	0.040355	NaN	0.000000	0.001624	0.001734	28.0797	0.088920	0.002012	44.2013	-150.03	-164.157	0.026826	0.761729	-0.237232	-0.238495	0.040355	44.2013	-0.237917	-533.303	-7.566985E-5	NaN
399	1.000000	0.801006	7.36897e+06	-57139.1	1005.82	-29737.6	0.000000	0.000000	6.801055	0.062128	NaN	0.000000	0.001591	0.001708	28.0787	0.069589	0.001967	35.3842	-97.0735	10.5537	0.010377	0.799627	-0.199219	-0.200598	0.062128	35.3842	-0.200536	-134.431	-0.000462	NaN
399	1.000000	0.839067	7.36897e+06	-57139.1	1005.82	-29737.6	0.000000	0.000000	6.839116	0.031694	NaN	0.000000	0.001664	0.001676	28.0789	0.040169	0.002077	19.3442	41.6613	-163.923	0.022990	0.837779	-0.161157	-0.162445	0.031694	19.3442	-0.162386	-30.2179	-0.001049	NaN
399	1.000000	0.877043	7.36897e+06	-57139.1	1005.82	-29737.6	0.000000	0.000000	6.877093	0.060624	NaN	0.000000	0.001670	0.001730	28.0789	0.054159	0.002033	26.6409	-163.149	16.2095	0.100472	0.875716	-0.123182	-0.124509	0.060624	26.6409	-0.124888	-6.050370	-0.010020	NaN
399	1.000000	0.915064	7.36897e+06	-57139.1	1005.82	-29737.6	0.000000	0.000000	6.915113	0.039189	NaN	0.000000	0.001663	0.001732	28.0798	0.103547	0.002025	51.1231	-163.691	-161.543	0.039027	0.913714	-0.085160	-0.086510	0.039189	51.1231	-0.085735	-0.855922	-0.045786	NaN
399	1.000000	0.953062	7.36897e+06	-57139.1	1005.82	-29737.6	0.000000	0.000000	6.953110	0.024543	NaN	0.000000	0.001660	0.001724	28.0799	0.041885	0.002022	20.7175	176.665	16.4149	0.073449	0.951742	-0.047163	-0.048483	0.024543	20.7175	-0.048051	-0.079638	-0.308179	NaN
399	1.000000	0.991082	7.36897e+06	-57139.1	1005.82	-29737.6	0.000000	0.000000	6.991131	0.051008	NaN	0.000000	0.001676	0.001726	28.0798	0.100366	0.001926	52.1041	56.0768	-163.275	0.001663	0.989779	-0.009143	-0.010445	0.051008	52.1041	-0.009877	-0.006317	-8.074677	NaN
399	2.000000	1.012073	7.36897e+06	-57139.1	1005.82	-29737.6	0.000000	0.000000	7.013367	30.3163	NaN	0.000000	0.001676	0.001702	28.0799	15.8572	0.001825	8688.23	2.493184	8.208647	29.3502	1.011696	0.011848	0.011471	30.3163	8688.23	0.009231	0.008340	3635.22	86922.4
399	2.000000	1.021498	7.36897e+06	-57139.1	1005.82	-29737.6	0.000000	0.000000	7.023569	49.1921	NaN	0.000000	0.001687	0.001769	28.0791	25.3128	0.001822	13891	2.472649	-174.315	45.7039	1.021161	0.021273	0.020936	49.1921	13891	0.018617	0.020416	2409.5	88822.6
399	2.000000	1.030935	7.36897e+06	-57139.1	1005.82	-29737.6	0.000000	0.000000	7.035007	97.8203	NaN	0.000000	0.001714	0.001769	28.0786	33.3525	0.001772	18826.6	4.486114	0.652405	94.6675	1.030612	0.030710	0.030388	97.8203	18826.6	0.026814	0.034398	2843.79	92742.8
399	2.000000	1.040515	7.36897e+06	-57139.1	1005.82	-29737.6	0.000000	0.000000	7.046171	136.315	NaN	0.000000	0.001691	0.001762	28.0791	42.1807	0.001831	23036.2	7.419986	176.481	137.881	1.040055	0.040290	0.039831	136.315	23036.2	0.035852	0.053749	2536.12	90781.7
399	2.000000	1.049923	7.36897e+06	-57139.1	1005.82	-29737.6	0.000000	0.000000	7.057376	179.994	NaN	0.000000	0.001672	0.001748	28.0785	50.6226	0.001998	25330.3	8.376182	-5.451483	178.1	1.049477	0.049699	0.049252	179.994	25330.3	0.044369	0.075807	2374.38	84054.4
399	2.000000	1.059405	7.36897e+06	-57139.1	1005.82	-29737.6	0.000000	0.000000	7.068539	220.844	NaN	0.000000	0.001619	0.001715	28.0796	54.0672	0.001898	28482.8	4.687586	177.56	217.953	1.059027	0.059181	0.058802	220.844	28482.8	0.053366	0.103099	2142.05	81045.4
399	2.000000	1.069011	7.36897e+06	-57139.1	1005.82	-29737.6	0.000000	0.000000	7.079446	252.474	NaN	0.000000	0.001588	0.001748	28.0797	61.5431	0.001743	35313.4	3.870320	-4.586257	255.942	1.068657	0.068786	0.068432	252.474	35313.4	0.063424	0.138372	1824.61	86734.1
399	2.000000	1.078341	7.36897e+06	-57139.1	1005.82	-29737.6	0.000000	0.000000	7.090780	301.189	NaN	0.000000	0.001609	0.001733	28.0796	68.7802	0.001833	37532	5.605625	174.361	296.425	1.077909	0.078116	0.077684	301.189	37532	0.072098	0.172726	1743.74	82507.9
399	2.000000	1.087899	7.36897e+06	-57139.1	1005.82	-29737.6	0.000000	0.000000	7.102336	349.754	NaN	0.000000	0.001643	0.001764	28.0785	75.8271	0.001902	39872.7	7.978136	-7.679576	346.63	1.087565	0.087674	0.087341	349.754	39872.7	0.081095	0.212126	1648.8	79095.5
399	2.000000	1.097464	7.36897e+06	-57139.1	1005.82	-29737.6	0.000000	0.000000	7.113924	398.901	NaN	0.000000	0.001658	0.001721	28.0784	81.7415	0.001797	45495.8	2.244090	176.013	401.694	1.097093	0.097240	0.096868	398.901	45495.8	0.090664	0.258159	1545.18	81809.1
399	2.000000	1.104941	7.36897e+06	-57139.1	1005.82	-29737.6	0.000000	0.000000	7.122967	436.971	NaN	0.000000	0.001607	0.001711	28.0786	90.4934	0.001943	46564.6	5.428299	-7.018586	438.882	1.104737	0.104717	0.104512	436.971	46564.6	0.097679	0.294574	1483.4	78384.8

File: 2025-07-22_16-23-58_1_400.txt
2025-07-22, 16:23:58, 1
Index	Phase	Displacement	Time	Pos X	Pos Y	Pos Z	Rot A	Rot B	Piezo Z	Force A	Force B	Gripper	Voltage A	Voltage B	Temperature	Amplitude force	Amplitude pos	Stiffness	Phase shift	Phase excitation	Force A raw	Displacement raw	HMax	HMax raw	Real Force	Real Stiffness	Contact Depth	Area	Hardness	Reduced Mod.
[#]	[#]	[um]	[s]	[um]	[um]	[um]	[m°]	[m°]	[um]	[uN]	[uN]	[V]	[V]	[V]	[°C]	[uN]	[um]	[N/m]	[°]	[°]	[uN]	[um]	[um]	[um]	[uN]	[N/m]	[um]	[um^2]	[MPa]	[MPa]
400	1.000000	0.002846	7.36897e+06	-57089.1	1005.82	-29737.7	0.000000	0.000000	6.002807	0.076966	NaN	0.000000	0.001636	0.001677	28.0799	0.068414	0.000987	69.3078	144.059	-155.485	0.055060	0.001549	-1.019767	-1.021064	0.076966	69.3078	-1.020600	-4.295618E+13	-1.791740E-15	NaN
400	1.000000	0.042780	7.36897e+06	-57089.1	1005.82	-29737.7	0.000000	0.000000	6.042739	0.021226	NaN	0.000000	0.001606	0.001707	28.0788	0.085061	0.001982	42.9228	5.861504	-160.998	0.034133	0.041492	-0.979833	-0.981122	0.021226	42.9228	-0.980204	-1.227892E+13	-1.728646E-15	NaN
400	1.000000	0.082767	7.36897e+06	-57089.1	1005.82	-29737.7	0.000000	0.000000	6.082725	-0.007422	NaN	0.000000	0.001687	0.001716	28.0786	0.052477	0.001921	27.3174	-50.6297	-167.68	-0.031710	0.081492	-0.939846	-0.941122	-0.007422	27.3174	-0.939642	-3.485862E+12	2.129194E-15	NaN
400	1.000000	0.122843	7.36897e+06	-57089.1	1005.82	-29737.7	0.000000	0.000000	6.122801	-0.008598	NaN	0.000000	0.001678	0.001676	28.0784	0.080658	0.001971	40.9126	-147.723	-164.046	-0.015806	0.121483	-0.899770	-0.901131	-0.008598	40.9126	-0.899612	-1.004218E+12	8.561875E-15	NaN
400	1.000000	0.162849	7.36897e+06	-57089.1	1005.82	-29737.7	0.000000	0.000000	6.162808	0.029693	NaN	0.000000	0.001703	0.001694	28.0784	0.065336	0.001957	33.3775	128.485	-164.265	-0.051402	0.161497	-0.859764	-0.861117	0.029693	33.3775	-0.860432	-2.964575E+11	-1.001606E-13	NaN
400	1.000000	0.202865	7.36897e+06	-57089.1	1005.82	-29737.7	0.000000	0.000000	6.202823	0.011065	NaN	0.000000	0.001694	0.001703	28.0801	0.082135	0.002136	38.4524	-133.311	-168.531	0.026137	0.201610	-0.819748	-0.821003	0.011065	38.4524	-0.819964	-8.389273E+10	-1.318954E-13	NaN
400	1.000000	0.242853	7.36897e+06	-57089.1	1005.82	-29737.7	0.000000	0.000000	6.242810	-0.030979	NaN	0.000000	0.001751	0.001699	28.0795	0.040836	0.001976	20.6664	-21.0581	-164.807	-0.027752	0.241583	-0.779760	-0.781030	-0.030979	20.6664	-0.778636	-2.305098E+10	1.343919E-12	NaN
400	1.000000	0.282866	7.36897e+06	-57089.1	1005.82	-29737.7	0.000000	0.000000	6.282822	-0.043544	NaN	0.000000	0.001658	0.001719	28.0793	0.049633	0.002095	23.6889	114.724	-165.037	-0.049266	0.281590	-0.739748	-0.741024	-0.043544	23.6889	-0.738369	-6.528896E+9	6.669391E-12	NaN
400	1.000000	0.322929	7.36897e+06	-57089.1	1005.82	-29737.7	0.000000	0.000000	6.322889	0.036555	NaN	0.000000	0.001655	0.001722	28.0785	0.063421	0.001990	31.873	-173.36	-165.455	0.012946	0.321607	-0.699684	-0.701007	0.036555	31.873	-0.700544	-1.990493E+9	-1.836470E-11	NaN
400	1.000000	0.362929	7.36897e+06	-57089.1	1005.82	-29737.7	0.000000	0.000000	6.362888	0.043406	NaN	0.000000	0.001719	0.001667	28.0785	0.065184	0.002069	31.5114	17.3796	-167.034	-0.043503	0.361593	-0.659685	-0.661020	0.043406	31.5114	-0.660718	-5.679382E+8	-7.642696E-11	NaN
400	1.000000	0.402886	7.36897e+06	-57089.1	1005.82	-29737.7	0.000000	0.000000	6.402844	-0.003175	NaN	0.000000	0.001693	0.001707	28.0783	0.042311	0.001823	23.2072	-0.761169	-164.112	0.086009	0.401622	-0.619727	-0.620992	-0.003175	23.2072	-0.619624	-1.550493E+8	2.047723E-11	NaN
400	1.000000	0.442961	7.36897e+06	-57089.1	1005.82	-29737.7	0.000000	0.000000	6.442921	0.060642	NaN	0.000000	0.001699	0.001730	28.0784	0.064849	0.002014	32.1914	151.346	-164.316	0.047521	0.441629	-0.579652	-0.580984	0.060642	32.1914	-0.581065	-4.564838E+7	-1.328452E-9	NaN
400	1.000000	0.482958	7.36898e+06	-57089.1	1005.82	-29737.7	0.000000	0.000000	6.482914	-0.050993	NaN	0.000000	0.001616	0.001746	28.0797	0.059134	0.002018	29.3025	-146.107	-163.176	-0.054354	0.481708	-0.539655	-0.540906	-0.050993	29.3025	-0.538350	-1.170769E+7	4.355521E-9	NaN
400	1.000000	0.522983	7.36898e+06	-57089.1	1005.82	-29737.7	0.000000	0.000000	6.522944	0.064677	NaN	0.000000	0.001589	0.001744	28.0799	0.080104	0.001993	40.2015	-22.7847	-163.346	0.089498	0.521666	-0.499630	-0.500947	0.064677	40.2015	-0.500837	-3.52118e+06	-1.836803E-8	NaN
400	1.000000	0.563007	7.36898e+06	-57089.1	1005.82	-29737.7	0.000000	0.000000	6.562963	-0.052315	NaN	0.000000	0.001581	0.001719	28.0799	0.096821	0.001935	50.0301	-130.521	-163.357	-0.124198	0.561734	-0.459606	-0.460879	-0.052315	50.0301	-0.458822	-908790	5.756592E-8	NaN
400	1.000000	0.603027	7.36898e+06	-57089.1	1005.82	-29737.7	0.000000	0.000000	6.602987	0.042368	NaN	0.000000	0.001606	0.001686	28.0788	0.056014	0.001993	28.1002	-99.0789	-161.835	0.025250	0.601678	-0.419586	-0.420935	0.042368	28.1002	-0.420717	-263380	-1.608621E-7	NaN
400	1.000000	0.643030	7.36898e+06	-57089.1	1005.82	-29737.7	0.000000	0.000000	6.642989	0.027439	NaN	0.000000	0.001666	0.001713	28.0785	0.025396	0.002094	12.1256	1.849615	-167.924	0.003346	0.641709	-0.379584	-0.380904	0.027439	12.1256	-0.381281	-72155	-3.802764E-7	NaN
400	1.000000	0.683056	7.36898e+06	-57089.1	1005.82	-29737.7	0.000000	0.000000	6.683014	0.002209	NaN	0.000000	0.001674	0.001716	28.0785	0.060206	0.002025	29.7256	-100.656	-163.244	-0.055634	0.681804	-0.339557	-0.340809	0.002209	29.7256	-0.339613	-18026.6	-1.225270E-7	NaN
400	1.000000	0.723069	7.36898e+06	-57089.1	1005.82	-29737.7	0.000000	0.000000	6.723025	-0.058397	NaN	0.000000	0.001688	0.001705	28.0784	0.059034	0.002030	29.0787	113.681	-166.167	-0.071424	0.721773	-0.299544	-0.300840	-0.058397	29.0787	-0.298038	-4399.57	1.327342E-5	NaN
400	1.000000	0.763082	7.36898e+06	-57089.1	1005.82	-29737.7	0.000000	0.000000	6.763040	6.095071E-5	NaN	0.000000	0.001677	0.001718	28.0796	0.079551	0.002009	39.6045	-66.7797	-165.505	-0.004354	0.761793	-0.259531	-0.260820	6.095071E-5	39.6045	-0.259532	-1152.77	-5.287309E-8	NaN
400	1.000000	0.803079	7.36898e+06	-57089.1	1005.82	-29737.7	0.000000	0.000000	6.803034	-0.064234	NaN	0.000000	0.001671	0.001752	28.0799	0.114955	0.001912	60.1285	-94.1249	-160.188	0.026085	0.801774	-0.219534	-0.220839	-0.064234	60.1285	-0.218733	-265.1	0.000242	NaN
400	1.000000	0.843130	7.36898e+06	-57089.1	1005.82	-29737.7	0.000000	0.000000	6.843088	0.008339	NaN	0.000000	0.001604	0.001751	28.0798	0.073291	0.002019	36.2957	92.2031	-164.75	-0.037833	0.841778	-0.179483	-0.180835	0.008339	36.2957	-0.179656	-60.2017	-0.000139	NaN
400	1.000000	0.883139	7.36898e+06	-57089.1	1005.82	-29737.7	0.000000	0.000000	6.883099	0.054255	NaN	0.000000	0.001599	0.001745	28.0786	0.052695	0.001898	27.7574	44.401	-167.679	0.049313	0.881883	-0.139474	-0.140730	0.054255	27.7574	-0.140940	-12.3197	-0.004404	NaN
400	1.000000	0.923145	7.36898e+06	-57089.1	1005.82	-29737.7	0.000000	0.000000	6.923103	0.006463	NaN	0.000000	0.001633	0.001758	28.0788	0.063622	0.001957	32.5125	-86.9078	-163.785	-0.051584	0.921812	-0.099468	-0.100801	0.006463	32.5125	-0.099617	-1.791784	-0.003607	NaN
400	1.000000	0.963183	7.36898e+06	-57089.1	1005.82	-29737.7	0.000000	0.000000	6.963142	0.036748	NaN	0.000000	0.001630	0.001738	28.0788	0.027247	0.001999	13.6271	-22.4384	-160.862	0.085541	0.961837	-0.059431	-0.060776	0.036748	13.6271	-0.061453	-0.198147	-0.185460	NaN
400	1.000000	1.003156	7.36898e+06	-57089.1	1005.82	-29737.7	0.000000	0.000000	7.003126	0.282049	NaN	0.000000	0.001648	0.001765	28.0801	0.422603	0.002062	204.939	43.8246	-164.903	0.200034	1.001909	-0.019457	-0.020704	0.282049	204.939	-0.020489	-0.012926	-21.8204	NaN
400	1.000000	1.043169	7.36898e+06	-57089.1	1005.82	-29737.7	0.000000	0.000000	7.043406	6.797950	NaN	0.000000	0.001638	0.001733	28.08	7.110394	0.001740	4086.66	16.5797	-169.522	5.527836	1.041863	0.020556	0.019249	6.797950	4086.66	0.019308	0.021467	316.675	25483.5
400	2.000000	1.054687	7.36898e+06	-57089.1	1005.82	-29737.7	0.000000	0.000000	7.055533	21.5831	NaN	0.000000	0.001617	0.001722	28.0801	17.7706	0.001811	9813.14	8.104007	-175.237	22.1182	1.054372	0.032073	0.031758	21.5831	9813.14	0.030424	0.041627	518.489	43943.5
400	2.000000	1.064622	7.36898e+06	-57089.1	1005.82	-29737.7	0.000000	0.000000	7.066269	41.0554	NaN	0.000000	0.001621	0.001714	28.0801	25.5582	0.001849	13826	10.3795	178.898	40.8539	1.064371	0.042008	0.041758	41.0554	13826	0.039781	0.063465	646.901	50142.4
400	2.000000	1.074638	7.36898e+06	-57089.1	1005.82	-29737.7	0.000000	0.000000	7.077337	66.6301	NaN	0.000000	0.001654	0.001696	28.079	34.9669	0.001848	18916.7	6.624951	178.424	66.538	1.074369	0.052025	0.051756	66.6301	18916.7	0.049383	0.090515	736.121	57445.7
400	2.000000	1.084568	7.36898e+06	-57089.1	1005.82	-29737.7	0.000000	0.000000	7.088695	101.342	NaN	0.000000	0.001643	0.001688	28.0791	45.0309	0.001855	24276.7	7.874437	175.62	98.6253	1.084312	0.061955	0.061699	101.342	24276.7	0.058824	0.121624	833.237	63599.5
400	2.000000	1.094620	7.36898e+06	-57089.1	1005.82	-29737.7	0.000000	0.000000	7.100311	139.366	NaN	0.000000	0.001653	0.001699	28.0788	54.0407	0.001894	28527.7	2.803445	179.427	142.219	1.094277	0.072006	0.071664	139.366	28527.7	0.068342	0.157410	885.366	65693.7
400	2.000000	1.104614	7.36898e+06	-57089.1	1005.82	-29737.7	0.000000	0.000000	7.112009	180.748	NaN	0.000000	0.001631	0.001688	28.0798	63.6136	0.001892	33615.5	5.517233	175.347	184.692	1.104327	0.082001	0.081714	180.748	33615.5	0.077968	0.198005	912.848	69020.1
400	2.000000	1.114619	7.36898e+06	-57089.1	1005.82	-29737.7	0.000000	0.000000	7.124258	235.298	NaN	0.000000	0.001655	0.001705	28.0799	72.6944	0.001779	40864.8	6.990288	172.031	237.076	1.114290	0.092006	0.091677	235.298	40864.8	0.087687	0.243386	966.766	75678.9
400	2.000000	1.124666	7.36898e+06	-57089.1	1005.82	-29737.7	0.000000	0.000000	7.136121	279.444	NaN	0.000000	0.001619	0.001770	28.0798	82.4598	0.001870	44106.5	2.864502	175.858	287.319	1.124354	0.102052	0.101740	279.444	44106.5	0.097301	0.292555	955.183	74502.6
400	2.000000	1.134556	7.36898e+06	-57089.1	1005.82	-29737.7	0.000000	0.000000	7.149167	356.155	NaN	0.000000	0.001664	0.001689	28.0798	91.0263	0.001801	50555	4.818161	172.945	356.013	1.134139	0.111943	0.111526	356.155	50555	0.106659	0.344462	1033.95	78698.5
400	2.000000	1.143543	7.36898e+06	-57089.1	1005.82	-29737.7	0.000000	0.000000	7.160755	419.355	NaN	0.000000	0.001661	0.001645	28.0786	97.4325	0.001774	54923.3	3.918837	173.17	418.545	1.143200	0.120930	0.120586	419.355	54923.3	0.115204	0.395327	1060.78	79808.9