Folder: unikorn_login/remote_trans/data/nanoindenter/0828-1/data/Data_2025-08-06,11h17m57s (part 171)

File: 2025-07-22_16-23-58_1_359.txt
2025-07-22, 16:23:58, 1
Index	Phase	Displacement	Time	Pos X	Pos Y	Pos Z	Rot A	Rot B	Piezo Z	Force A	Force B	Gripper	Voltage A	Voltage B	Temperature	Amplitude force	Amplitude pos	Stiffness	Phase shift	Phase excitation	Force A raw	Displacement raw	HMax	HMax raw	Real Force	Real Stiffness	Contact Depth	Area	Hardness	Reduced Mod.
[#]	[#]	[um]	[s]	[um]	[um]	[um]	[m°]	[m°]	[um]	[uN]	[uN]	[V]	[V]	[V]	[°C]	[uN]	[um]	[N/m]	[°]	[°]	[uN]	[um]	[um]	[um]	[uN]	[N/m]	[um]	[um^2]	[MPa]	[MPa]
359	1.000000	0.002744	7.36857e+06	-56589.1	955.819	-29738.9	0.000000	0.000000	6.002778	-0.038935	NaN	0.000000	0.001524	0.001708	28.0807	0.139157	0.000921	151.115	-148.655	-164.129	-0.075530	0.001520	-1.083922	-1.085147	-0.038935	151.115	-1.083729	-3.031112E+14	1.284514E-16	NaN
359	1.000000	0.042711	7.36857e+06	-56589.1	955.818	-29738.9	0.000000	0.000000	6.042746	-0.041181	NaN	0.000000	0.001520	0.001727	28.0809	0.066873	0.002052	32.5917	97.6205	-163.198	-0.004163	0.041346	-1.043955	-1.045320	-0.041181	32.5917	-1.043007	-8.598134E+13	4.789472E-16	NaN
359	1.000000	0.082708	7.36857e+06	-56589.1	955.818	-29738.9	0.000000	0.000000	6.082746	0.051006	NaN	0.000000	0.001542	0.001764	28.0807	0.070814	0.001964	36.0577	147.374	-165.711	-0.043719	0.081451	-1.003958	-1.005216	0.051006	36.0577	-1.005019	-2.650568E+13	-1.924331E-15	NaN
359	1.000000	0.122738	7.36857e+06	-56589.1	955.818	-29738.9	0.000000	0.000000	6.122775	0.024802	NaN	0.000000	0.001525	0.001726	28.0794	0.071949	0.001982	36.302	-2.931672	-165.48	0.070917	0.121509	-0.963928	-0.965158	0.024802	36.302	-0.964440	-7.528827E+12	-3.294215E-15	NaN
359	1.000000	0.162761	7.36857e+06	-56589.1	955.819	-29738.9	0.000000	0.000000	6.162799	0.034578	NaN	0.000000	0.001533	0.001780	28.0794	0.111923	0.002071	54.0407	101.887	-165.183	0.076953	0.161394	-0.923905	-0.925272	0.034578	54.0407	-0.924385	-2.169734E+12	-1.593671E-14	NaN
359	1.000000	0.202760	7.36857e+06	-56589.1	955.818	-29738.9	0.000000	0.000000	6.202797	0.016042	NaN	0.000000	0.001572	0.001730	28.0796	0.053919	0.002056	26.22	-104.195	-166.842	-0.023011	0.201450	-0.883906	-0.885217	0.016042	26.22	-0.884365	-6.247920E+11	-2.567523E-14	NaN
359	1.000000	0.242795	7.36857e+06	-56589.1	955.818	-29738.9	0.000000	0.000000	6.242832	0.048270	NaN	0.000000	0.001557	0.001771	28.08	0.069997	0.002039	34.3268	-143.261	-165.849	0.027138	0.241561	-0.843872	-0.845105	0.048270	34.3268	-0.844926	-1.828211E+11	-2.640263E-13	NaN
359	1.000000	0.282795	7.36857e+06	-56589.1	955.819	-29738.9	0.000000	0.000000	6.282832	0.026121	NaN	0.000000	0.001568	0.001688	28.0813	0.042923	0.002111	20.3304	-145.798	-164.06	0.055682	0.281497	-0.803871	-0.805169	0.026121	20.3304	-0.804835	-5.229821E+10	-4.994602E-13	NaN
359	1.000000	0.322811	7.36857e+06	-56589.1	955.819	-29738.9	0.000000	0.000000	6.322847	-0.014844	NaN	0.000000	0.001535	0.001726	28.0813	0.022618	0.002105	10.7427	164.463	-161.249	-0.019897	0.321599	-0.763855	-0.765067	-0.014844	10.7427	-0.762819	-1.404903E+10	1.056565E-12	NaN
359	1.000000	0.362834	7.36857e+06	-56589.1	955.819	-29738.9	0.000000	0.000000	6.362871	0.020728	NaN	0.000000	0.001538	0.001702	28.0812	0.036634	0.002020	18.1331	48.0816	-164.011	-0.001979	0.361531	-0.723832	-0.725135	0.020728	18.1331	-0.724689	-4.250271E+9	-4.876907E-12	NaN
359	1.000000	0.402847	7.36857e+06	-56589.1	955.819	-29738.9	0.000000	0.000000	6.402881	-0.044150	NaN	0.000000	0.001541	0.001696	28.0799	0.073312	0.001940	37.7851	-114.569	-164.594	-0.014380	0.401553	-0.683820	-0.685114	-0.044150	37.7851	-0.682943	-1.144076E+9	3.858978E-11	NaN
359	1.000000	0.442898	7.36857e+06	-56589.1	955.818	-29738.9	0.000000	0.000000	6.442933	-0.008835	NaN	0.000000	0.001534	0.001681	28.08	0.071488	0.001923	37.1779	-113.515	-161.653	0.012719	0.441611	-0.643769	-0.645055	-0.008835	37.1779	-0.643590	-3.307837E+8	2.671023E-11	NaN
359	1.000000	0.482891	7.36857e+06	-56589.1	955.818	-29738.9	0.000000	0.000000	6.482926	-0.021401	NaN	0.000000	0.001564	0.001690	28.0801	0.071618	0.002069	34.6083	6.381588	-164.196	-0.019328	0.481591	-0.603775	-0.605075	-0.021401	34.6083	-0.603311	-9.248158E+7	2.314085E-10	NaN
359	1.000000	0.522894	7.36857e+06	-56589.1	955.818	-29738.9	0.000000	0.000000	6.522926	-0.096365	NaN	0.000000	0.001545	0.001706	28.0813	0.074739	0.002009	37.2025	78.5487	-169.06	0.026106	0.521617	-0.563772	-0.565049	-0.096365	37.2025	-0.561829	-2.475609E+7	3.892591E-9	NaN
359	1.000000	0.562947	7.36857e+06	-56589.1	955.819	-29738.9	0.000000	0.000000	6.562985	0.047767	NaN	0.000000	0.001568	0.001683	28.0813	0.118980	0.001960	60.7142	73.532	-165.025	0.126836	0.561581	-0.523719	-0.525086	0.047767	60.7142	-0.524309	-7.47324e+06	-6.391701E-9	NaN
359	1.000000	0.602945	7.36857e+06	-56589.1	955.818	-29738.9	0.000000	0.000000	6.602979	-0.043147	NaN	0.000000	0.001555	0.001640	28.0817	0.069425	0.002084	33.3172	-36.967	-166.232	0.082118	0.601655	-0.483722	-0.485012	-0.043147	33.3172	-0.482751	-1.96799e+06	2.192461E-8	NaN
359	1.000000	0.642959	7.36857e+06	-56589.1	955.818	-29738.9	0.000000	0.000000	6.642994	-0.020829	NaN	0.000000	0.001516	0.001687	28.0814	0.022361	0.002126	10.516	109.119	-165.904	-0.057535	0.641627	-0.443707	-0.445040	-0.020829	10.516	-0.442222	-530537	3.925960E-8	NaN
359	1.000000	0.682993	7.36857e+06	-56589.1	955.819	-29738.9	0.000000	0.000000	6.683027	-0.039028	NaN	0.000000	0.001574	0.001681	28.0799	0.047491	0.001856	25.5816	147.443	-162.664	0.004422	0.681688	-0.403673	-0.404979	-0.039028	25.5816	-0.402529	-145227	2.687373E-7	NaN
359	1.000000	0.722970	7.36857e+06	-56589.1	955.819	-29738.9	0.000000	0.000000	6.723001	-0.114063	NaN	0.000000	0.001582	0.001683	28.0798	0.082107	0.001975	41.5748	-133.257	-164.386	-0.154565	0.721671	-0.363696	-0.364995	-0.114063	41.5748	-0.361638	-37629	3.031257E-6	NaN
359	1.000000	0.762997	7.36857e+06	-56589.1	955.818	-29738.9	0.000000	0.000000	6.763032	-0.027941	NaN	0.000000	0.001600	0.001664	28.08	0.040563	0.001910	21.2362	152.635	-163.515	-0.003798	0.761698	-0.323669	-0.324968	-0.027941	21.2362	-0.322682	-10188	2.742532E-6	NaN
359	1.000000	0.803019	7.36858e+06	-56589.1	955.819	-29738.9	0.000000	0.000000	6.803056	0.043394	NaN	0.000000	0.001603	0.001683	28.081	0.074287	0.001968	37.7465	-162.589	-162.123	0.065489	0.801732	-0.283648	-0.284934	0.043394	37.7465	-0.284510	-2759.93	-1.572289E-5	NaN
359	1.000000	0.843043	7.36858e+06	-56589.1	955.819	-29738.9	0.000000	0.000000	6.843080	0.021329	NaN	0.000000	0.001578	0.001700	28.081	0.069533	0.001937	35.8885	-20.996	-170.095	0.073427	0.841743	-0.243624	-0.244923	0.021329	35.8885	-0.244069	-665.244	-3.206225E-5	NaN
359	1.000000	0.883095	7.36858e+06	-56589.1	955.819	-29738.9	0.000000	0.000000	6.883132	0.034226	NaN	0.000000	0.001578	0.001705	28.0813	0.068476	0.001968	34.801	-115.683	-164.749	0.031849	0.881730	-0.203572	-0.204936	0.034226	34.801	-0.204309	-154.983	-0.000221	NaN
359	1.000000	0.923052	7.36858e+06	-56589.1	955.818	-29738.9	0.000000	0.000000	6.923087	-0.002546	NaN	0.000000	0.001535	0.001704	28.0813	0.065783	0.002049	32.102	-96.1762	-160.93	0.015538	0.921778	-0.163615	-0.164888	-0.002546	32.102	-0.163555	-31.6878	8.034586E-5	NaN
359	1.000000	0.963110	7.36858e+06	-56589.1	955.818	-29738.9	0.000000	0.000000	6.963144	-0.032828	NaN	0.000000	0.001525	0.001702	28.0802	0.118540	0.002025	58.5259	155.025	-164.225	0.007256	0.961820	-0.123556	-0.124846	-0.032828	58.5259	-0.123136	-5.584337	0.005879	NaN
359	1.000000	1.003095	7.36858e+06	-56589.1	955.82	-29738.9	0.000000	0.000000	7.003130	-0.021267	NaN	0.000000	0.001510	0.001693	28.0801	0.045520	0.001869	24.3567	-141.648	-164.999	-0.027496	1.001741	-0.083572	-0.084926	-0.021267	24.3567	-0.082917	-0.731009	0.029093	NaN
359	1.000000	1.043106	7.36858e+06	-56589.1	955.82	-29738.9	0.000000	0.000000	7.043142	0.017226	NaN	0.000000	0.001560	0.001679	28.0802	0.084484	0.002012	41.9953	14.225	-164.041	-0.030694	1.041811	-0.043561	-0.044856	0.017226	41.9953	-0.043868	-0.059344	-0.290275	NaN
359	2.000000	1.077667	7.36858e+06	-56589.1	955.819	-29738.9	0.000000	0.000000	7.078168	11.3223	NaN	0.000000	0.001544	0.001663	28.0816	10.4257	0.001751	5954.78	8.260671	-173.942	10.757	1.077406	-0.009000	-0.009260	11.3223	5954.78	-0.010426	-0.006631	-1707.57	NaN
359	2.000000	1.087551	7.36858e+06	-56589.1	955.82	-29738.9	0.000000	0.000000	7.090058	60.085	NaN	0.000000	0.001478	0.001702	28.0814	21.712	0.001653	13137	1.511513	-174.393	57.1971	1.087219	0.000884	0.000553	60.085	13137	-0.002546	-0.001814	-33117.5	NaN
359	2.000000	1.097506	7.36858e+06	-56589.1	955.82	-29738.9	0.000000	0.000000	7.102319	116.108	NaN	0.000000	0.001482	0.001704	28.0818	30.8986	0.001862	16592.5	1.310641	-176.024	111.872	1.097201	0.010840	0.010534	116.108	16592.5	0.005592	0.004680	24810.8	221603
359	2.000000	1.107468	7.36858e+06	-56589.1	955.82	-29738.9	0.000000	0.000000	7.114512	170.323	NaN	0.000000	0.001547	0.001663	28.0809	39.1681	0.001868	20963.1	3.383836	-179.771	166.557	1.107175	0.020802	0.020509	170.323	20963.1	0.014708	0.014898	11432.3	156913
359	2.000000	1.117501	7.36858e+06	-56589.1	955.82	-29738.9	0.000000	0.000000	7.127284	236.915	NaN	0.000000	0.001556	0.001665	28.0803	46.1105	0.001857	24824.3	5.401680	176.468	234.27	1.117251	0.030835	0.030584	236.915	24824.3	0.023677	0.028653	8268.32	133987
359	2.000000	1.127452	7.36858e+06	-56589.1	955.82	-29738.9	0.000000	0.000000	7.140019	304.581	NaN	0.000000	0.001576	0.001693	28.0802	53.7018	0.001816	29569.2	2.442226	178.501	300.351	1.127203	0.040786	0.040537	304.581	29569.2	0.033061	0.047326	6435.77	124183
359	2.000000	1.137508	7.36858e+06	-56589.1	955.82	-29738.9	0.000000	0.000000	7.153452	386.657	NaN	0.000000	0.001578	0.001713	28.0801	64.7504	0.001869	34650.3	7.166901	172.506	384.024	1.137190	0.050842	0.050524	386.657	34650.3	0.042473	0.070574	5478.72	119167
359	2.000000	1.147508	7.36858e+06	-56589.1	955.821	-29738.9	0.000000	0.000000	7.166403	458.401	NaN	0.000000	0.001560	0.001744	28.0811	71.9609	0.001748	41172.2	2.496755	175.506	456.097	1.147364	0.060841	0.060698	458.401	41172.2	0.052491	0.100268	4571.74	118794
359	2.000000	1.157497	7.36858e+06	-56589.1	955.82	-29738.9	0.000000	0.000000	7.181077	572.287	NaN	0.000000	0.001554	0.001680	28.0813	81.6622	0.001921	42500.1	7.831357	170.807	572.641	1.157074	0.070830	0.070408	572.287	42500.1	0.060731	0.128443	4455.58	108345
359	2.000000	1.167735	7.36858e+06	-56589.1	955.821	-29738.9	0.000000	0.000000	7.194860	658.428	NaN	0.000000	0.001529	0.001752	28.0814	90.5992	0.001976	45851.1	10.7616	169.371	669.897	1.167104	0.081068	0.080437	658.428	45851.1	0.070298	0.165303	3983.15	103034
359	2.000000	1.174378	7.36858e+06	-56589.1	955.82	-29738.9	0.000000	0.000000	7.204503	731.354	NaN	0.000000	0.001573	0.001776	28.0827	94.2491	0.001697	55522.8	3.095952	173.304	725.318	1.174038	0.087712	0.087372	731.354	55522.8	0.077833	0.197401	3704.91	114175

File: 2025-07-22_16-23-58_1_360.txt
2025-07-22, 16:23:58, 1
Index	Phase	Displacement	Time	Pos X	Pos Y	Pos Z	Rot A	Rot B	Piezo Z	Force A	Force B	Gripper	Voltage A	Voltage B	Temperature	Amplitude force	Amplitude pos	Stiffness	Phase shift	Phase excitation	Force A raw	Displacement raw	HMax	HMax raw	Real Force	Real Stiffness	Contact Depth	Area	Hardness	Reduced Mod.
[#]	[#]	[um]	[s]	[um]	[um]	[um]	[m°]	[m°]	[um]	[uN]	[uN]	[V]	[V]	[V]	[°C]	[uN]	[um]	[N/m]	[°]	[°]	[uN]	[um]	[um]	[um]	[uN]	[N/m]	[um]	[um^2]	[MPa]	[MPa]
360	1.000000	0.003053	7.36858e+06	-56639.1	955.819	-29738.8	0.000000	0.000000	6.002811	0.020970	NaN	0.000000	0.001607	0.001764	28.082	0.022071	0.001001	22.0486	0.533923	-161.1	-0.044256	0.001798	-1.026244	-1.027499	0.020970	22.0486	-1.026957	-5.230570E+13	-4.009120E-16	NaN
360	1.000000	0.043010	7.36858e+06	-56639.1	955.818	-29738.8	0.000000	0.000000	6.042766	-0.017333	NaN	0.000000	0.001593	0.001722	28.0824	0.076166	0.001936	39.3475	-146.912	-161.904	-0.054384	0.041636	-0.986287	-0.987661	-0.017333	39.3475	-0.985957	-1.467759E+13	1.180939E-15	NaN
360	1.000000	0.082982	7.36858e+06	-56639.1	955.819	-29738.8	0.000000	0.000000	6.082738	-0.015022	NaN	0.000000	0.001571	0.001696	28.0809	0.059509	0.001996	29.8162	-174.013	-167.837	-0.009023	0.081696	-0.946315	-0.947601	-0.015022	29.8162	-0.945937	-4.238703E+12	3.543914E-15	NaN
360	1.000000	0.123024	7.36858e+06	-56639.1	955.818	-29738.8	0.000000	0.000000	6.122781	-0.002448	NaN	0.000000	0.001490	0.001718	28.0809	0.077108	0.001990	38.7534	81.1544	-166.799	-0.023143	0.121698	-0.906273	-0.907598	-0.002448	38.7534	-0.906226	-1.233612E+12	1.984618E-15	NaN
360	1.000000	0.163025	7.36858e+06	-56639.1	955.818	-29738.8	0.000000	0.000000	6.162783	0.006161	NaN	0.000000	0.001570	0.001768	28.0807	0.081504	0.001858	43.8708	163.808	-166.909	0.000735	0.161714	-0.866271	-0.867583	0.006161	43.8708	-0.866377	-3.567958E+11	-1.726860E-14	NaN
360	1.000000	0.203071	7.36858e+06	-56639.1	955.818	-29738.8	0.000000	0.000000	6.202826	-0.043664	NaN	0.000000	0.001525	0.001729	28.0809	0.124451	0.002074	59.9932	-178.649	-167.004	0.019405	0.201759	-0.826226	-0.827538	-0.043664	59.9932	-0.825680	-1.002837E+11	4.354096E-13	NaN
360	1.000000	0.243048	7.36858e+06	-56639.1	955.819	-29738.8	0.000000	0.000000	6.242807	0.056621	NaN	0.000000	0.001527	0.001736	28.0821	0.128266	0.002102	61.021	78.4168	-167.422	-0.002584	0.241788	-0.786249	-0.787508	0.056621	61.021	-0.786945	-2.989433E+10	-1.894034E-12	NaN
360	1.000000	0.283094	7.36858e+06	-56639.1	955.818	-29738.8	0.000000	0.000000	6.282850	-0.018483	NaN	0.000000	0.001513	0.001733	28.0821	0.022426	0.001937	11.5774	-167.85	-166.948	-0.013544	0.281760	-0.746203	-0.747536	-0.018483	11.5774	-0.745006	-8.039439E+9	2.299086E-12	NaN
360	1.000000	0.323112	7.36858e+06	-56639.1	955.818	-29738.8	0.000000	0.000000	6.322866	-0.066619	NaN	0.000000	0.001519	0.001748	28.0826	0.068729	0.001982	34.684	87.858	-163.37	0.002640	0.321772	-0.706185	-0.707525	-0.066619	34.684	-0.704745	-2.271509E+9	2.932795E-11	NaN
360	1.000000	0.363103	7.36858e+06	-56639.1	955.818	-29738.8	0.000000	0.000000	6.362858	-0.034678	NaN	0.000000	0.001529	0.001713	28.0806	0.110855	0.002006	55.2637	-75.8349	-167.093	-0.041619	0.361800	-0.666194	-0.667496	-0.034678	55.2637	-0.665723	-6.650391E+8	5.214416E-11	NaN
360	1.000000	0.403143	7.36858e+06	-56639.1	955.819	-29738.8	0.000000	0.000000	6.402899	-0.017750	NaN	0.000000	0.001512	0.001735	28.0808	0.108755	0.002030	53.5685	-18.1144	-166.565	-0.054481	0.401832	-0.626154	-0.627465	-0.017750	53.5685	-0.625905	-1.891381E+8	9.384769E-11	NaN
360	1.000000	0.443147	7.36858e+06	-56639.1	955.817	-29738.8	0.000000	0.000000	6.442902	-0.043451	NaN	0.000000	0.001548	0.001737	28.081	0.116512	0.001982	58.7777	89.3118	-165.261	0.030850	0.441884	-0.586150	-0.587413	-0.043451	58.7777	-0.585595	-5.271386E+7	8.242726E-10	NaN
360	1.000000	0.483172	7.36858e+06	-56639.1	955.818	-29738.8	0.000000	0.000000	6.482931	0.037586	NaN	0.000000	0.001608	0.001751	28.0808	0.099134	0.002119	46.7912	-2.144179	-165.065	0.010329	0.481853	-0.546124	-0.547444	0.037586	46.7912	-0.546727	-1.529719E+7	-2.457057E-9	NaN
360	1.000000	0.523219	7.36858e+06	-56639.1	955.818	-29738.8	0.000000	0.000000	6.522973	-0.078123	NaN	0.000000	0.001521	0.001769	28.0818	0.096082	0.001877	51.2001	-52.5851	-166.269	-0.021037	0.521890	-0.506078	-0.507407	-0.078123	51.2001	-0.504934	-4.01625e+06	1.945159E-8	NaN
360	1.000000	0.563218	7.36858e+06	-56639.1	955.818	-29738.8	0.000000	0.000000	6.562978	0.061651	NaN	0.000000	0.001520	0.001708	28.0819	0.037658	0.001938	19.4273	-131.72	-169.036	0.042906	0.561907	-0.466078	-0.467389	0.061651	19.4273	-0.468458	-1.24103e+06	-4.967689E-8	NaN
360	1.000000	0.603195	7.36858e+06	-56639.1	955.818	-29738.8	0.000000	0.000000	6.602955	0.056942	NaN	0.000000	0.001536	0.001733	28.0823	0.073540	0.001936	37.9814	146.867	-166.302	0.002864	0.602012	-0.426101	-0.427285	0.056942	37.9814	-0.427226	-325688	-1.748362E-7	NaN
360	1.000000	0.643239	7.36858e+06	-56639.1	955.818	-29738.8	0.000000	0.000000	6.642994	-0.043533	NaN	0.000000	0.001504	0.001687	28.081	0.028500	0.002081	13.6963	-35.5898	-163.889	-0.024920	0.641955	-0.386058	-0.387342	-0.043533	13.6963	-0.383674	-78087.8	5.574839E-7	NaN
360	1.000000	0.683261	7.36858e+06	-56639.1	955.819	-29738.8	0.000000	0.000000	6.683017	-0.024796	NaN	0.000000	0.001538	0.001714	28.0813	0.047617	0.002089	22.7908	-89.3265	-162.431	-0.014127	0.681953	-0.346036	-0.347344	-0.024796	22.7908	-0.345220	-21755	1.139765E-6	NaN
360	1.000000	0.723250	7.36858e+06	-56639.1	955.819	-29738.8	0.000000	0.000000	6.723005	-0.047948	NaN	0.000000	0.001525	0.001735	28.081	0.072629	0.001957	37.1152	-79.6689	-163.968	-0.056103	0.721945	-0.306047	-0.307352	-0.047948	37.1152	-0.305078	-5599.06	8.563592E-6	NaN
360	1.000000	0.763315	7.36858e+06	-56639.1	955.819	-29738.8	0.000000	0.000000	6.763072	0.004901	NaN	0.000000	0.001510	0.001730	28.0811	0.078865	0.001985	39.7266	75.6691	-166.666	0.033455	0.762034	-0.265982	-0.267263	0.004901	39.7266	-0.266074	-1451.37	-3.376798E-6	NaN
360	1.000000	0.803292	7.36858e+06	-56639.1	955.818	-29738.8	0.000000	0.000000	6.803050	0.033098	NaN	0.000000	0.001532	0.001740	28.0822	0.075906	0.002034	37.3131	64.8473	-167.413	0.043116	0.801985	-0.226005	-0.227312	0.033098	37.3131	-0.226670	-354.682	-9.331602E-5	NaN
360	1.000000	0.843314	7.36858e+06	-56639.1	955.818	-29738.8	0.000000	0.000000	6.843070	-0.043334	NaN	0.000000	0.001530	0.001707	28.0822	0.018090	0.002014	8.981790	78.7058	-165.384	-0.072811	0.841973	-0.185982	-0.187323	-0.043334	8.981790	-0.182364	-66.9259	0.000647	NaN
360	1.000000	0.883351	7.36859e+06	-56639.1	955.819	-29738.8	0.000000	0.000000	6.883107	-0.013907	NaN	0.000000	0.001505	0.001720	28.082	0.050196	0.001935	25.9413	101.164	-168.828	-0.030041	0.882028	-0.145946	-0.147269	-0.013907	25.9413	-0.145544	-15.0045	0.000927	NaN
360	1.000000	0.923357	7.36859e+06	-56639.1	955.818	-29738.8	0.000000	0.000000	6.923112	-0.030037	NaN	0.000000	0.001562	0.001746	28.0811	0.027307	0.002002	13.6428	105.148	-164.326	-0.065235	0.922007	-0.105940	-0.107290	-0.030037	13.6428	-0.104289	-2.268749	0.013240	NaN
360	1.000000	0.963366	7.36859e+06	-56639.1	955.819	-29738.8	0.000000	0.000000	6.963122	-0.032521	NaN	0.000000	0.001599	0.001735	28.0813	0.089085	0.002052	43.4077	-88.1795	-165.708	0.000732	0.962072	-0.065931	-0.067225	-0.032521	43.4077	-0.065369	-0.255150	0.127461	NaN
360	1.000000	1.003372	7.36859e+06	-56639.1	955.819	-29738.8	0.000000	0.000000	7.003130	0.022886	NaN	0.000000	0.001549	0.001735	28.081	0.046279	0.002064	22.4234	122.353	-166.458	-0.005230	1.002089	-0.025925	-0.027208	0.022886	22.4234	-0.026691	-0.018696	-1.224134	NaN
360	2.000000	1.040994	7.36859e+06	-56639.1	955.819	-29738.8	0.000000	0.000000	7.041148	9.649429	NaN	0.000000	0.001511	0.001751	28.0824	10.3229	0.001618	6381.8	1.818475	-170.97	8.777112	1.040685	0.011697	0.011389	9.649429	6381.8	0.010563	0.009814	983.21	58855.7
360	2.000000	1.050946	7.36859e+06	-56639.1	955.819	-29738.8	0.000000	0.000000	7.051623	22.3662	NaN	0.000000	0.001517	0.001728	28.0826	20.8607	0.001908	10933.6	6.614299	-177.765	22.8143	1.050639	0.021649	0.021343	22.3662	10933.6	0.020115	0.022723	984.318	66268.5
360	2.000000	1.060898	7.36859e+06	-56639.1	955.818	-29738.8	0.000000	0.000000	7.062354	41.3001	NaN	0.000000	0.001526	0.001726	28.0827	29.6935	0.001857	15991.2	2.731981	-178.379	39.7415	1.060567	0.031601	0.031270	41.3001	15991.2	0.029664	0.040050	1031.21	73004.8
360	2.000000	1.070913	7.36859e+06	-56639.1	955.82	-29738.8	0.000000	0.000000	7.073476	68.1805	NaN	0.000000	0.001562	0.001739	28.0826	39.3266	0.001767	22256.9	3.905100	178.405	69.8295	1.070591	0.041617	0.041294	68.1805	22256.9	0.039319	0.062281	1094.73	81482.1
360	2.000000	1.080808	7.36859e+06	-56639.1	955.819	-29738.8	0.000000	0.000000	7.084975	107.204	NaN	0.000000	0.001601	0.001744	28.0816	49.2151	0.001752	28089.3	6.656334	173.38	104.503	1.080468	0.051511	0.051171	107.204	28089.3	0.048649	0.088282	1214.34	86373.1
360	2.000000	1.090881	7.36859e+06	-56639.1	955.819	-29738.8	0.000000	0.000000	7.096659	146.348	NaN	0.000000	0.001507	0.001743	28.0815	60.8564	0.001817	33490	4.273816	174.53	148.038	1.090558	0.061584	0.061261	146.348	33490	0.058307	0.119806	1221.54	88399.4
360	2.000000	1.100885	7.36859e+06	-56639.1	955.819	-29738.8	0.000000	0.000000	7.108898	200.657	NaN	0.000000	0.001544	0.001741	28.0816	70.5601	0.001818	38819.9	7.973508	169.197	201.87	1.100473	0.071588	0.071176	200.657	38819.9	0.067712	0.154904	1295.36	90114.7
360	2.000000	1.110851	7.36859e+06	-56639.1	955.819	-29738.8	0.000000	0.000000	7.121041	253.587	NaN	0.000000	0.001529	0.001726	28.0827	78.7725	0.001753	44925.9	3.237988	173.022	256.672	1.110475	0.081554	0.081178	253.587	44925.9	0.077320	0.195135	1299.55	92918.5
360	2.000000	1.120794	7.36859e+06	-56639.1	955.819	-29738.8	0.000000	0.000000	7.133803	322.103	NaN	0.000000	0.001563	0.001705	28.0824	87.4334	0.001822	47989.2	0.902961	174.8	321.738	1.120591	0.091497	0.091294	322.103	47989.2	0.086463	0.237430	1356.62	89980.8
360	2.000000	1.130819	7.36859e+06	-56639.1	955.819	-29738.8	0.000000	0.000000	7.147224	404.649	NaN	0.000000	0.001555	0.001723	28.0825	96.357	0.001734	55565	1.994813	172.75	405.011	1.130390	0.101522	0.101093	404.649	55565	0.096060	0.285974	1414.99	94931.8
360	2.000000	1.138788	7.36859e+06	-56639.1	955.819	-29738.8	0.000000	0.000000	7.157802	468.076	NaN	0.000000	0.001524	0.001701	28.0826	103.929	0.001733	59979.8	6.753673	167.714	467.211	1.138411	0.109491	0.109114	468.076	59979.8	0.103638	0.327272	1430.23	95790.8