Folder: unikorn_login/remote_trans/data/nanoindenter/0828-1/data/Data_2025-08-06,11h17m57s (part 152)

File: 2025-07-22_16-23-58_1_321.txt
2025-07-22, 16:23:58, 1
Index	Phase	Displacement	Time	Pos X	Pos Y	Pos Z	Rot A	Rot B	Piezo Z	Force A	Force B	Gripper	Voltage A	Voltage B	Temperature	Amplitude force	Amplitude pos	Stiffness	Phase shift	Phase excitation	Force A raw	Displacement raw	HMax	HMax raw	Real Force	Real Stiffness	Contact Depth	Area	Hardness	Reduced Mod.
[#]	[#]	[um]	[s]	[um]	[um]	[um]	[m°]	[m°]	[um]	[uN]	[uN]	[V]	[V]	[V]	[°C]	[uN]	[um]	[N/m]	[°]	[°]	[uN]	[um]	[um]	[um]	[uN]	[N/m]	[um]	[um^2]	[MPa]	[MPa]
321	1.000000	0.002292	7.36821e+06	-54689.1	955.818	-29743.3	0.000000	0.000000	6.002806	-0.057914	NaN	0.000000	0.001657	0.001757	28.077	0.073317	0.000962	76.2426	-47.4302	-163.123	-0.022570	0.001061	-1.098808	-1.100039	-0.057914	76.2426	-1.098238	-4.746963E+14	1.220032E-16	NaN
321	1.000000	0.044237	7.36821e+06	-54689.1	955.818	-29743.3	0.000000	0.000000	6.044750	-0.061781	NaN	0.000000	0.001643	0.001711	28.0773	0.124534	0.002056	60.5659	176.669	15.4816	-0.085755	0.042907	-1.056864	-1.058193	-0.061781	60.5659	-1.056098	-1.289396E+14	4.791493E-16	NaN
321	1.000000	0.086267	7.36821e+06	-54689.1	955.818	-29743.3	0.000000	0.000000	6.086780	-0.060245	NaN	0.000000	0.001673	0.001719	28.0786	0.053423	0.001951	27.3776	28.7289	-169.275	-0.033034	0.084973	-1.014833	-1.016127	-0.060245	27.3776	-1.013183	-3.413612E+13	1.764840E-15	NaN
321	1.000000	0.128255	7.36821e+06	-54689.1	955.819	-29743.3	0.000000	0.000000	6.128768	-0.066275	NaN	0.000000	0.001649	0.001745	28.0784	0.081034	0.002000	40.5256	-170.782	13.176	-0.027563	0.126910	-0.972845	-0.974190	-0.066275	40.5256	-0.971619	-9.407597E+12	7.044869E-15	NaN
321	1.000000	0.170253	7.36821e+06	-54689.1	955.817	-29743.3	0.000000	0.000000	6.170768	-0.018814	NaN	0.000000	0.001632	0.001725	28.0784	0.037633	0.001865	20.1792	160.954	-164.611	-0.078659	0.168953	-0.930847	-0.932148	-0.018814	20.1792	-0.930148	-2.595307E+12	7.249077E-15	NaN
321	1.000000	0.212318	7.36821e+06	-54689.1	955.819	-29743.3	0.000000	0.000000	6.212833	-0.012411	NaN	0.000000	0.001678	0.001701	28.0775	0.025120	0.002088	12.0332	-142.252	15.8349	0.013107	0.210962	-0.888782	-0.890139	-0.012411	12.0332	-0.888008	-6.998291E+11	1.773457E-14	NaN
321	1.000000	0.254330	7.36821e+06	-54689.1	955.818	-29743.3	0.000000	0.000000	6.254845	-0.012357	NaN	0.000000	0.001675	0.001727	28.0774	0.035933	0.002107	17.0539	-47.4882	-165.7	-0.009697	0.253012	-0.846770	-0.848088	-0.012357	17.0539	-0.846227	-1.903884E+11	6.490636E-14	NaN
321	1.000000	0.296324	7.36821e+06	-54689.1	955.817	-29743.3	0.000000	0.000000	6.296836	-0.087279	NaN	0.000000	0.001633	0.001702	28.0772	0.060194	0.001929	31.2113	-73.4646	14.1281	-0.119262	0.294980	-0.804776	-0.806120	-0.087279	31.2113	-0.802679	-4.889046E+10	1.785189E-12	NaN
321	1.000000	0.338342	7.36821e+06	-54689.1	955.818	-29743.3	0.000000	0.000000	6.338857	-0.021334	NaN	0.000000	0.001668	0.001695	28.0788	0.194062	0.002002	96.9447	39.9608	-167.247	-0.021197	0.337041	-0.762758	-0.764060	-0.021334	96.9447	-0.762593	-1.395010E+10	1.529326E-12	NaN
321	1.000000	0.380389	7.36821e+06	-54689.1	955.818	-29743.3	0.000000	0.000000	6.380901	-0.081006	NaN	0.000000	0.001665	0.001711	28.0784	0.130700	0.002045	63.9228	43.4984	14.9634	-0.080735	0.378996	-0.720712	-0.722104	-0.081006	63.9228	-0.719761	-3.640966E+9	2.224838E-11	NaN
321	1.000000	0.422372	7.36821e+06	-54689.1	955.818	-29743.3	0.000000	0.000000	6.422890	0.061083	NaN	0.000000	0.001638	0.001733	28.0783	0.047808	0.001993	23.9824	-33.6326	-164.881	-0.023429	0.421111	-0.678728	-0.679990	0.061083	23.9824	-0.680638	-1.063988E+9	-5.740947E-11	NaN
321	1.000000	0.464423	7.36821e+06	-54689.1	955.818	-29743.3	0.000000	0.000000	6.464934	-0.100469	NaN	0.000000	0.001605	0.001699	28.0771	0.031884	0.001998	15.9563	-66.5685	17.2878	-0.082047	0.463034	-0.636678	-0.638066	-0.100469	15.9563	-0.631955	-2.290185E+8	4.386921E-10	NaN
321	1.000000	0.506424	7.36821e+06	-54689.1	955.818	-29743.3	0.000000	0.000000	6.506939	-0.003254	NaN	0.000000	0.001628	0.001719	28.0769	0.053647	0.001940	27.6545	163.967	-162.777	0.021295	0.505104	-0.594677	-0.595996	-0.003254	27.6545	-0.594588	-7.013064E+7	4.639906E-11	NaN
321	1.000000	0.548429	7.36821e+06	-54689.1	955.819	-29743.3	0.000000	0.000000	6.548944	-0.012083	NaN	0.000000	0.001640	0.001717	28.0768	0.035473	0.002011	17.6369	-164.505	16.2755	0.025942	0.547128	-0.552671	-0.553973	-0.012083	17.6369	-0.552157	-1.818993E+7	6.642657E-10	NaN
321	1.000000	0.590475	7.36821e+06	-54689.1	955.818	-29743.3	0.000000	0.000000	6.590990	-0.027243	NaN	0.000000	0.001662	0.001747	28.077	0.104168	0.002099	49.636	-77.9356	-163.529	-0.041217	0.589162	-0.510625	-0.511938	-0.027243	49.636	-0.510213	-4.7576e+06	5.726298E-9	NaN
321	1.000000	0.632451	7.36821e+06	-54689.1	955.818	-29743.3	0.000000	0.000000	6.632965	-0.041387	NaN	0.000000	0.001675	0.001703	28.0784	0.121396	0.002017	60.1771	-148.384	15.5946	-0.083202	0.631139	-0.468649	-0.469961	-0.041387	60.1771	-0.468133	-1.22806e+06	3.370129E-8	NaN
321	1.000000	0.674511	7.36821e+06	-54689.1	955.818	-29743.3	0.000000	0.000000	6.675025	-0.035930	NaN	0.000000	0.001654	0.001686	28.0785	0.099401	0.002097	47.4122	-179.228	-163.857	-0.097553	0.673184	-0.426590	-0.427917	-0.035930	47.4122	-0.426021	-313146	1.147390E-7	NaN
321	1.000000	0.716495	7.36821e+06	-54689.1	955.819	-29743.3	0.000000	0.000000	6.717010	-0.023517	NaN	0.000000	0.001626	0.001724	28.0783	0.043201	0.001995	21.6536	69.0491	15.6614	-0.062742	0.715196	-0.384605	-0.385904	-0.023517	21.6536	-0.383790	-78388.4	3.000093E-7	NaN
321	1.000000	0.758520	7.36821e+06	-54689.1	955.818	-29743.3	0.000000	0.000000	6.759034	-0.039499	NaN	0.000000	0.001676	0.001742	28.0773	0.044190	0.001970	22.4333	81.9583	-167.862	-0.057513	0.757244	-0.342580	-0.343856	-0.039499	22.4333	-0.341260	-19050.8	2.073363E-6	NaN
321	1.000000	0.800580	7.36821e+06	-54689.1	955.817	-29743.3	0.000000	0.000000	6.801096	0.011648	NaN	0.000000	0.001669	0.001757	28.0776	0.030104	0.002054	14.6593	111.903	17.2131	0.027456	0.799181	-0.300520	-0.301919	0.011648	14.6593	-0.301116	-4889.25	-2.382449E-6	NaN
321	1.000000	0.842576	7.36821e+06	-54689.1	955.819	-29743.3	0.000000	0.000000	6.843088	-0.070816	NaN	0.000000	0.001644	0.001769	28.0774	0.046375	0.001986	23.3565	-95.5263	-163.597	-0.057590	0.841244	-0.258524	-0.259856	-0.070816	23.3565	-0.256251	-1026.49	6.898801E-5	NaN
321	1.000000	0.884600	7.36821e+06	-54689.1	955.818	-29743.3	0.000000	0.000000	6.885113	-0.053762	NaN	0.000000	0.001627	0.001745	28.0787	0.079263	0.002070	38.2999	177.932	12.6984	-0.100485	0.883253	-0.216500	-0.217847	-0.053762	38.2999	-0.215447	-234.805	0.000229	NaN
321	1.000000	0.926592	7.36821e+06	-54689.1	955.819	-29743.3	0.000000	0.000000	6.927106	-0.042855	NaN	0.000000	0.001656	0.001722	28.0784	0.106143	0.002016	52.6632	77.1737	-165.56	-0.008149	0.925306	-0.174508	-0.175794	-0.042855	52.6632	-0.173898	-47.9752	0.000893	NaN
321	1.000000	0.968602	7.36821e+06	-54689.1	955.819	-29743.3	0.000000	0.000000	6.969113	-0.103861	NaN	0.000000	0.001670	0.001739	28.0781	0.086606	0.001946	44.5143	98.0065	13.2218	-0.066087	0.967297	-0.132498	-0.133803	-0.103861	44.5143	-0.130748	-7.879979	0.013180	NaN
321	1.000000	1.010632	7.36821e+06	-54689.1	955.818	-29743.3	0.000000	0.000000	7.011145	-0.063021	NaN	0.000000	0.001567	0.001724	28.0769	0.056428	0.002079	27.1367	-118.685	-164.804	-0.038213	1.009305	-0.090468	-0.091795	-0.063021	27.1367	-0.088726	-1.008823	0.062470	NaN
321	1.000000	1.052673	7.36821e+06	-54689.1	955.817	-29743.3	0.000000	0.000000	7.053187	-0.034805	NaN	0.000000	0.001604	0.001738	28.077	0.075417	0.002014	37.4502	43.9878	13.4726	-0.115938	1.051304	-0.048427	-0.049796	-0.034805	37.4502	-0.047730	-0.077865	0.446991	NaN
321	1.000000	1.094658	7.36821e+06	-54689.1	955.82	-29743.3	0.000000	0.000000	7.095170	-0.074059	NaN	0.000000	0.001572	0.001741	28.077	0.066018	0.001897	34.7959	-46.1134	-165.45	-0.023910	1.093370	-0.006443	-0.007731	-0.074059	34.7959	-0.004846	-0.003320	22.3075	NaN
321	2.000000	1.117647	7.36821e+06	-54689.1	955.818	-29743.3	0.000000	0.000000	7.118896	17.8462	NaN	0.000000	0.001585	0.001722	28.077	16.3199	0.001836	8886.45	8.226741	3.218179	16.9152	1.117372	0.016546	0.016272	17.8462	8886.45	0.015040	0.015339	1163.45	65554.4
321	2.000000	1.128102	7.36821e+06	-54689.1	955.819	-29743.3	0.000000	0.000000	7.130215	38.848	NaN	0.000000	0.001618	0.001681	28.0782	26.4726	0.001799	14717.1	6.295240	-178.142	36.7091	1.127782	0.027002	0.026682	38.848	14717.1	0.025022	0.031056	1250.91	76299.9
321	2.000000	1.138622	7.36821e+06	-54689.1	955.817	-29743.3	0.000000	0.000000	7.141764	63.8582	NaN	0.000000	0.001596	0.001737	28.0791	36.2658	0.001759	20621.1	1.990298	2.535109	63.8612	1.138339	0.037521	0.037239	63.8582	20621.1	0.035199	0.052210	1223.1	82453.3
321	2.000000	1.149065	7.36821e+06	-54689.1	955.818	-29743.3	0.000000	0.000000	7.153877	104.46	NaN	0.000000	0.001577	0.001729	28.0785	46.5083	0.001747	26625.5	4.073609	177.966	102.583	1.148790	0.047965	0.047690	104.46	26625.5	0.045022	0.077650	1345.26	87297.2
321	2.000000	1.159571	7.36821e+06	-54689.1	955.819	-29743.3	0.000000	0.000000	7.166087	145.862	NaN	0.000000	0.001616	0.001684	28.077	55.9992	0.001709	32758.4	1.981877	-1.140615	145.179	1.159327	0.058471	0.058227	145.862	32758.4	0.055132	0.108932	1339.02	90681.6
321	2.000000	1.170091	7.36821e+06	-54689.1	955.82	-29743.3	0.000000	0.000000	7.178697	196.692	NaN	0.000000	0.001652	0.001731	28.0773	67.5633	0.001847	36575.9	5.360945	174.938	196.964	1.169654	0.068990	0.068554	196.692	36575.9	0.064957	0.144182	1364.19	88006
321	2.000000	1.180513	7.36821e+06	-54689.1	955.82	-29743.3	0.000000	0.000000	7.191287	249.393	NaN	0.000000	0.001683	0.001706	28.0769	78.137	0.001881	41542.7	5.872418	-7.619543	246.731	1.180319	0.079412	0.079218	249.393	41542.7	0.074910	0.184632	1350.76	88331.2
321	2.000000	1.190977	7.36821e+06	-54689.1	955.82	-29743.3	0.000000	0.000000	7.204376	313.201	NaN	0.000000	0.001689	0.001728	28.0783	86.629	0.001733	49993.1	0.773010	176.187	310.467	1.190679	0.089877	0.089579	313.201	49993.1	0.085178	0.231251	1354.38	94982
321	2.000000	1.201428	7.36821e+06	-54689.1	955.819	-29743.3	0.000000	0.000000	7.218074	392.138	NaN	0.000000	0.001660	0.001633	28.078	97.7517	0.001882	51930.7	5.059933	-8.233882	385.033	1.201073	0.100328	0.099972	392.138	51930.7	0.094664	0.278652	1407.27	89880.7
321	2.000000	1.210080	7.36821e+06	-54689.1	955.82	-29743.3	0.000000	0.000000	7.230151	475.402	NaN	0.000000	0.001644	0.001664	28.0782	105.1	0.001706	61609.8	4.088219	172.112	476.231	1.209653	0.108980	0.108552	475.402	61609.8	0.103192	0.324771	1463.81	98772.1

File: 2025-07-22_16-23-58_1_322.txt
2025-07-22, 16:23:58, 1
Index	Phase	Displacement	Time	Pos X	Pos Y	Pos Z	Rot A	Rot B	Piezo Z	Force A	Force B	Gripper	Voltage A	Voltage B	Temperature	Amplitude force	Amplitude pos	Stiffness	Phase shift	Phase excitation	Force A raw	Displacement raw	HMax	HMax raw	Real Force	Real Stiffness	Contact Depth	Area	Hardness	Reduced Mod.
[#]	[#]	[um]	[s]	[um]	[um]	[um]	[m°]	[m°]	[um]	[uN]	[uN]	[V]	[V]	[V]	[°C]	[uN]	[um]	[N/m]	[°]	[°]	[uN]	[um]	[um]	[um]	[uN]	[N/m]	[um]	[um^2]	[MPa]	[MPa]
322	1.000000	0.002523	7.36822e+06	-54739.1	955.818	-29743.3	0.000000	0.000000	6.002787	0.120338	NaN	0.000000	0.001672	0.001683	28.0785	0.049075	0.000948	51.7683	-47.45	-163.648	0.107557	0.001272	-0.998812	-1.000064	0.120338	51.7683	-1.000556	-2.308094E+13	-5.213753E-15	NaN
322	1.000000	0.040489	7.36822e+06	-54739.1	955.819	-29743.3	0.000000	0.000000	6.040750	0.036615	NaN	0.000000	0.001714	0.001679	28.0801	0.077815	0.002041	38.1198	-113.16	13.2384	0.041518	0.039135	-0.960846	-0.962200	0.036615	38.1198	-0.961567	-6.886355E+12	-5.317067E-15	NaN
322	1.000000	0.078499	7.36822e+06	-54739.1	955.818	-29743.3	0.000000	0.000000	6.078758	0.007592	NaN	0.000000	0.001658	0.001679	28.0802	0.088930	0.002099	42.3622	179.65	-164.566	0.071229	0.077206	-0.922837	-0.924130	0.007592	42.3622	-0.922971	-2.076439E+12	-3.656247E-15	NaN
322	1.000000	0.116534	7.36822e+06	-54739.1	955.819	-29743.3	0.000000	0.000000	6.116793	0.002917	NaN	0.000000	0.001606	0.001703	28.08	0.070898	0.002066	34.3094	105.175	17.3153	0.019945	0.115202	-0.884801	-0.886134	0.002917	34.3094	-0.884865	-6.345949E+11	-4.597304E-15	NaN
322	1.000000	0.154538	7.36822e+06	-54739.1	955.818	-29743.3	0.000000	0.000000	6.154797	-0.002002	NaN	0.000000	0.001733	0.001683	28.0801	0.014478	0.001955	7.406459	-19.8541	-164.921	-0.010765	0.153218	-0.846798	-0.848117	-0.002002	7.406459	-0.846595	-1.925859E+11	1.039692E-14	NaN
322	1.000000	0.192547	7.36822e+06	-54739.1	955.818	-29743.3	0.000000	0.000000	6.192807	0.032935	NaN	0.000000	0.001694	0.001746	28.0789	0.154259	0.002027	76.1018	-40.9173	15.206	-0.005393	0.191234	-0.808788	-0.810102	0.032935	76.1018	-0.809113	-5.977722E+10	-5.509569E-13	NaN
322	1.000000	0.230569	7.36822e+06	-54739.1	955.818	-29743.3	0.000000	0.000000	6.230832	0.082914	NaN	0.000000	0.001598	0.001684	28.0791	0.069638	0.002014	34.5702	152.562	-166.177	0.069654	0.229236	-0.770766	-0.772099	0.082914	34.5702	-0.772565	-1.906249E+10	-4.349603E-12	NaN
322	1.000000	0.268570	7.36822e+06	-54739.1	955.818	-29743.3	0.000000	0.000000	6.268828	-0.027155	NaN	0.000000	0.001620	0.001669	28.0787	0.046453	0.002094	22.1798	9.195699	13.309	0.020054	0.267244	-0.732765	-0.734091	-0.027155	22.1798	-0.731847	-5.320831E+9	5.103484E-12	NaN
322	1.000000	0.306594	7.36822e+06	-54739.1	955.818	-29743.3	0.000000	0.000000	6.306852	-0.013285	NaN	0.000000	0.001582	0.001717	28.08	0.066088	0.001958	33.7476	23.9596	-163.592	-0.057945	0.305316	-0.694742	-0.696019	-0.013285	33.7476	-0.694446	-1.643139E+9	8.085327E-12	NaN
322	1.000000	0.344630	7.36822e+06	-54739.1	955.818	-29743.3	0.000000	0.000000	6.344887	-0.051096	NaN	0.000000	0.001607	0.001694	28.0802	0.041613	0.001974	21.0781	68.8741	15.0052	0.035004	0.343266	-0.656705	-0.658070	-0.051096	21.0781	-0.654887	-4.725238E+8	1.081335E-10	NaN
322	1.000000	0.382640	7.36822e+06	-54739.1	955.819	-29743.3	0.000000	0.000000	6.382900	0.029617	NaN	0.000000	0.001620	0.001713	28.0798	0.070758	0.002098	33.7262	-53.3607	-163.265	0.110634	0.381299	-0.618696	-0.620037	0.029617	33.7262	-0.619354	-1.537291E+8	-1.926564E-10	NaN
322	1.000000	0.420665	7.36822e+06	-54739.1	955.819	-29743.3	0.000000	0.000000	6.420923	-0.008688	NaN	0.000000	0.001635	0.001673	28.0796	0.148635	0.002093	71.0202	18.1504	13.7494	0.045946	0.419272	-0.580671	-0.582063	-0.008688	71.0202	-0.580579	-4.494865E+7	1.932850E-10	NaN
322	1.000000	0.458662	7.36822e+06	-54739.1	955.819	-29743.3	0.000000	0.000000	6.458921	0.011648	NaN	0.000000	0.001644	0.001677	28.0783	0.147917	0.002074	71.3167	110.51	-162.131	-0.017071	0.457360	-0.542674	-0.543976	0.011648	71.3167	-0.542796	-1.349368E+7	-8.632245E-10	NaN
322	1.000000	0.496659	7.36822e+06	-54739.1	955.818	-29743.3	0.000000	0.000000	6.496920	0.031007	NaN	0.000000	0.001626	0.001694	28.0788	0.061724	0.002013	30.665	119.006	16.3172	0.022091	0.495298	-0.504676	-0.506038	0.031007	30.665	-0.505434	-4.08132e+06	-7.597388E-9	NaN
322	1.000000	0.534707	7.36822e+06	-54739.1	955.819	-29743.3	0.000000	0.000000	6.534966	0.017187	NaN	0.000000	0.001604	0.001700	28.0786	0.019194	0.002026	9.474542	158.288	-167.382	0.014517	0.533358	-0.466629	-0.467978	0.017187	9.474542	-0.467989	-1.22236e+06	-1.406036E-8	NaN
322	1.000000	0.572759	7.36822e+06	-54739.1	955.818	-29743.3	0.000000	0.000000	6.573020	0.060579	NaN	0.000000	0.001619	0.001695	28.0794	0.220036	0.001956	112.518	-24.0306	13.0245	0.069206	0.571361	-0.428577	-0.429974	0.060579	112.518	-0.428980	-344855	-1.756660E-7	NaN
322	1.000000	0.610722	7.36822e+06	-54739.1	955.819	-29743.3	0.000000	0.000000	6.610981	-0.007157	NaN	0.000000	0.001619	0.001673	28.0801	0.142829	0.001958	72.9645	20.5274	-166.529	-0.018509	0.609443	-0.390613	-0.391893	-0.007157	72.9645	-0.390539	-97922.8	7.308950E-8	NaN
322	1.000000	0.648763	7.36822e+06	-54739.1	955.818	-29743.3	0.000000	0.000000	6.649020	-0.051280	NaN	0.000000	0.001592	0.001676	28.0798	0.067213	0.002135	31.487	84.0417	12.6333	-0.046452	0.647378	-0.352572	-0.353957	-0.051280	31.487	-0.351351	-26705.4	1.920213E-6	NaN
322	1.000000	0.686795	7.36822e+06	-54739.1	955.818	-29743.3	0.000000	0.000000	6.687054	0.005418	NaN	0.000000	0.001659	0.001719	28.0802	0.057159	0.001973	28.9758	125.446	-168.734	-0.049060	0.685444	-0.314540	-0.315891	0.005418	28.9758	-0.314680	-7766.61	-6.976462E-7	NaN
322	1.000000	0.724753	7.36822e+06	-54739.1	955.82	-29743.3	0.000000	0.000000	6.725014	0.046125	NaN	0.000000	0.001591	0.001663	28.0788	0.018439	0.001984	9.294306	-43.8396	13.037	0.052628	0.723389	-0.276582	-0.277946	0.046125	9.294306	-0.280304	-2385.38	-1.933647E-5	NaN
322	1.000000	0.762844	7.36822e+06	-54739.1	955.819	-29743.3	0.000000	0.000000	6.763103	-0.013604	NaN	0.000000	0.001620	0.001655	28.0791	0.158557	0.001963	80.7526	-126.975	-162.739	0.039937	0.761501	-0.238491	-0.239835	-0.013604	80.7526	-0.238365	-541.987	2.510075E-5	NaN
322	1.000000	0.800778	7.36822e+06	-54739.1	955.818	-29743.3	0.000000	0.000000	6.801038	0.027742	NaN	0.000000	0.001615	0.001645	28.0794	0.108734	0.001912	56.8788	-117.45	14.4368	-0.023564	0.799426	-0.200557	-0.201910	0.027742	56.8788	-0.200923	-136.413	-0.000203	NaN
322	1.000000	0.838844	7.36822e+06	-54739.1	955.819	-29743.3	0.000000	0.000000	6.839104	0.019218	NaN	0.000000	0.001611	0.001643	28.0797	0.151046	0.002073	72.8604	21.3483	-168.431	-0.015817	0.837523	-0.162492	-0.163812	0.019218	72.8604	-0.162689	-30.593	-0.000628	NaN
322	1.000000	0.876838	7.36822e+06	-54739.1	955.819	-29743.3	0.000000	0.000000	6.877097	-0.015820	NaN	0.000000	0.001565	0.001670	28.0808	0.087894	0.002021	43.4925	95.5035	15.7466	0.031347	0.875509	-0.124497	-0.125827	-0.015820	43.4925	-0.124224	-5.869787	0.002695	NaN
322	1.000000	0.914862	7.36822e+06	-54739.1	955.819	-29743.3	0.000000	0.000000	6.915121	0.001396	NaN	0.000000	0.001598	0.001711	28.0803	0.020552	0.002010	10.2228	168.15	-165.781	-0.113038	0.913557	-0.086473	-0.087778	0.001396	10.2228	-0.086576	-0.896647	-0.001557	NaN
322	1.000000	0.952862	7.36822e+06	-54739.1	955.819	-29743.3	0.000000	0.000000	6.953119	-0.045729	NaN	0.000000	0.001594	0.001706	28.0803	0.092216	0.002072	44.5026	48.2963	12.7519	-0.037823	0.951491	-0.048473	-0.049845	-0.045729	44.5026	-0.047702	-0.077713	0.588434	NaN
322	1.000000	0.990875	7.36822e+06	-54739.1	955.819	-29743.3	0.000000	0.000000	6.991134	0.021547	NaN	0.000000	0.001621	0.001678	28.0792	0.060745	0.001933	31.4283	0.525590	-169.775	-0.023302	0.989566	-0.010461	-0.011769	0.021547	31.4283	-0.010975	-0.006944	-3.103064	NaN
322	2.000000	1.015019	7.36822e+06	-54739.1	955.819	-29743.3	0.000000	0.000000	7.015831	13.4609	NaN	0.000000	0.001623	0.001747	28.079	13.3422	0.001718	7767.76	7.052130	5.726950	13.1703	1.014773	0.013683	0.013437	13.4609	7767.76	0.012384	0.011953	1126.18	64913.7
322	2.000000	1.024505	7.36822e+06	-54739.1	955.819	-29743.3	0.000000	0.000000	7.026155	33.8177	NaN	0.000000	0.001610	0.001669	28.0792	22.5699	0.001613	13995.5	4.583374	-179.077	32.2641	1.024173	0.023170	0.022837	33.8177	13995.5	0.021358	0.024721	1368	81326.7
322	2.000000	1.033943	7.36822e+06	-54739.1	955.82	-29743.3	0.000000	0.000000	7.036498	55.8	NaN	0.000000	0.001618	0.001715	28.0793	31.818	0.001802	17656.3	10.4339	-5.531342	53.6344	1.033582	0.032608	0.032246	55.8	17656.3	0.030238	0.041238	1353.13	79437.6
322	2.000000	1.043398	7.36822e+06	-54739.1	955.82	-29743.3	0.000000	0.000000	7.047405	91.1366	NaN	0.000000	0.001617	0.001728	28.0804	41.3719	0.001716	24116.1	3.669897	177.697	87.5841	1.043080	0.042062	0.041745	91.1366	24116.1	0.039228	0.062048	1468.81	88453.9
322	2.000000	1.052895	7.36822e+06	-54739.1	955.82	-29743.3	0.000000	0.000000	7.058533	130.785	NaN	0.000000	0.001557	0.001663	28.0805	51.0695	0.001783	28635.5	3.560838	-3.711612	127.271	1.052574	0.051559	0.051239	130.785	28635.5	0.048134	0.086732	1507.93	88836
322	2.000000	1.062430	7.36822e+06	-54739.1	955.819	-29743.3	0.000000	0.000000	7.070076	179.575	NaN	0.000000	0.001624	0.001701	28.0803	61.3572	0.001737	35320.3	5.820534	172.381	179.085	1.062201	0.061094	0.060866	179.575	35320.3	0.057281	0.116240	1544.87	94649.9
322	2.000000	1.071853	7.36822e+06	-54739.1	955.819	-29743.3	0.000000	0.000000	7.082081	242.342	NaN	0.000000	0.001630	0.001674	28.0791	69.9696	0.001719	40700.8	2.147731	-4.414172	237.583	1.071441	0.070517	0.070106	242.342	40700.8	0.066052	0.148399	1633.04	96529.5
322	2.000000	1.081345	7.36822e+06	-54739.1	955.819	-29743.3	0.000000	0.000000	7.094208	306.401	NaN	0.000000	0.001580	0.001679	28.0803	81.0308	0.001797	45082.9	3.281569	173.562	302.932	1.081076	0.080010	0.079740	306.401	45082.9	0.074913	0.184645	1659.41	95855.5
322	2.000000	1.090911	7.36822e+06	-54739.1	955.819	-29743.3	0.000000	0.000000	7.107021	385.324	NaN	0.000000	0.001604	0.001723	28.0794	90.315	0.001828	49418.5	8.202872	-11.6245	384.163	1.090475	0.089576	0.089140	385.324	49418.5	0.083728	0.224371	1717.35	95318.9
322	2.000000	1.100342	7.36822e+06	-54739.1	955.82	-29743.3	0.000000	0.000000	7.119419	457.463	NaN	0.000000	0.001624	0.001636	28.0794	96.8396	0.001854	52221.6	-0.568912	176.636	453.68	1.100051	0.099007	0.098716	457.463	52221.6	0.092437	0.267151	1712.38	92309.1
322	2.000000	1.108810	7.36822e+06	-54739.1	955.819	-29743.3	0.000000	0.000000	7.131329	541.152	NaN	0.000000	0.001574	0.001665	28.0806	108.122	0.001821	59383	8.252984	-12.9573	536.242	1.108422	0.107474	0.107086	541.152	59383	0.100640	0.310618	1742.18	97346.7