Folder: unikorn_login/remote_trans/data/nanoindenter/0828-1/data/Data_2025-08-06,11h17m57s (part 124)

File: 2025-07-22_16-23-58_1_265.txt
2025-07-22, 16:23:58, 1
Index	Phase	Displacement	Time	Pos X	Pos Y	Pos Z	Rot A	Rot B	Piezo Z	Force A	Force B	Gripper	Voltage A	Voltage B	Temperature	Amplitude force	Amplitude pos	Stiffness	Phase shift	Phase excitation	Force A raw	Displacement raw	HMax	HMax raw	Real Force	Real Stiffness	Contact Depth	Area	Hardness	Reduced Mod.
[#]	[#]	[um]	[s]	[um]	[um]	[um]	[m°]	[m°]	[um]	[uN]	[uN]	[V]	[V]	[V]	[°C]	[uN]	[um]	[N/m]	[°]	[°]	[uN]	[um]	[um]	[um]	[uN]	[N/m]	[um]	[um^2]	[MPa]	[MPa]
265	1.000000	0.002798	7.36764e+06	-51889.1	955.819	-29750.9	0.000000	0.000000	6.002857	0.024620	NaN	0.000000	0.001565	0.001624	28.0807	0.049040	0.000898	54.6342	111.375	-166.607	0.141686	0.001528	-1.196091	-1.197361	0.024620	54.6342	-1.196429	-9.838537E+15	-2.502387E-18	NaN
265	1.000000	0.046709	7.36764e+06	-51889.1	955.818	-29750.9	0.000000	0.000000	6.046766	-0.021532	NaN	0.000000	0.001591	0.001652	28.0808	0.062420	0.002034	30.6862	-74.3723	-164.532	0.061059	0.045418	-1.152180	-1.153471	-0.021532	30.6862	-1.151654	-2.471684E+15	8.711541E-18	NaN
265	1.000000	0.090707	7.36764e+06	-51889.1	955.818	-29750.9	0.000000	0.000000	6.090767	0.039139	NaN	0.000000	0.001579	0.001666	28.0812	0.110634	0.001933	57.2207	159.797	-164.189	0.092408	0.089439	-1.108182	-1.109450	0.039139	57.2207	-1.108695	-6.558041E+14	-5.968089E-17	NaN
265	1.000000	0.134685	7.36765e+06	-51889.1	955.818	-29750.9	0.000000	0.000000	6.134744	0.030322	NaN	0.000000	0.001566	0.001640	28.0818	0.022158	0.002006	11.0453	-96.6013	-166.245	-0.011286	0.133436	-1.064204	-1.065453	0.030322	11.0453	-1.066263	-1.765973E+14	-1.716996E-16	NaN
265	1.000000	0.178743	7.36765e+06	-51889.1	955.818	-29750.9	0.000000	0.000000	6.178804	0.060683	NaN	0.000000	0.001621	0.001678	28.0818	0.014904	0.002064	7.220957	45.3901	-163.271	-0.016776	0.177415	-1.020145	-1.021474	0.060683	7.220957	-1.026448	-5.148774E+13	-1.178588E-15	NaN
265	1.000000	0.222755	7.36765e+06	-51889.1	955.818	-29750.9	0.000000	0.000000	6.222816	0.074729	NaN	0.000000	0.001621	0.001707	28.0814	0.022244	0.001980	11.2325	-25.911	-163.797	0.019974	0.221447	-0.976134	-0.977442	0.074729	11.2325	-0.981123	-1.263414E+13	-5.914809E-15	NaN
265	1.000000	0.266775	7.36765e+06	-51889.1	955.819	-29750.9	0.000000	0.000000	6.266835	0.044326	NaN	0.000000	0.001655	0.001651	28.0811	0.057997	0.001941	29.8874	21.1533	-163.607	-0.015192	0.265485	-0.932114	-0.933404	0.044326	29.8874	-0.933226	-2.855853E+12	-1.552127E-14	NaN
265	1.000000	0.310779	7.36765e+06	-51889.1	955.818	-29750.9	0.000000	0.000000	6.310838	0.008748	NaN	0.000000	0.001677	0.001716	28.0806	0.063578	0.002143	29.6737	-121.079	-164.845	0.006956	0.309519	-0.888110	-0.889370	0.008748	29.6737	-0.888331	-7.068891E+11	-1.237533E-14	NaN
265	1.000000	0.354838	7.36765e+06	-51889.1	955.819	-29750.9	0.000000	0.000000	6.354899	0.048428	NaN	0.000000	0.001645	0.001690	28.0803	0.178390	0.001987	89.7978	170.554	-162.246	-0.026138	0.353461	-0.844051	-0.845428	0.048428	89.7978	-0.844455	-1.801530E+11	-2.688146E-13	NaN
265	1.000000	0.398874	7.36765e+06	-51889.1	955.819	-29750.9	0.000000	0.000000	6.398931	-0.016840	NaN	0.000000	0.001589	0.001675	28.0807	0.093967	0.001986	47.3239	54.1595	-164.838	0.021578	0.397513	-0.800015	-0.801376	-0.016840	47.3239	-0.799748	-4.461162E+10	3.774692E-13	NaN
265	1.000000	0.442858	7.36765e+06	-51889.1	955.819	-29750.9	0.000000	0.000000	6.442919	0.081037	NaN	0.000000	0.001609	0.001696	28.0818	0.074472	0.001976	37.6887	155.345	-169.185	0.083989	0.441563	-0.756031	-0.757326	0.081037	37.6887	-0.757644	-1.194673E+10	-6.783203E-12	NaN
265	1.000000	0.486877	7.36765e+06	-51889.1	955.819	-29750.9	0.000000	0.000000	6.486935	-0.020987	NaN	0.000000	0.001596	0.001664	28.0819	0.024882	0.001882	13.2193	-152.621	-166.607	0.037279	0.485567	-0.712012	-0.713322	-0.020987	13.2193	-0.710821	-2.749486E+9	7.633234E-12	NaN
265	1.000000	0.530932	7.36765e+06	-51889.1	955.819	-29750.9	0.000000	0.000000	6.530991	0.024025	NaN	0.000000	0.001633	0.001692	28.0818	0.092482	0.001961	47.1597	-91.8081	-165.551	0.072295	0.529555	-0.667957	-0.669333	0.024025	47.1597	-0.668339	-7.222047E+8	-3.326686E-11	NaN
265	1.000000	0.574940	7.36765e+06	-51889.1	955.818	-29750.9	0.000000	0.000000	6.575001	0.072889	NaN	0.000000	0.001632	0.001679	28.0805	0.071831	0.001928	37.256	86.3323	-169.138	0.045339	0.573641	-0.623949	-0.625248	0.072889	37.256	-0.625416	-1.862367E+8	-3.913797E-10	NaN
265	1.000000	0.618933	7.36765e+06	-51889.1	955.818	-29750.9	0.000000	0.000000	6.618992	0.032901	NaN	0.000000	0.001603	0.001686	28.0805	0.089083	0.002004	44.4512	-71.533	-167.315	0.008137	0.617625	-0.579956	-0.581264	0.032901	44.4512	-0.580511	-4.485195E+7	-7.335565E-10	NaN
265	1.000000	0.662919	7.36765e+06	-51889.1	955.818	-29750.9	0.000000	0.000000	6.662980	0.076008	NaN	0.000000	0.001723	0.001670	28.0812	0.058504	0.002040	28.6767	26.354	-163.467	0.090817	0.661669	-0.535970	-0.537220	0.076008	28.6767	-0.537958	-1.156201E+7	-6.573937E-9	NaN
265	1.000000	0.706973	7.36765e+06	-51889.1	955.819	-29750.9	0.000000	0.000000	6.707032	0.005775	NaN	0.000000	0.001669	0.001631	28.082	0.075250	0.002064	36.4623	174.197	-164.381	0.024049	0.705641	-0.491916	-0.493248	0.005775	36.4623	-0.492034	-2.6535e+06	-2.176225E-9	NaN
265	1.000000	0.751019	7.36765e+06	-51889.1	955.819	-29750.9	0.000000	0.000000	6.751075	-0.051146	NaN	0.000000	0.001669	0.001688	28.082	0.057691	0.001914	30.1457	-152.666	-165.211	-0.055175	0.749703	-0.447870	-0.449186	-0.051146	30.1457	-0.446598	-611523	8.363707E-8	NaN
265	1.000000	0.795004	7.36765e+06	-51889.1	955.819	-29750.9	0.000000	0.000000	6.795064	0.022309	NaN	0.000000	0.001695	0.001670	28.0818	0.134022	0.002009	66.7078	133.605	-166.775	-0.011149	0.793720	-0.403884	-0.405169	0.022309	66.7078	-0.404135	-153085	-1.457272E-7	NaN
265	1.000000	0.839024	7.36765e+06	-51889.1	955.818	-29750.9	0.000000	0.000000	6.839080	-0.040187	NaN	0.000000	0.001679	0.001679	28.0808	0.129685	0.002039	63.6167	-35.5566	-165.482	-0.057993	0.837735	-0.359865	-0.361154	-0.040187	63.6167	-0.359392	-34918	1.150909E-6	NaN
265	1.000000	0.883037	7.36765e+06	-51889.1	955.817	-29750.9	0.000000	0.000000	6.883096	0.022552	NaN	0.000000	0.001663	0.001651	28.0808	0.089698	0.002000	44.8469	113.786	-161.909	0.005178	0.881741	-0.315852	-0.317148	0.022552	44.8469	-0.316229	-8186.17	-2.754906E-6	NaN
265	1.000000	0.927079	7.36765e+06	-51889.1	955.819	-29750.9	0.000000	0.000000	6.927141	0.101894	NaN	0.000000	0.001606	0.001663	28.0806	0.038608	0.002115	18.2561	-133.968	-165.537	0.100503	0.925737	-0.271810	-0.273152	0.101894	18.2561	-0.275996	-2053.42	-4.962173E-5	NaN
265	1.000000	0.971053	7.36765e+06	-51889.1	955.818	-29750.9	0.000000	0.000000	6.971113	0.051950	NaN	0.000000	0.001605	0.001692	28.0819	0.095845	0.002051	46.7218	-51.6855	-161.039	0.055531	0.969761	-0.227836	-0.229128	0.051950	46.7218	-0.228670	-381.508	-0.000136	NaN
265	1.000000	1.015101	7.36765e+06	-51889.1	955.819	-29750.9	0.000000	0.000000	7.015159	0.010667	NaN	0.000000	0.001592	0.001689	28.0825	0.080162	0.001952	41.0656	156.908	-161.633	-0.033350	1.013750	-0.183788	-0.185139	0.010667	41.0656	-0.183983	-71.2813	-0.000150	NaN
265	1.000000	1.059108	7.36765e+06	-51889.1	955.818	-29750.9	0.000000	0.000000	7.059169	0.055366	NaN	0.000000	0.001563	0.001707	28.0826	0.125141	0.001953	64.0898	-52.9195	-166.704	-0.025197	1.057831	-0.139781	-0.141058	0.055366	64.0898	-0.140429	-12.0507	-0.004594	NaN
265	1.000000	1.103168	7.36765e+06	-51889.1	955.819	-29750.9	0.000000	0.000000	7.103226	0.000851	NaN	0.000000	0.001618	0.001714	28.0807	0.020407	0.002054	9.934422	-130.599	-165.574	0.029612	1.101823	-0.095721	-0.097066	0.000851	9.934422	-0.095785	-1.469837	-0.000579	NaN
265	1.000000	1.147178	7.36765e+06	-51889.1	955.818	-29750.9	0.000000	0.000000	7.147235	-0.029842	NaN	0.000000	0.001596	0.001691	28.0808	0.061125	0.002015	30.3342	-44.2364	-162.882	-0.017787	1.145834	-0.051711	-0.053055	-0.029842	30.3342	-0.050973	-0.097639	0.305635	NaN
265	1.000000	1.191152	7.36765e+06	-51889.1	955.817	-29750.9	0.000000	0.000000	7.191209	-0.021832	NaN	0.000000	0.001683	0.001658	28.0807	0.064249	0.001929	33.3022	68.0822	-164.563	-0.072585	1.189826	-0.007737	-0.009063	-0.021832	33.3022	-0.007246	-0.004787	4.560915	NaN
265	2.000000	1.215613	7.36765e+06	-51889.1	955.818	-29750.9	0.000000	0.000000	7.216579	22.0723	NaN	0.000000	0.001655	0.001673	28.0818	16.5089	0.001721	9591.48	9.533472	-177.025	22.04	1.215268	0.016724	0.016379	22.0723	9591.48	0.014998	0.015283	1444.28	70886
265	2.000000	1.226575	7.36765e+06	-51889.1	955.817	-29750.9	0.000000	0.000000	7.228696	50.1652	NaN	0.000000	0.001676	0.001653	28.0817	29.1929	0.001875	15568.4	7.973314	-179.221	50.0749	1.226215	0.027686	0.027326	50.1652	15568.4	0.025269	0.031507	1592.18	80133.3
265	2.000000	1.237577	7.36765e+06	-51889.1	955.818	-29750.9	0.000000	0.000000	7.240923	79.9596	NaN	0.000000	0.001713	0.001662	28.0816	38.948	0.001748	22281	1.736558	-178.167	79.5884	1.237232	0.038688	0.038343	79.9596	22281	0.035996	0.054091	1478.24	87527.8
265	2.000000	1.248498	7.36765e+06	-51889.1	955.818	-29750.9	0.000000	0.000000	7.253564	121.762	NaN	0.000000	0.001660	0.001663	28.0813	48.5148	0.001745	27798.5	2.704159	179.248	119.129	1.248157	0.049609	0.049268	121.762	27798.5	0.046324	0.081390	1496.02	89024.4
265	2.000000	1.259473	7.36765e+06	-51889.1	955.818	-29750.9	0.000000	0.000000	7.266763	175.853	NaN	0.000000	0.001729	0.001674	28.0807	59.4473	0.001790	33203.1	2.655425	178.232	172.353	1.259220	0.060584	0.060331	175.853	33203.1	0.056612	0.113940	1543.38	89869.8
265	2.000000	1.270539	7.36765e+06	-51889.1	955.818	-29750.9	0.000000	0.000000	7.280504	240.877	NaN	0.000000	0.001674	0.001670	28.0805	71.9112	0.001869	38477	4.022533	175.697	242.834	1.270222	0.071650	0.071333	240.877	38477	0.066955	0.151922	1585.53	90191.1
265	2.000000	1.281453	7.36765e+06	-51889.1	955.818	-29750.9	0.000000	0.000000	7.294320	311.475	NaN	0.000000	0.001701	0.001687	28.0815	81.6636	0.001907	42825.7	5.419923	173.57	309.291	1.281198	0.082564	0.082309	311.475	42825.7	0.077109	0.194202	1603.87	88787.2
265	2.000000	1.292597	7.36765e+06	-51889.1	955.818	-29750.9	0.000000	0.000000	7.308367	382.025	NaN	0.000000	0.001674	0.001673	28.0822	90.3026	0.001797	50256.7	8.024256	169.493	389.97	1.292223	0.093708	0.093334	382.025	50256.7	0.088007	0.244955	1559.57	92773.4
265	2.000000	1.303455	7.36765e+06	-51889.1	955.818	-29750.9	0.000000	0.000000	7.323128	476.943	NaN	0.000000	0.001723	0.001659	28.0822	102.72	0.001910	53776.6	2.501181	174.773	474.792	1.303108	0.104566	0.104219	476.943	53776.6	0.097914	0.295836	1612.19	90331.8
265	2.000000	1.307454	7.36765e+06	-51889.1	955.818	-29750.9	0.000000	0.000000	7.328353	506.743	NaN	0.000000	0.001671	0.001691	28.0818	107.629	0.001681	64015.2	5.554212	170.188	505.755	1.307057	0.108565	0.108168	506.743	64015.2	0.102628	0.321619	1575.6	103130

File: 2025-07-22_16-23-58_1_266.txt
2025-07-22, 16:23:58, 1
Index	Phase	Displacement	Time	Pos X	Pos Y	Pos Z	Rot A	Rot B	Piezo Z	Force A	Force B	Gripper	Voltage A	Voltage B	Temperature	Amplitude force	Amplitude pos	Stiffness	Phase shift	Phase excitation	Force A raw	Displacement raw	HMax	HMax raw	Real Force	Real Stiffness	Contact Depth	Area	Hardness	Reduced Mod.
[#]	[#]	[um]	[s]	[um]	[um]	[um]	[m°]	[m°]	[um]	[uN]	[uN]	[V]	[V]	[V]	[°C]	[uN]	[um]	[N/m]	[°]	[°]	[uN]	[um]	[um]	[um]	[uN]	[N/m]	[um]	[um^2]	[MPa]	[MPa]
266	1.000000	0.002320	7.36765e+06	-51939.1	955.818	-29750.9	0.000000	0.000000	6.002780	0.004456	NaN	0.000000	0.001692	0.001709	28.0786	0.072854	0.001031	70.6516	148.673	-165.926	-0.035640	0.001133	-1.127433	-1.128621	0.004456	70.6516	-1.127481	-1.171731E+15	-3.802922E-18	NaN
266	1.000000	0.044326	7.36765e+06	-51939.1	955.818	-29750.9	0.000000	0.000000	6.044787	0.018731	NaN	0.000000	0.001682	0.001680	28.0798	0.090378	0.001875	48.2122	80.4777	14.8155	0.051682	0.042931	-1.085427	-1.086823	0.018731	48.2122	-1.085719	-3.223456E+14	-5.810857E-17	NaN
266	1.000000	0.086322	7.36766e+06	-51939.1	955.819	-29750.9	0.000000	0.000000	6.086780	-0.042559	NaN	0.000000	0.001713	0.001700	28.079	0.071350	0.001858	38.3969	37.585	-164.623	-0.006068	0.084996	-1.043432	-1.044758	-0.042559	38.3969	-1.042600	-8.490470E+13	5.012612E-16	NaN
266	1.000000	0.128351	7.36766e+06	-51939.1	955.818	-29750.9	0.000000	0.000000	6.128810	-0.011851	NaN	0.000000	0.001692	0.001661	28.0784	0.024795	0.001992	12.4466	158.021	15.1582	0.035450	0.126920	-1.001403	-1.002833	-0.011851	12.4466	-1.000689	-2.317606E+13	5.113653E-16	NaN
266	1.000000	0.170349	7.36766e+06	-51939.1	955.819	-29750.9	0.000000	0.000000	6.170808	-0.019585	NaN	0.000000	0.001706	0.001685	28.0773	0.062749	0.002026	30.9791	65.9579	-166.115	-0.010074	0.169042	-0.959404	-0.960712	-0.019585	30.9791	-0.958930	-6.345216E+12	3.086500E-15	NaN
266	1.000000	0.212351	7.36766e+06	-51939.1	955.818	-29750.9	0.000000	0.000000	6.212811	0.005655	NaN	0.000000	0.001664	0.001701	28.0773	0.114388	0.002077	55.062	97.4179	16.5832	-0.058306	0.211020	-0.917403	-0.918733	0.005655	55.062	-0.917480	-1.750575E+12	-3.230533E-15	NaN
266	1.000000	0.254364	7.36766e+06	-51939.1	955.819	-29750.9	0.000000	0.000000	6.254822	-0.029076	NaN	0.000000	0.001746	0.001711	28.0775	0.045912	0.001983	23.1556	-123.897	-161.263	-0.107775	0.253106	-0.875390	-0.876648	-0.029076	23.1556	-0.874448	-4.587968E+11	6.337491E-14	NaN
266	1.000000	0.296398	7.36766e+06	-51939.1	955.819	-29750.9	0.000000	0.000000	6.296858	-0.011408	NaN	0.000000	0.001722	0.001691	28.0788	0.033438	0.002036	16.4198	146.537	9.576848	-0.053010	0.295044	-0.833355	-0.834710	-0.011408	16.4198	-0.832834	-1.253706E+11	9.099693E-14	NaN
266	1.000000	0.338431	7.36766e+06	-51939.1	955.819	-29750.9	0.000000	0.000000	6.338893	0.057332	NaN	0.000000	0.001766	0.001649	28.0786	0.132184	0.001995	66.2549	91.6182	-161.85	-0.025732	0.337054	-0.791323	-0.792700	0.057332	66.2549	-0.791972	-3.498324E+10	-1.638841E-12	NaN
266	1.000000	0.380429	7.36766e+06	-51939.1	955.818	-29750.9	0.000000	0.000000	6.380891	0.045035	NaN	0.000000	0.001680	0.001686	28.0786	0.074346	0.001975	37.6499	-151.643	17.1377	0.059005	0.379087	-0.749324	-0.750667	0.045035	37.6499	-0.750221	-9.467441E+9	-4.756834E-12	NaN
266	1.000000	0.422446	7.36766e+06	-51939.1	955.818	-29750.9	0.000000	0.000000	6.422908	0.040456	NaN	0.000000	0.001725	0.001697	28.0787	0.137957	0.001989	69.3446	-96.7762	-165.969	0.033966	0.421119	-0.707307	-0.708634	0.040456	69.3446	-0.707745	-2.496143E+9	-1.620746E-11	NaN
266	1.000000	0.464476	7.36766e+06	-51939.1	955.819	-29750.9	0.000000	0.000000	6.464936	0.004153	NaN	0.000000	0.001714	0.001706	28.0775	0.069356	0.001966	35.2864	-68.4672	15.7068	0.023732	0.463094	-0.665277	-0.666660	0.004153	35.2864	-0.665366	-6.575831E+8	-6.315980E-12	NaN
266	1.000000	0.506476	7.36766e+06	-51939.1	955.819	-29750.9	0.000000	0.000000	6.506933	-0.058043	NaN	0.000000	0.001764	0.001652	28.0775	0.041885	0.002124	19.7229	-162.499	-164.022	-0.040512	0.505184	-0.623278	-0.624570	-0.058043	19.7229	-0.621071	-1.623120E+8	3.576019E-10	NaN
266	1.000000	0.548484	7.36766e+06	-51939.1	955.819	-29750.9	0.000000	0.000000	6.548945	0.033150	NaN	0.000000	0.001701	0.001689	28.0774	0.025756	0.001862	13.8318	120.438	14.0977	0.037501	0.547161	-0.581269	-0.582593	0.033150	13.8318	-0.583067	-4.864596E+7	-6.814575E-10	NaN
266	1.000000	0.590509	7.36766e+06	-51939.1	955.817	-29750.9	0.000000	0.000000	6.590967	-0.051522	NaN	0.000000	0.001690	0.001671	28.0788	0.031145	0.001975	15.766	44.3901	-165.543	0.001960	0.589235	-0.539245	-0.540518	-0.051522	15.766	-0.536794	-1.113986E+7	4.625033E-9	NaN
266	1.000000	0.632537	7.36766e+06	-51939.1	955.818	-29750.9	0.000000	0.000000	6.632997	-0.005042	NaN	0.000000	0.001686	0.001673	28.0798	0.108106	0.001937	55.8158	-1.757166	15.4067	-0.060814	0.631221	-0.497216	-0.498532	-0.005042	55.8158	-0.497149	-3.12772e+06	1.612107E-9	NaN
266	1.000000	0.674551	7.36766e+06	-51939.1	955.818	-29750.9	0.000000	0.000000	6.675011	0.017205	NaN	0.000000	0.001644	0.001706	28.0786	0.158329	0.001998	79.2371	-52.145	-166.483	0.026356	0.673241	-0.455203	-0.456513	0.017205	79.2371	-0.455365	-812565	-2.117422E-8	NaN
266	1.000000	0.716560	7.36766e+06	-51939.1	955.818	-29750.9	0.000000	0.000000	6.717017	-0.087941	NaN	0.000000	0.001656	0.001716	28.0773	0.057401	0.001936	29.6484	-142.63	14.9127	-0.016849	0.715266	-0.413193	-0.414488	-0.087941	29.6484	-0.410969	-191502	4.592144E-7	NaN
266	1.000000	0.758596	7.36766e+06	-51939.1	955.818	-29750.9	0.000000	0.000000	6.759054	-0.040284	NaN	0.000000	0.001566	0.001666	28.0773	0.027630	0.001963	14.0782	-127.806	-165.652	-0.026100	0.757305	-0.371158	-0.372448	-0.040284	14.0782	-0.369012	-48072.1	8.379925E-7	NaN
266	1.000000	0.800630	7.36766e+06	-51939.1	955.819	-29750.9	0.000000	0.000000	6.801090	-0.007898	NaN	0.000000	0.001603	0.001648	28.0775	0.071222	0.002001	35.599	142.342	13.6261	0.008514	0.799212	-0.329124	-0.330542	-0.007898	35.599	-0.328957	-12594.3	6.271021E-7	NaN
266	1.000000	0.842621	7.36766e+06	-51939.1	955.819	-29750.9	0.000000	0.000000	6.843082	0.044023	NaN	0.000000	0.001608	0.001688	28.0785	0.010440	0.001996	5.229631	-82.4651	-169.997	-0.003906	0.841344	-0.287133	-0.288410	0.044023	5.229631	-0.293447	-3757.32	-1.171667E-5	NaN
266	1.000000	0.884629	7.36766e+06	-51939.1	955.819	-29750.9	0.000000	0.000000	6.885089	0.004440	NaN	0.000000	0.001579	0.001691	28.0789	0.110333	0.001962	56.2342	-103.379	14.026	-0.062784	0.883257	-0.245125	-0.246496	0.004440	56.2342	-0.245184	-692.325	-6.413797E-6	NaN
266	1.000000	0.926668	7.36766e+06	-51939.1	955.819	-29750.9	0.000000	0.000000	6.927125	-0.050018	NaN	0.000000	0.001597	0.001690	28.0793	0.089636	0.001934	46.3474	14.0554	-169.95	0.012543	0.925310	-0.203086	-0.204443	-0.050018	46.3474	-0.202276	-143.564	0.000348	NaN
266	1.000000	0.968662	7.36766e+06	-51939.1	955.819	-29750.9	0.000000	0.000000	6.969121	-0.023027	NaN	0.000000	0.001595	0.001638	28.0792	0.137094	0.002131	64.3339	-65.0703	11.3726	-0.082372	0.967308	-0.161091	-0.162445	-0.023027	64.3339	-0.160823	-28.3525	0.000812	NaN
266	1.000000	1.010660	7.36766e+06	-51939.1	955.818	-29750.9	0.000000	0.000000	7.011120	-0.007247	NaN	0.000000	0.001617	0.001667	28.078	0.154625	0.001895	81.6048	40.3564	-166.483	-0.022445	1.009335	-0.119093	-0.120419	-0.007247	81.6048	-0.119027	-4.617445	0.001569	NaN
266	1.000000	1.052676	7.36766e+06	-51939.1	955.819	-29750.9	0.000000	0.000000	7.053136	0.000309	NaN	0.000000	0.001632	0.001717	28.0777	0.057670	0.001959	29.4408	-82.2083	13.0439	-0.019432	1.051360	-0.077077	-0.078394	0.000309	29.4408	-0.077085	-0.522489	-0.000592	NaN
266	1.000000	1.094722	7.36766e+06	-51939.1	955.819	-29750.9	0.000000	0.000000	7.095181	-0.026700	NaN	0.000000	0.001583	0.001661	28.0778	0.027789	0.001961	14.168	-82.2843	-165.446	0.005923	1.093534	-0.035031	-0.036219	-0.026700	14.168	-0.033618	-0.029176	0.915125	NaN
266	1.000000	1.136703	7.36766e+06	-51939.1	955.819	-29750.9	0.000000	0.000000	7.137433	6.572843	NaN	0.000000	0.001652	0.001671	28.0791	6.848351	0.001740	3935.85	16.9038	3.828525	5.494466	1.135315	0.006949	0.005561	6.572843	3935.85	0.005696	0.004778	1375.66	52022.4
266	2.000000	1.149167	7.36766e+06	-51939.1	955.818	-29750.9	0.000000	0.000000	7.150704	26.1969	NaN	0.000000	0.001604	0.001687	28.0799	20.3277	0.001822	11155.2	5.531223	-178.131	24.2468	1.148925	0.019414	0.019172	26.1969	11155.2	0.017652	0.018986	1379.77	73965.4
266	2.000000	1.159693	7.36766e+06	-51939.1	955.82	-29750.9	0.000000	0.000000	7.162436	55.5111	NaN	0.000000	0.001568	0.001691	28.0797	30.878	0.001684	18334.7	3.521634	-0.259550	53.7357	1.159312	0.029939	0.029559	55.5111	18334.7	0.027668	0.036050	1539.85	88226.1
266	2.000000	1.170110	7.36766e+06	-51939.1	955.819	-29750.9	0.000000	0.000000	7.174164	87.3853	NaN	0.000000	0.001597	0.001742	28.0781	41.8626	0.001804	23202.5	5.410076	175.046	84.544	1.169850	0.040357	0.040097	87.3853	23202.5	0.037532	0.057806	1511.7	88170
266	2.000000	1.180612	7.36766e+06	-51939.1	955.821	-29750.9	0.000000	0.000000	7.186563	133.518	NaN	0.000000	0.001653	0.001718	28.078	50.0082	0.001777	28146.2	5.288510	-5.492346	130.133	1.180273	0.050859	0.050520	133.518	28146.2	0.047301	0.084253	1584.72	88593.2
266	2.000000	1.191107	7.36766e+06	-51939.1	955.82	-29750.9	0.000000	0.000000	7.199195	185.484	NaN	0.000000	0.001590	0.001728	28.0779	59.5418	0.001688	35279.7	7.425261	171.889	183.428	1.190654	0.061354	0.060900	185.484	35279.7	0.057411	0.116687	1589.58	94359.7
266	2.000000	1.201691	7.36766e+06	-51939.1	955.82	-29750.9	0.000000	0.000000	7.211835	235.48	NaN	0.000000	0.001580	0.001701	28.0793	71.3764	0.001830	39008	2.225916	-5.164177	237.046	1.201492	0.071937	0.071738	235.48	39008	0.067409	0.153709	1531.98	90902.7
266	2.000000	1.212088	7.36766e+06	-51939.1	955.819	-29750.9	0.000000	0.000000	7.225220	308.141	NaN	0.000000	0.001619	0.001680	28.0795	81.0222	0.001851	43780.5	3.901316	172.609	305.957	1.211756	0.082334	0.082003	308.141	43780.5	0.077055	0.193965	1588.64	90822.2
266	2.000000	1.222520	7.36766e+06	-51939.1	955.819	-29750.9	0.000000	0.000000	7.238619	380.281	NaN	0.000000	0.001542	0.001690	28.079	89.8099	0.001757	51124.2	4.617825	-9.056642	372.462	1.222213	0.092766	0.092459	380.281	51124.2	0.087187	0.240945	1578.29	95156.9
266	2.000000	1.233021	7.36766e+06	-51939.1	955.819	-29750.9	0.000000	0.000000	7.252868	471.4	NaN	0.000000	0.001589	0.001687	28.0788	100.563	0.001775	56641.8	3.966075	171.043	467.985	1.232628	0.103267	0.102875	471.4	56641.8	0.097025	0.291089	1619.44	95917.4
266	2.000000	1.238009	7.36766e+06	-51939.1	955.82	-29750.9	0.000000	0.000000	7.259256	505.454	NaN	0.000000	0.001595	0.001766	28.0775	106.45	0.001846	57672.6	2.009123	172.948	501.236	1.237801	0.108256	0.108047	505.454	57672.6	0.101683	0.316365	1597.69	93680.3