Folder: unikorn_login/remote_trans/data/nanoindenter/0828-1/data/Data_2025-08-06,11h17m57s (part 111)

File: 2025-07-22_16-23-58_1_239.txt
2025-07-22, 16:23:58, 1
Index	Phase	Displacement	Time	Pos X	Pos Y	Pos Z	Rot A	Rot B	Piezo Z	Force A	Force B	Gripper	Voltage A	Voltage B	Temperature	Amplitude force	Amplitude pos	Stiffness	Phase shift	Phase excitation	Force A raw	Displacement raw	HMax	HMax raw	Real Force	Real Stiffness	Contact Depth	Area	Hardness	Reduced Mod.
[#]	[#]	[um]	[s]	[um]	[um]	[um]	[m°]	[m°]	[um]	[uN]	[uN]	[V]	[V]	[V]	[°C]	[uN]	[um]	[N/m]	[°]	[°]	[uN]	[um]	[um]	[um]	[uN]	[N/m]	[um]	[um^2]	[MPa]	[MPa]
239	1.000000	0.002676	7.36738e+06	-50589.1	955.819	-29755.6	0.000000	0.000000	6.002823	-0.015945	NaN	0.000000	0.001558	0.001606	28.0795	0.078060	0.000986	79.1455	-77.5971	-156.248	0.021191	0.001357	-1.039282	-1.040601	-0.015945	79.1455	-1.039131	-7.625647E+13	2.090954E-16	NaN
239	1.000000	0.042591	7.36738e+06	-50589.1	955.819	-29755.6	0.000000	0.000000	6.042736	-0.051360	NaN	0.000000	0.001575	0.001617	28.0801	0.078434	0.001842	42.5765	-74.5198	-168.447	-0.054041	0.041280	-0.999367	-1.000678	-0.051360	42.5765	-0.998462	-2.163034E+13	2.374450E-15	NaN
239	1.000000	0.082627	7.36738e+06	-50589.1	955.818	-29755.6	0.000000	0.000000	6.082773	-0.025605	NaN	0.000000	0.001541	0.001633	28.0782	0.053073	0.001985	26.7409	11.5222	-167.48	-0.060655	0.081323	-0.959331	-0.960635	-0.025605	26.7409	-0.958613	-6.283037E+12	4.075213E-15	NaN
239	1.000000	0.122629	7.36738e+06	-50589.1	955.817	-29755.6	0.000000	0.000000	6.122773	-0.067718	NaN	0.000000	0.001543	0.001648	28.0783	0.056438	0.002016	28.0014	-131.41	-162.889	-0.094963	0.121340	-0.919329	-0.920617	-0.067718	28.0014	-0.917515	-1.752503E+12	3.864053E-14	NaN
239	1.000000	0.162652	7.36738e+06	-50589.1	955.817	-29755.6	0.000000	0.000000	6.162797	-0.046316	NaN	0.000000	0.001566	0.001642	28.0779	0.048962	0.001912	25.6136	-137.567	-165.866	-0.075543	0.161329	-0.879306	-0.880629	-0.046316	25.6136	-0.877950	-5.116567E+11	9.052143E-14	NaN
239	1.000000	0.202646	7.36738e+06	-50589.1	955.817	-29755.6	0.000000	0.000000	6.202793	-0.007330	NaN	0.000000	0.001557	0.001649	28.0787	0.058933	0.002091	28.186	-174.934	-163.021	-0.017089	0.201344	-0.839312	-0.840613	-0.007330	28.186	-0.839117	-1.525206E+11	4.805809E-14	NaN
239	1.000000	0.242684	7.36738e+06	-50589.1	955.817	-29755.6	0.000000	0.000000	6.242830	-0.043434	NaN	0.000000	0.001556	0.001683	28.0791	0.081807	0.001987	41.1643	169.799	-167.746	0.026929	0.241445	-0.799274	-0.800513	-0.043434	41.1643	-0.798482	-4.288061E+10	1.012895E-12	NaN
239	1.000000	0.282700	7.36738e+06	-50589.1	955.818	-29755.6	0.000000	0.000000	6.282848	0.014970	NaN	0.000000	0.001623	0.001638	28.0792	0.050166	0.001961	25.5844	174.198	-164.357	0.011504	0.281396	-0.759258	-0.760562	0.014970	25.5844	-0.759697	-1.274033E+10	-1.175006E-12	NaN
239	1.000000	0.322755	7.36739e+06	-50589.1	955.819	-29755.6	0.000000	0.000000	6.322902	-0.006030	NaN	0.000000	0.001627	0.001644	28.0793	0.048591	0.002119	22.9258	-108.609	-163.345	-0.068233	0.321362	-0.719203	-0.720595	-0.006030	22.9258	-0.719006	-3.555581E+9	1.695950E-12	NaN
239	1.000000	0.362731	7.36739e+06	-50589.1	955.818	-29755.6	0.000000	0.000000	6.362880	0.024012	NaN	0.000000	0.001585	0.001613	28.0782	0.094779	0.002016	47.0087	5.755754	-168.814	0.053117	0.361458	-0.679227	-0.680500	0.024012	47.0087	-0.679610	-1.030072E+9	-2.331082E-11	NaN
239	1.000000	0.402747	7.36739e+06	-50589.1	955.818	-29755.6	0.000000	0.000000	6.402893	-0.026066	NaN	0.000000	0.001534	0.001617	28.078	0.081176	0.001847	43.9548	7.035923	-164.172	-0.063166	0.401443	-0.639211	-0.640515	-0.026066	43.9548	-0.638766	-2.840300E+8	9.177209E-11	NaN
239	1.000000	0.442758	7.36739e+06	-50589.1	955.818	-29755.6	0.000000	0.000000	6.442905	-0.009974	NaN	0.000000	0.001564	0.001664	28.0782	0.050498	0.001960	25.7656	-63.648	-167.004	0.043796	0.441428	-0.599200	-0.600530	-0.009974	25.7656	-0.598909	-8.043422E+7	1.240008E-10	NaN
239	1.000000	0.482777	7.36739e+06	-50589.1	955.818	-29755.6	0.000000	0.000000	6.482921	-0.075415	NaN	0.000000	0.001565	0.001649	28.0793	0.044166	0.002085	21.1874	-77.4213	-162.992	-0.044975	0.481473	-0.559181	-0.560484	-0.075415	21.1874	-0.556511	-2.089801E+7	3.608732E-9	NaN
239	1.000000	0.522790	7.36739e+06	-50589.1	955.819	-29755.6	0.000000	0.000000	6.522934	-0.069828	NaN	0.000000	0.001544	0.001625	28.0795	0.081492	0.001938	42.0467	-33.5849	-162.251	-0.032493	0.521520	-0.519168	-0.520438	-0.069828	42.0467	-0.517922	-6.09112e+06	1.146382E-8	NaN
239	1.000000	0.562794	7.36739e+06	-50589.1	955.818	-29755.6	0.000000	0.000000	6.562938	-0.066119	NaN	0.000000	0.001613	0.001652	28.0795	0.034744	0.001874	18.5395	-162.917	-168.116	-0.073081	0.561470	-0.479164	-0.480488	-0.066119	18.5395	-0.476489	-1.6083e+06	4.111116E-8	NaN
239	1.000000	0.602820	7.36739e+06	-50589.1	955.818	-29755.6	0.000000	0.000000	6.602967	-0.008733	NaN	0.000000	0.001596	0.001678	28.0787	0.031552	0.002020	15.6224	-56.6294	-162.777	0.011772	0.601482	-0.439137	-0.440475	-0.008733	15.6224	-0.438718	-473446	1.844470E-8	NaN
239	1.000000	0.642842	7.36739e+06	-50589.1	955.818	-29755.6	0.000000	0.000000	6.642988	-0.038669	NaN	0.000000	0.001585	0.001557	28.0782	0.036117	0.001974	18.301	-2.427948	-162.433	-0.050929	0.641533	-0.399116	-0.400425	-0.038669	18.301	-0.397531	-123245	3.137548E-7	NaN
239	1.000000	0.682862	7.36739e+06	-50589.1	955.819	-29755.6	0.000000	0.000000	6.683007	-0.043922	NaN	0.000000	0.001605	0.001558	28.0783	0.089578	0.002038	43.9532	72.7702	-163.476	-0.080062	0.681558	-0.359096	-0.360400	-0.043922	43.9532	-0.358347	-33724	1.302396E-6	NaN
239	1.000000	0.722867	7.36739e+06	-50589.1	955.819	-29755.6	0.000000	0.000000	6.723013	-0.017819	NaN	0.000000	0.001609	0.001603	28.0784	0.072099	0.001979	36.4269	94.6493	-164.065	-0.072294	0.721632	-0.319091	-0.320326	-0.017819	36.4269	-0.318724	-8909.51	1.999971E-6	NaN
239	1.000000	0.762898	7.36739e+06	-50589.1	955.819	-29755.6	0.000000	0.000000	6.763045	-0.019400	NaN	0.000000	0.001611	0.001566	28.0796	0.034060	0.001995	17.0769	-166.069	-165.864	-0.037808	0.761630	-0.279059	-0.280328	-0.019400	17.0769	-0.278207	-2217.73	8.747644E-6	NaN
239	1.000000	0.802911	7.36739e+06	-50589.1	955.818	-29755.6	0.000000	0.000000	6.803056	-0.045829	NaN	0.000000	0.001562	0.001554	28.0797	0.047616	0.002096	22.7137	-17.1598	-165.477	-0.022227	0.801589	-0.239047	-0.240369	-0.045829	22.7137	-0.237534	-525.998	8.712679E-5	NaN
239	1.000000	0.842940	7.36739e+06	-50589.1	955.818	-29755.6	0.000000	0.000000	6.843087	-0.018547	NaN	0.000000	0.001588	0.001615	28.0796	0.012073	0.001995	6.050675	97.4874	-165.924	-0.036869	0.841593	-0.199018	-0.200365	-0.018547	6.050675	-0.196719	-116.315	0.000159	NaN
239	1.000000	0.882947	7.36739e+06	-50589.1	955.819	-29755.6	0.000000	0.000000	6.883095	0.017201	NaN	0.000000	0.001565	0.001581	28.0785	0.063722	0.002078	30.6682	-137.437	-165.303	0.048755	0.881683	-0.159011	-0.160275	0.017201	30.6682	-0.159431	-26.784	-0.000642	NaN
239	1.000000	0.922969	7.36739e+06	-50589.1	955.818	-29755.6	0.000000	0.000000	6.923113	-0.085934	NaN	0.000000	0.001637	0.001587	28.0782	0.038605	0.001965	19.6498	117.484	-166.67	-0.074615	0.921690	-0.118989	-0.120268	-0.085934	19.6498	-0.115709	-3.950941	0.021750	NaN
239	1.000000	0.962969	7.36739e+06	-50589.1	955.818	-29755.6	0.000000	0.000000	6.963112	-0.083857	NaN	0.000000	0.001567	0.001550	28.0783	0.037386	0.002083	17.9494	-168.147	-165.388	-0.111232	0.961708	-0.078989	-0.080250	-0.083857	17.9494	-0.075485	-0.475397	0.176393	NaN
239	1.000000	1.003006	7.36739e+06	-50589.1	955.818	-29755.6	0.000000	0.000000	7.003152	-0.028769	NaN	0.000000	0.001561	0.001511	28.0784	0.036969	0.002002	18.4683	-162.454	-161.942	0.042143	1.001704	-0.038952	-0.040254	-0.028769	18.4683	-0.037783	-0.038757	0.742285	NaN
239	1.000000	1.042993	7.36739e+06	-50589.1	955.82	-29755.6	0.000000	0.000000	7.043152	0.270729	NaN	0.000000	0.001586	0.001496	28.0799	0.555464	0.002029	273.822	9.156142	-164.82	0.000305	1.041704	0.001035	-0.000254	0.270729	273.822	0.000294	0.000221	1226.7	16840.1
239	2.000000	1.060500	7.36739e+06	-50589.1	955.819	-29755.6	0.000000	0.000000	7.061401	18.3226	NaN	0.000000	0.001583	0.001528	28.0796	16.8146	0.001836	9159.79	7.090941	-173.155	19.0361	1.060209	0.018542	0.018251	18.3226	9159.79	0.017042	0.018105	1011.99	62194.9
239	2.000000	1.070445	7.36739e+06	-50589.1	955.82	-29755.6	0.000000	0.000000	7.072332	42.3164	NaN	0.000000	0.001588	0.001528	28.0796	27.4044	0.001731	15832.6	4.136898	-177.168	42.2906	1.070170	0.028487	0.028212	42.3164	15832.6	0.026483	0.033768	1253.15	78717.4
239	2.000000	1.080458	7.36739e+06	-50589.1	955.819	-29755.6	0.000000	0.000000	7.083381	67.4929	NaN	0.000000	0.001550	0.001534	28.0782	37.1558	0.001930	19247.6	5.898479	-179.65	68.0348	1.080119	0.038500	0.038162	67.4929	19247.6	0.035870	0.053792	1254.7	75821.3
239	2.000000	1.090405	7.36739e+06	-50589.1	955.819	-29755.6	0.000000	0.000000	7.094972	107.482	NaN	0.000000	0.001589	0.001543	28.078	45.7762	0.001783	25669.4	4.773632	178.107	106.092	1.090086	0.048447	0.048128	107.482	25669.4	0.045307	0.078461	1369.88	83726.3
239	2.000000	1.100482	7.36739e+06	-50589.1	955.82	-29755.6	0.000000	0.000000	7.106813	150.356	NaN	0.000000	0.001554	0.001552	28.0778	57.3051	0.001902	30136	6.934264	174.029	152.943	1.100142	0.058524	0.058184	150.356	30136	0.054783	0.107767	1395.2	83872
239	2.000000	1.110360	7.36739e+06	-50589.1	955.819	-29755.6	0.000000	0.000000	7.118736	200.092	NaN	0.000000	0.001580	0.001576	28.0795	65.5108	0.001781	36791.8	6.155188	173.113	197.345	1.110081	0.068402	0.068124	200.092	36791.8	0.064324	0.141767	1411.41	89276.4
239	2.000000	1.120483	7.36739e+06	-50589.1	955.82	-29755.6	0.000000	0.000000	7.130538	240.927	NaN	0.000000	0.001550	0.001524	28.0799	73.5263	0.001874	39235.8	0.929776	177.842	242.32	1.120265	0.078525	0.078307	240.927	39235.8	0.073920	0.180398	1335.54	84399.6
239	2.000000	1.130322	7.36739e+06	-50589.1	955.82	-29755.6	0.000000	0.000000	7.143466	316.053	NaN	0.000000	0.001563	0.001523	28.0797	82.8721	0.001785	46423.2	1.700775	176.201	313.746	1.130144	0.088365	0.088186	316.053	46423.2	0.083258	0.222164	1422.61	89985.2
239	2.000000	1.140459	7.36739e+06	-50589.1	955.82	-29755.6	0.000000	0.000000	7.156644	390.013	NaN	0.000000	0.001663	0.001541	28.0793	91.1818	0.001702	53575	3.801259	173.505	392.595	1.139990	0.098501	0.098032	390.013	53575	0.093041	0.270249	1443.16	94157.2
239	2.000000	1.150359	7.36739e+06	-50589.1	955.82	-29755.6	0.000000	0.000000	7.169828	469.867	NaN	0.000000	0.001643	0.001508	28.0781	101.235	0.001859	54461.5	4.347726	172.576	466.984	1.149954	0.108401	0.107997	469.867	54461.5	0.101930	0.317736	1478.8	88273.4
239	2.000000	1.151338	7.36739e+06	-50589.1	955.82	-29755.6	0.000000	0.000000	7.170692	467.046	NaN	0.000000	0.001600	0.001489	28.0784	102.127	0.001856	55012.6	5.267389	171.075	464.365	1.151104	0.109381	0.109146	467.046	55012.6	0.103013	0.323768	1442.53	88332

File: 2025-07-22_16-23-58_1_240.txt
2025-07-22, 16:23:58, 1
Index	Phase	Displacement	Time	Pos X	Pos Y	Pos Z	Rot A	Rot B	Piezo Z	Force A	Force B	Gripper	Voltage A	Voltage B	Temperature	Amplitude force	Amplitude pos	Stiffness	Phase shift	Phase excitation	Force A raw	Displacement raw	HMax	HMax raw	Real Force	Real Stiffness	Contact Depth	Area	Hardness	Reduced Mod.
[#]	[#]	[um]	[s]	[um]	[um]	[um]	[m°]	[m°]	[um]	[uN]	[uN]	[V]	[V]	[V]	[°C]	[uN]	[um]	[N/m]	[°]	[°]	[uN]	[um]	[um]	[um]	[uN]	[N/m]	[um]	[um^2]	[MPa]	[MPa]
240	1.000000	0.002554	7.36739e+06	-50639.1	955.819	-29755.4	0.000000	0.000000	6.002801	0.001684	NaN	0.000000	0.001625	0.001622	28.079	0.014598	0.000900	16.212	128.145	-161.4	0.064808	0.001322	-1.081016	-1.082248	0.001684	16.212	-1.081094	-2.793895E+14	-6.025931E-18	NaN
240	1.000000	0.044474	7.36739e+06	-50639.1	955.819	-29755.4	0.000000	0.000000	6.044722	0.007581	NaN	0.000000	0.001605	0.001611	28.0786	0.078183	0.001992	39.2388	105.114	14.6656	-0.020452	0.043169	-1.039095	-1.040401	0.007581	39.2388	-1.039240	-7.651533E+13	-9.907320E-17	NaN
240	1.000000	0.086515	7.36739e+06	-50639.1	955.818	-29755.4	0.000000	0.000000	6.086763	-0.004075	NaN	0.000000	0.001549	0.001675	28.0772	0.175930	0.001960	89.7642	101.047	-164.123	0.032175	0.085205	-0.997055	-0.998364	-0.004075	89.7642	-0.997020	-2.068484E+13	1.969879E-16	NaN
240	1.000000	0.128537	7.36739e+06	-50639.1	955.818	-29755.4	0.000000	0.000000	6.128783	-0.032221	NaN	0.000000	0.001544	0.001609	28.0777	0.055840	0.001946	28.6951	31.5528	16.0421	0.036867	0.127263	-0.955033	-0.956306	-0.032221	28.6951	-0.954191	-5.476981E+12	5.882993E-15	NaN
240	1.000000	0.170532	7.36739e+06	-50639.1	955.818	-29755.4	0.000000	0.000000	6.170780	-0.007251	NaN	0.000000	0.001604	0.001617	28.0772	0.027002	0.002017	13.3895	152.134	-163.818	-0.020019	0.169229	-0.913037	-0.914341	-0.007251	13.3895	-0.912631	-1.505561E+12	4.816063E-15	NaN
240	1.000000	0.212561	7.36739e+06	-50639.1	955.818	-29755.4	0.000000	0.000000	6.212813	0.104436	NaN	0.000000	0.001648	0.001594	28.0771	0.041009	0.001985	20.6629	13.8	15.8525	0.005426	0.211248	-0.871008	-0.872322	0.104436	20.6629	-0.874799	-4.638339E+11	-2.251575E-13	NaN
240	1.000000	0.254588	7.36739e+06	-50639.1	955.819	-29755.4	0.000000	0.000000	6.254835	-0.015921	NaN	0.000000	0.001585	0.001612	28.0786	0.091992	0.001935	47.5326	18.7644	-168.726	0.005402	0.253254	-0.828981	-0.830315	-0.015921	47.5326	-0.828730	-1.102984E+11	1.443455E-13	NaN
240	1.000000	0.296638	7.36739e+06	-50639.1	955.817	-29755.4	0.000000	0.000000	6.296888	0.049842	NaN	0.000000	0.001586	0.001658	28.0784	0.035866	0.001994	17.9865	11.872	15.9755	-0.028871	0.295221	-0.786931	-0.788349	0.049842	17.9865	-0.789010	-3.188829E+10	-1.563009E-12	NaN
240	1.000000	0.338615	7.36739e+06	-50639.1	955.819	-29755.4	0.000000	0.000000	6.338862	-0.004474	NaN	0.000000	0.001559	0.001634	28.0786	0.107984	0.001924	56.1328	-108.409	-167.239	0.010481	0.337330	-0.744955	-0.746239	-0.004474	56.1328	-0.744895	-8.011535E+9	5.584339E-13	NaN
240	1.000000	0.380603	7.36739e+06	-50639.1	955.819	-29755.4	0.000000	0.000000	6.380851	0.011575	NaN	0.000000	0.001553	0.001664	28.0774	0.017800	0.002008	8.863416	-118.255	15.4388	-0.042533	0.379213	-0.702967	-0.704356	0.011575	8.863416	-0.703946	-2.215216E+9	-5.225075E-12	NaN
240	1.000000	0.422662	7.36739e+06	-50639.1	955.819	-29755.4	0.000000	0.000000	6.422908	-0.049651	NaN	0.000000	0.001574	0.001665	28.0773	0.068252	0.002057	33.1749	-46.108	-162.657	0.019763	0.421367	-0.660907	-0.662202	-0.049651	33.1749	-0.659785	-5.514640E+8	9.003414E-11	NaN
240	1.000000	0.464648	7.3674e+06	-50639.1	955.819	-29755.4	0.000000	0.000000	6.464898	0.038947	NaN	0.000000	0.001551	0.001657	28.0771	0.053062	0.001990	26.6608	65.3615	15.3943	0.061092	0.463287	-0.618921	-0.620282	0.038947	26.6608	-0.620017	-1.569878E+8	-2.480894E-10	NaN
240	1.000000	0.506685	7.3674e+06	-50639.1	955.818	-29755.4	0.000000	0.000000	6.506935	0.053350	NaN	0.000000	0.001558	0.001648	28.0786	0.007206	0.001913	3.767397	67.4371	-163.542	0.014425	0.505456	-0.576885	-0.578114	0.053350	3.767397	-0.587505	-5.601048E+7	-9.525027E-10	NaN
240	1.000000	0.548731	7.3674e+06	-50639.1	955.819	-29755.4	0.000000	0.000000	6.548982	0.076668	NaN	0.000000	0.001595	0.001671	28.0788	0.088121	0.001873	47.0451	165.425	20.2175	0.094493	0.547341	-0.534838	-0.536229	0.076668	47.0451	-0.536060	-1.088187E+7	-7.045461E-9	NaN
240	1.000000	0.590746	7.3674e+06	-50639.1	955.819	-29755.4	0.000000	0.000000	6.590993	-0.017265	NaN	0.000000	0.001568	0.001663	28.0788	0.058226	0.001885	30.8832	111.016	-162.648	0.039401	0.589374	-0.492824	-0.494195	-0.017265	30.8832	-0.492405	-2.68527e+06	6.429438E-9	NaN
240	1.000000	0.632726	7.3674e+06	-50639.1	955.817	-29755.4	0.000000	0.000000	6.632972	-0.042926	NaN	0.000000	0.001546	0.001663	28.0775	0.163501	0.001984	82.4177	92.1446	17.1182	0.021480	0.631325	-0.450843	-0.452244	-0.042926	82.4177	-0.450452	-692969	6.194535E-8	NaN
240	1.000000	0.674793	7.3674e+06	-50639.1	955.819	-29755.4	0.000000	0.000000	6.675039	-0.036718	NaN	0.000000	0.001579	0.001659	28.0775	0.083995	0.002147	39.122	118.584	-164.057	0.026893	0.673494	-0.408777	-0.410076	-0.036718	39.122	-0.408073	-174175	2.108125E-7	NaN
240	1.000000	0.716787	7.3674e+06	-50639.1	955.819	-29755.4	0.000000	0.000000	6.717032	-0.067253	NaN	0.000000	0.001561	0.001642	28.0774	0.107862	0.002041	52.8562	27.1824	13.6479	-0.043983	0.715435	-0.366783	-0.368135	-0.067253	52.8562	-0.365828	-43251.7	1.554929E-6	NaN
240	1.000000	0.758809	7.3674e+06	-50639.1	955.819	-29755.4	0.000000	0.000000	6.759058	0.039602	NaN	0.000000	0.001541	0.001659	28.0773	0.040279	0.002060	19.5488	10.4695	-162.718	0.023924	0.757553	-0.324760	-0.326017	0.039602	19.5488	-0.326280	-11505.9	-3.441872E-6	NaN
240	1.000000	0.800817	7.3674e+06	-50639.1	955.819	-29755.4	0.000000	0.000000	6.801066	0.018647	NaN	0.000000	0.001584	0.001680	28.0785	0.074212	0.001952	38.0161	59.9643	16.7251	0.048921	0.799454	-0.282752	-0.284115	0.018647	38.0161	-0.283120	-2630.2	-7.089658E-6	NaN
240	1.000000	0.842840	7.3674e+06	-50639.1	955.818	-29755.4	0.000000	0.000000	6.843089	0.028306	NaN	0.000000	0.001622	0.001694	28.0793	0.088672	0.002098	42.2571	-26.9401	-162.594	0.060434	0.841534	-0.240730	-0.242036	0.028306	42.2571	-0.241232	-600.878	-4.710719E-5	NaN
240	1.000000	0.884851	7.3674e+06	-50639.1	955.819	-29755.4	0.000000	0.000000	6.885097	-0.051661	NaN	0.000000	0.001660	0.001615	28.0787	0.038212	0.001977	19.3302	121.554	12.9916	-0.005831	0.883495	-0.198719	-0.200074	-0.051661	19.3302	-0.196714	-116.294	0.000444	NaN
240	1.000000	0.926847	7.3674e+06	-50639.1	955.818	-29755.4	0.000000	0.000000	6.927096	0.018133	NaN	0.000000	0.001686	0.001659	28.0772	0.075282	0.002072	36.3392	-96.6915	-166.285	-0.043242	0.925597	-0.156722	-0.157972	0.018133	36.3392	-0.157096	-24.3334	-0.000745	NaN
240	1.000000	0.968898	7.3674e+06	-50639.1	955.819	-29755.4	0.000000	0.000000	6.969145	-0.015842	NaN	0.000000	0.001544	0.001602	28.0775	0.087473	0.001973	44.3383	145.593	16.8657	-0.035080	0.967535	-0.114671	-0.116034	-0.015842	44.3383	-0.114403	-3.713560	0.004266	NaN
240	1.000000	1.010891	7.3674e+06	-50639.1	955.819	-29755.4	0.000000	0.000000	7.011139	0.010529	NaN	0.000000	0.001582	0.001644	28.0773	0.048636	0.001874	25.9474	-84.2308	-162.201	-0.027655	1.009579	-0.072679	-0.073991	0.010529	25.9474	-0.072983	-0.409235	-0.025728	NaN
240	1.000000	1.052916	7.3674e+06	-50639.1	955.819	-29755.4	0.000000	0.000000	7.053164	-0.008627	NaN	0.000000	0.001579	0.001697	28.0785	0.043014	0.002052	20.9663	157.259	12.2086	0.027192	1.051562	-0.030653	-0.032008	-0.008627	20.9663	-0.030344	-0.023528	0.366670	NaN
240	1.000000	1.094915	7.3674e+06	-50639.1	955.819	-29755.4	0.000000	0.000000	7.095390	5.529066	NaN	0.000000	0.001621	0.001646	28.0786	6.124176	0.001872	3272.21	15.6009	-171.847	4.372774	1.093616	0.011346	0.010046	5.529066	3272.21	0.010078	0.009269	596.525	31053
240	2.000000	1.107941	7.3674e+06	-50639.1	955.819	-29755.4	0.000000	0.000000	7.109123	22.6988	NaN	0.000000	0.001571	0.001666	28.0789	19.7063	0.001768	11144	5.077017	5.036177	21.287	1.107662	0.024372	0.024093	22.6988	11144	0.022844	0.027210	834.2	61723.2
240	2.000000	1.118459	7.3674e+06	-50639.1	955.819	-29755.4	0.000000	0.000000	7.120719	48.92	NaN	0.000000	0.001648	0.001633	28.0774	32.5817	0.001848	17631.9	10.7389	176.745	50.7479	1.118173	0.034890	0.034603	48.92	17631.9	0.032809	0.046767	1046.04	74491.1
240	2.000000	1.128840	7.3674e+06	-50639.1	955.819	-29755.4	0.000000	0.000000	7.132658	86.8223	NaN	0.000000	0.001652	0.001650	28.0776	42.8203	0.001799	23807.7	2.099209	1.537889	82.4335	1.128546	0.045270	0.044977	86.8223	23807.7	0.042535	0.070744	1227.28	81780.2
240	2.000000	1.139334	7.3674e+06	-50639.1	955.819	-29755.4	0.000000	0.000000	7.145120	134.665	NaN	0.000000	0.001598	0.001645	28.0776	53.4959	0.001693	31600.7	5.617460	175.181	132.716	1.139086	0.055765	0.055517	134.665	31600.7	0.052568	0.100517	1339.72	91064.5
240	2.000000	1.149916	7.3674e+06	-50639.1	955.819	-29755.4	0.000000	0.000000	7.158449	201.475	NaN	0.000000	0.001618	0.001597	28.0774	63.6207	0.001828	34808.1	5.705902	-4.919837	201.973	1.149449	0.066347	0.065880	201.475	34808.1	0.062005	0.133098	1513.73	87170.2
240	2.000000	1.160367	7.3674e+06	-50639.1	955.819	-29755.4	0.000000	0.000000	7.171732	270.357	NaN	0.000000	0.001593	0.001622	28.0787	75.5736	0.001884	40103.5	4.533101	174.59	268.663	1.160106	0.076797	0.076536	270.357	40103.5	0.071741	0.171244	1578.78	88541.9
240	2.000000	1.170834	7.3674e+06	-50639.1	955.82	-29755.4	0.000000	0.000000	7.185873	359.71	NaN	0.000000	0.001625	0.001632	28.0788	86.8011	0.001946	44607.2	6.916896	-8.837859	356.453	1.170459	0.087264	0.086889	359.71	44607.2	0.081216	0.212683	1691.29	88371.3
240	2.000000	1.181306	7.3674e+06	-50639.1	955.819	-29755.4	0.000000	0.000000	7.200373	457.638	NaN	0.000000	0.001633	0.001682	28.0787	93.6422	0.001830	51182.8	1.462638	175.805	454.615	1.181130	0.097736	0.097561	457.638	51182.8	0.091030	0.260006	1760.1	91707.6
240	2.000000	1.191677	7.3674e+06	-50639.1	955.82	-29755.4	0.000000	0.000000	7.215366	570.037	NaN	0.000000	0.001593	0.001673	28.0771	103.923	0.001867	55673.8	3.322925	-6.427435	560.825	1.191382	0.108107	0.107813	570.037	55673.8	0.100428	0.309459	1842.04	91437
240	2.000000	1.196769	7.3674e+06	-50639.1	955.819	-29755.4	0.000000	0.000000	7.222604	622.212	NaN	0.000000	0.001538	0.001690	28.0774	107.288	0.001735	61845.6	5.978898	-9.277109	615.315	1.196281	0.113200	0.112711	622.212	61845.6	0.105654	0.338698	1837.07	97090.2