Folder: unikorn_login/remote_trans/data/nanoindenter/0828-1/data/Data_2025-08-06,11h17m57s (part 160)

File: 2025-07-22_16-23-58_1_337.txt
2025-07-22, 16:23:58, 1
Index	Phase	Displacement	Time	Pos X	Pos Y	Pos Z	Rot A	Rot B	Piezo Z	Force A	Force B	Gripper	Voltage A	Voltage B	Temperature	Amplitude force	Amplitude pos	Stiffness	Phase shift	Phase excitation	Force A raw	Displacement raw	HMax	HMax raw	Real Force	Real Stiffness	Contact Depth	Area	Hardness	Reduced Mod.
[#]	[#]	[um]	[s]	[um]	[um]	[um]	[m°]	[m°]	[um]	[uN]	[uN]	[V]	[V]	[V]	[°C]	[uN]	[um]	[N/m]	[°]	[°]	[uN]	[um]	[um]	[um]	[uN]	[N/m]	[um]	[um^2]	[MPa]	[MPa]
337	1.000000	0.002445	7.36836e+06	-55489.1	955.817	-29741.8	0.000000	0.000000	6.002805	0.015458	NaN	0.000000	0.001514	0.001734	28.0782	0.044606	0.000907	49.1715	-174.474	-171.846	-0.019246	0.001192	-1.013341	-1.014593	0.015458	49.1715	-1.013576	-3.455527E+13	-4.473405E-16	NaN
337	1.000000	0.042386	7.36836e+06	-55489.1	955.819	-29741.8	0.000000	0.000000	6.042743	-0.050566	NaN	0.000000	0.001530	0.001713	28.0795	0.038928	0.001973	19.7342	42.0354	-162.813	-0.071925	0.041016	-0.973399	-0.974770	-0.050566	19.7342	-0.971478	-9.366515E+12	5.398617E-15	NaN
337	1.000000	0.082384	7.36836e+06	-55489.1	955.818	-29741.8	0.000000	0.000000	6.082744	0.003180	NaN	0.000000	0.001516	0.001723	28.0794	0.015008	0.001967	7.629256	-55.4549	-164.976	-0.011264	0.081066	-0.933401	-0.934720	0.003180	7.629256	-0.933714	-2.899472E+12	-1.096806E-15	NaN
337	1.000000	0.122420	7.36836e+06	-55489.1	955.818	-29741.8	0.000000	0.000000	6.122779	-0.024758	NaN	0.000000	0.001530	0.001700	28.0794	0.026365	0.001925	13.6984	122.512	-166.071	0.012759	0.121182	-0.893365	-0.894604	-0.024758	13.6984	-0.892010	-7.926474E+11	3.123398E-14	NaN
337	1.000000	0.162432	7.36836e+06	-55489.1	955.818	-29741.8	0.000000	0.000000	6.162789	-0.066292	NaN	0.000000	0.001521	0.001759	28.0783	0.113793	0.002063	55.1662	30.5317	-167.593	-0.043694	0.161141	-0.853353	-0.854645	-0.066292	55.1662	-0.852452	-2.311750E+11	2.867606E-13	NaN
337	1.000000	0.202456	7.36836e+06	-55489.1	955.818	-29741.8	0.000000	0.000000	6.202812	-0.070553	NaN	0.000000	0.001510	0.001736	28.0782	0.041340	0.001986	20.8144	-77.4509	-166.087	-0.062593	0.201097	-0.813330	-0.814689	-0.070553	20.8144	-0.810788	-6.298802E+10	1.120095E-12	NaN
337	1.000000	0.242459	7.36836e+06	-55489.1	955.818	-29741.8	0.000000	0.000000	6.242819	0.032870	NaN	0.000000	0.001516	0.001744	28.078	0.028026	0.002133	13.1364	4.675632	-161.958	0.029561	0.241167	-0.773327	-0.774619	0.032870	13.1364	-0.775204	-2.070363E+10	-1.587639E-12	NaN
337	1.000000	0.282502	7.36836e+06	-55489.1	955.819	-29741.8	0.000000	0.000000	6.282860	-0.038845	NaN	0.000000	0.001515	0.001720	28.0791	0.009592	0.001970	4.867689	85.3805	-163.552	-0.055658	0.281148	-0.733283	-0.734637	-0.038845	4.867689	-0.727298	-4.612947E+9	8.420919E-12	NaN
337	1.000000	0.322487	7.36836e+06	-55489.1	955.819	-29741.8	0.000000	0.000000	6.322848	0.025374	NaN	0.000000	0.001496	0.001721	28.0793	0.035910	0.002127	16.8835	-19.2665	-164.185	0.078016	0.321229	-0.693298	-0.694557	0.025374	16.8835	-0.694425	-1.642049E+9	-1.545255E-11	NaN
337	1.000000	0.362533	7.36836e+06	-55489.1	955.819	-29741.8	0.000000	0.000000	6.362892	-0.022147	NaN	0.000000	0.001553	0.001670	28.0793	0.130746	0.001904	68.667	-168.745	-166.148	0.065598	0.361209	-0.653252	-0.654577	-0.022147	68.667	-0.653011	-4.453514E+8	4.972874E-11	NaN
337	1.000000	0.402535	7.36836e+06	-55489.1	955.819	-29741.8	0.000000	0.000000	6.402894	-0.011802	NaN	0.000000	0.001614	0.001709	28.0794	0.078916	0.001967	40.1104	166.758	-165.764	-0.057224	0.401231	-0.613251	-0.614555	-0.011802	40.1104	-0.613030	-1.258333E+8	9.378778E-11	NaN
337	1.000000	0.442531	7.36836e+06	-55489.1	955.819	-29741.8	0.000000	0.000000	6.442892	0.044082	NaN	0.000000	0.001529	0.001715	28.0781	0.036422	0.002102	17.3258	23.2096	-163.187	0.163102	0.441148	-0.573254	-0.574637	0.044082	17.3258	-0.575163	-3.783952E+7	-1.164973E-9	NaN
337	1.000000	0.482582	7.36836e+06	-55489.1	955.819	-29741.8	0.000000	0.000000	6.482942	0.023106	NaN	0.000000	0.001506	0.001717	28.078	0.127206	0.001980	64.248	-158.765	-161.163	0.026798	0.481253	-0.533203	-0.534533	0.023106	64.248	-0.533473	-1.001839E+7	-2.306373E-9	NaN
337	1.000000	0.522601	7.36836e+06	-55489.1	955.818	-29741.8	0.000000	0.000000	6.522961	0.023073	NaN	0.000000	0.001583	0.001753	28.0778	0.101449	0.002018	50.2788	-121.948	-166.833	0.075401	0.521253	-0.493185	-0.494533	0.023073	50.2788	-0.493529	-2.78416e+06	-8.287083E-9	NaN
337	1.000000	0.562607	7.36836e+06	-55489.1	955.818	-29741.8	0.000000	0.000000	6.562967	0.009672	NaN	0.000000	0.001548	0.001738	28.0791	0.082396	0.002045	40.2948	155.271	-165.766	0.055780	0.561297	-0.453178	-0.454488	0.009672	40.2948	-0.453359	-761415	-1.270239E-8	NaN
337	1.000000	0.602616	7.36836e+06	-55489.1	955.818	-29741.8	0.000000	0.000000	6.602970	-0.120988	NaN	0.000000	0.001524	0.001732	28.0792	0.046374	0.001919	24.1668	-95.8537	-167.085	-0.107245	0.601258	-0.413170	-0.414528	-0.120988	24.1668	-0.409415	-182003	6.647562E-7	NaN
337	1.000000	0.642631	7.36836e+06	-55489.1	955.818	-29741.8	0.000000	0.000000	6.642991	0.006701	NaN	0.000000	0.001522	0.001677	28.0793	0.052623	0.002124	24.7752	-62.4751	-162.905	-0.022098	0.641322	-0.373154	-0.374464	0.006701	24.7752	-0.373357	-55519.9	-1.206988E-7	NaN
337	1.000000	0.682651	7.36836e+06	-55489.1	955.819	-29741.8	0.000000	0.000000	6.683009	-0.020010	NaN	0.000000	0.001492	0.001694	28.0793	0.069993	0.001919	36.4658	-149.803	-167.448	-0.005645	0.681361	-0.333135	-0.334425	-0.020010	36.4658	-0.332723	-14299	1.399387E-6	NaN
337	1.000000	0.722666	7.36836e+06	-55489.1	955.819	-29741.8	0.000000	0.000000	6.723025	-0.013852	NaN	0.000000	0.001498	0.001690	28.0779	0.094181	0.002071	45.4853	-38.979	-164.945	-0.159893	0.721390	-0.293120	-0.294395	-0.013852	45.4853	-0.292891	-3686.18	3.757869E-6	NaN
337	1.000000	0.762693	7.36836e+06	-55489.1	955.818	-29741.8	0.000000	0.000000	6.763054	0.055338	NaN	0.000000	0.001458	0.001715	28.0778	0.029845	0.002016	14.8012	40.9966	-167.088	0.010413	0.761377	-0.253093	-0.254409	0.055338	14.8012	-0.255897	-1013.73	-5.458901E-5	NaN
337	1.000000	0.802715	7.36836e+06	-55489.1	955.819	-29741.8	0.000000	0.000000	6.803071	-0.058601	NaN	0.000000	0.001514	0.001728	28.0779	0.085870	0.002044	42.0015	11.551	-168.213	-0.048038	0.801392	-0.213071	-0.214393	-0.058601	42.0015	-0.212025	-206.805	0.000283	NaN
337	1.000000	0.842698	7.36836e+06	-55489.1	955.819	-29741.8	0.000000	0.000000	6.843057	-0.023882	NaN	0.000000	0.001510	0.001779	28.0794	0.122160	0.002063	59.2083	19.7568	-167.922	-0.010148	0.841443	-0.173087	-0.174342	-0.023882	59.2083	-0.172785	-45.9017	0.000520	NaN
337	1.000000	0.882728	7.36836e+06	-55489.1	955.819	-29741.8	0.000000	0.000000	6.883087	0.000209	NaN	0.000000	0.001519	0.001780	28.0796	0.030920	0.001990	15.5378	179.087	-166.02	0.012972	0.881413	-0.133058	-0.134372	0.000209	15.5378	-0.133068	-8.735479	-2.396577E-5	NaN
337	1.000000	0.922772	7.36836e+06	-55489.1	955.819	-29741.8	0.000000	0.000000	6.923132	0.015894	NaN	0.000000	0.001526	0.001803	28.0791	0.091689	0.001986	46.1614	176.457	-164.329	-0.007971	0.921442	-0.093014	-0.094344	0.015894	46.1614	-0.093272	-1.287789	-0.012342	NaN
337	1.000000	0.962759	7.36836e+06	-55489.1	955.818	-29741.8	0.000000	0.000000	6.963118	-0.006985	NaN	0.000000	0.001495	0.001736	28.0782	0.024205	0.001946	12.4366	176.988	-162.301	-0.043714	0.961459	-0.053027	-0.054326	-0.006985	12.4366	-0.052605	-0.109300	0.063905	NaN
337	1.000000	1.002827	7.36836e+06	-55489.1	955.817	-29741.8	0.000000	0.000000	7.003187	0.006941	NaN	0.000000	0.001524	0.001700	28.0778	0.086200	0.002124	40.588	178.723	-165.249	-0.005734	1.001432	-0.012958	-0.014353	0.006941	40.588	-0.013087	-0.008152	-0.851388	NaN
337	2.000000	1.031356	7.36836e+06	-55489.1	955.818	-29741.8	0.000000	0.000000	7.032219	12.2378	NaN	0.000000	0.001557	0.001712	28.0778	12.5246	0.001718	7291.83	6.673356	-173.02	11.6416	1.031094	0.015571	0.015308	12.2378	7291.83	0.014312	0.014379	851.097	55558.2
337	2.000000	1.041263	7.36836e+06	-55489.1	955.818	-29741.8	0.000000	0.000000	7.042876	30.4798	NaN	0.000000	0.001600	0.001732	28.0776	22.6825	0.001794	12645.6	6.029649	-178.256	28.6482	1.041049	0.025477	0.025263	30.4798	12645.6	0.023669	0.028640	1064.26	68269.7
337	2.000000	1.051241	7.36836e+06	-55489.1	955.819	-29741.8	0.000000	0.000000	7.054020	58.8094	NaN	0.000000	0.001496	0.001763	28.079	32.2706	0.001735	18604.6	4.662024	-179.724	56.7751	1.051011	0.035456	0.035225	58.8094	18604.6	0.033085	0.047381	1241.2	78089.3
337	2.000000	1.061173	7.36837e+06	-55489.1	955.819	-29741.8	0.000000	0.000000	7.065406	94.1708	NaN	0.000000	0.001521	0.001751	28.0791	42.0692	0.001746	24092.3	3.348657	179.384	89.6309	1.060904	0.045387	0.045119	94.1708	24092.3	0.042456	0.070529	1335.21	82883.8
337	2.000000	1.071265	7.36837e+06	-55489.1	955.818	-29741.8	0.000000	0.000000	7.077446	141.503	NaN	0.000000	0.001494	0.001729	28.079	51.9018	0.001851	28037.7	8.398014	174.07	141.561	1.070815	0.055480	0.055029	141.503	28037.7	0.051695	0.097723	1448	81943.8
337	2.000000	1.081250	7.36837e+06	-55489.1	955.818	-29741.8	0.000000	0.000000	7.089553	193.108	NaN	0.000000	0.001493	0.001733	28.078	62.4377	0.001802	34639.6	6.377682	174.145	193.739	1.080832	0.065464	0.065046	193.108	34639.6	0.061283	0.130449	1480.34	87624.7
337	2.000000	1.091259	7.36837e+06	-55489.1	955.819	-29741.8	0.000000	0.000000	7.102072	254.121	NaN	0.000000	0.001492	0.001737	28.078	72.3397	0.001831	39512.5	5.719235	173.927	253.725	1.090803	0.075473	0.075018	254.121	39512.5	0.070650	0.166741	1524.04	88406.9
337	2.000000	1.101155	7.36837e+06	-55489.1	955.82	-29741.8	0.000000	0.000000	7.114977	327.256	NaN	0.000000	0.001486	0.001767	28.0779	81.9653	0.001748	46903	2.798455	175.413	322.751	1.100834	0.085369	0.085049	327.256	46903	0.080136	0.207747	1575.26	94017.1
337	2.000000	1.111070	7.36837e+06	-55489.1	955.819	-29741.8	0.000000	0.000000	7.128085	404.89	NaN	0.000000	0.001478	0.001821	28.0782	91.4374	0.001786	51185.8	2.243311	175.117	396.867	1.110834	0.095284	0.095049	404.89	51185.8	0.089352	0.251597	1609.28	93233.2
337	2.000000	1.121208	7.36837e+06	-55489.1	955.818	-29741.8	0.000000	0.000000	7.141800	491.817	NaN	0.000000	0.001494	0.001723	28.0795	102.017	0.001859	54873.7	5.217707	172.127	494.55	1.120843	0.105423	0.105057	491.817	54873.7	0.098700	0.300066	1639.03	91522.7
337	2.000000	1.126216	7.36837e+06	-55489.1	955.82	-29741.8	0.000000	0.000000	7.148747	538.947	NaN	0.000000	0.001539	0.001777	28.0795	104.272	0.001875	55615.6	5.319151	171.619	540.5	1.125855	0.110431	0.110070	538.947	55615.6	0.103163	0.324605	1660.32	89185

File: 2025-07-22_16-23-58_1_338.txt
2025-07-22, 16:23:58, 1
Index	Phase	Displacement	Time	Pos X	Pos Y	Pos Z	Rot A	Rot B	Piezo Z	Force A	Force B	Gripper	Voltage A	Voltage B	Temperature	Amplitude force	Amplitude pos	Stiffness	Phase shift	Phase excitation	Force A raw	Displacement raw	HMax	HMax raw	Real Force	Real Stiffness	Contact Depth	Area	Hardness	Reduced Mod.
[#]	[#]	[um]	[s]	[um]	[um]	[um]	[m°]	[m°]	[um]	[uN]	[uN]	[V]	[V]	[V]	[°C]	[uN]	[um]	[N/m]	[°]	[°]	[uN]	[um]	[um]	[um]	[uN]	[N/m]	[um]	[um^2]	[MPa]	[MPa]
338	1.000000	0.002752	7.36837e+06	-55539.1	955.819	-29741.6	0.000000	0.000000	6.002801	0.053006	NaN	0.000000	0.001472	0.001663	28.0804	0.076399	0.000970	78.7627	75.5993	-165.646	0.007967	0.001546	-1.059945	-1.061151	0.053006	78.7627	-1.060449	-1.475231E+14	-3.593047E-16	NaN
338	1.000000	0.042689	7.36837e+06	-55539.1	955.818	-29741.6	0.000000	0.000000	6.042738	0.031065	NaN	0.000000	0.001510	0.001656	28.0797	0.094713	0.001965	48.2016	161.686	-167.428	0.016319	0.041399	-1.020007	-1.021297	0.031065	48.2016	-1.020491	-4.281092E+13	-7.256243E-16	NaN
338	1.000000	0.082710	7.36837e+06	-55539.1	955.818	-29741.6	0.000000	0.000000	6.082757	0.006010	NaN	0.000000	0.001543	0.001667	28.0811	0.014961	0.001931	7.748364	33.1145	-163.317	0.091208	0.081374	-0.979987	-0.981323	0.006010	7.748364	-0.980568	-1.241843E+13	-4.839492E-16	NaN
338	1.000000	0.122700	7.36837e+06	-55539.1	955.819	-29741.6	0.000000	0.000000	6.122748	0.017023	NaN	0.000000	0.001529	0.001718	28.0812	0.079011	0.002033	38.8664	-163.729	-163.463	0.005795	0.121393	-0.939997	-0.941304	0.017023	38.8664	-0.940325	-3.560616E+12	-4.781041E-15	NaN
338	1.000000	0.162731	7.36837e+06	-55539.1	955.819	-29741.6	0.000000	0.000000	6.162778	-0.005047	NaN	0.000000	0.001631	0.001712	28.0818	0.059429	0.001947	30.5297	-117.371	-162.382	0.013660	0.161405	-0.899965	-0.901292	-0.005047	30.5297	-0.899841	-1.011393E+12	4.989888E-15	NaN
338	1.000000	0.202767	7.36837e+06	-55539.1	955.818	-29741.6	0.000000	0.000000	6.202817	0.070234	NaN	0.000000	0.001525	0.001698	28.0806	0.048281	0.001960	24.6392	140.056	-165.115	-0.014005	0.201424	-0.859930	-0.861273	0.070234	24.6392	-0.862068	-3.119645E+11	-2.251334E-13	NaN
338	1.000000	0.242794	7.36837e+06	-55539.1	955.818	-29741.6	0.000000	0.000000	6.242843	0.056178	NaN	0.000000	0.001582	0.001641	28.0803	0.094369	0.001929	48.9194	149.245	-162.447	0.041170	0.241468	-0.819903	-0.821228	0.056178	48.9194	-0.820764	-8.601544E+10	-6.531186E-13	NaN
338	1.000000	0.282803	7.36837e+06	-55539.1	955.818	-29741.6	0.000000	0.000000	6.282851	0.034801	NaN	0.000000	0.001528	0.001684	28.0799	0.127602	0.001971	64.7268	-53.0085	-165.191	0.121853	0.281461	-0.779894	-0.781235	0.034801	64.7268	-0.780297	-2.428095E+10	-1.433268E-12	NaN
338	1.000000	0.322796	7.36837e+06	-55539.1	955.818	-29741.6	0.000000	0.000000	6.322847	0.078256	NaN	0.000000	0.001541	0.001631	28.0799	0.097089	0.002019	48.0935	-158.79	-163.919	0.131024	0.321468	-0.739900	-0.741228	0.078256	48.0935	-0.741121	-7.117356E+9	-1.099507E-11	NaN
338	1.000000	0.362834	7.36837e+06	-55539.1	955.818	-29741.6	0.000000	0.000000	6.362880	-0.006182	NaN	0.000000	0.001489	0.001658	28.0813	0.072239	0.002123	34.0301	-12.2147	-162.186	-0.000865	0.361521	-0.699863	-0.701176	-0.006182	34.0301	-0.699727	-1.939983E+9	3.186742E-12	NaN
338	1.000000	0.402864	7.36837e+06	-55539.1	955.819	-29741.6	0.000000	0.000000	6.402913	0.045963	NaN	0.000000	0.001547	0.001672	28.0814	0.028769	0.001990	14.4556	-52.2696	-168.162	0.053502	0.401544	-0.659832	-0.661152	0.045963	14.4556	-0.662217	-5.954333E+8	-7.719253E-11	NaN
338	1.000000	0.442885	7.36837e+06	-55539.1	955.818	-29741.6	0.000000	0.000000	6.442933	0.020514	NaN	0.000000	0.001490	0.001651	28.081	0.034684	0.002016	17.2056	-121.556	-167.662	0.004711	0.441553	-0.619812	-0.621144	0.020514	17.2056	-0.620706	-1.604500E+8	-1.278531E-10	NaN
338	1.000000	0.482877	7.36837e+06	-55539.1	955.819	-29741.6	0.000000	0.000000	6.482926	0.058543	NaN	0.000000	0.001540	0.001684	28.0799	0.115111	0.001989	57.8715	-112.438	-163.851	0.004328	0.481505	-0.579820	-0.581191	0.058543	57.8715	-0.580578	-4.494789E+7	-1.302473E-9	NaN
338	1.000000	0.522902	7.36837e+06	-55539.1	955.818	-29741.6	0.000000	0.000000	6.522951	0.045074	NaN	0.000000	0.001498	0.001711	28.0797	0.094048	0.002204	42.6645	-70.7225	-166.984	0.061307	0.521537	-0.539795	-0.541159	0.045074	42.6645	-0.540587	-1.257477E+7	-3.584500E-9	NaN
338	1.000000	0.562926	7.36837e+06	-55539.1	955.819	-29741.6	0.000000	0.000000	6.562975	0.050722	NaN	0.000000	0.001494	0.001724	28.0799	0.059020	0.002018	29.2438	-128.533	-163.564	0.042115	0.561575	-0.499771	-0.501121	0.050722	29.2438	-0.501072	-3.54785e+06	-1.429657E-8	NaN
338	1.000000	0.602924	7.36837e+06	-55539.1	955.818	-29741.6	0.000000	0.000000	6.602969	-0.049444	NaN	0.000000	0.001495	0.001754	28.0801	0.105386	0.001921	54.8473	128.884	-164.266	-0.064943	0.601657	-0.459772	-0.461040	-0.049444	54.8473	-0.459096	-916884	5.392644E-8	NaN
338	1.000000	0.642945	7.36837e+06	-55539.1	955.819	-29741.6	0.000000	0.000000	6.642996	0.102670	NaN	0.000000	0.001509	0.001747	28.0813	0.070894	0.002056	34.4773	-26.4011	-164.841	0.068731	0.641695	-0.419752	-0.421001	0.102670	34.4773	-0.421985	-274514	-3.740066E-7	NaN
338	1.000000	0.682991	7.36837e+06	-55539.1	955.819	-29741.6	0.000000	0.000000	6.683042	0.097502	NaN	0.000000	0.001503	0.001738	28.0813	0.030526	0.001911	15.9765	105.731	-167.474	0.131909	0.681659	-0.379705	-0.381037	0.097502	15.9765	-0.384282	-79671.7	-1.223797E-6	NaN
338	1.000000	0.723001	7.36837e+06	-55539.1	955.818	-29741.6	0.000000	0.000000	6.723049	0.009171	NaN	0.000000	0.001527	0.001688	28.0813	0.021631	0.002064	10.4805	-0.631711	-164.994	-0.007096	0.721660	-0.339695	-0.341036	0.009171	10.4805	-0.340351	-18478.9	-4.962945E-7	NaN
338	1.000000	0.762982	7.36837e+06	-55539.1	955.819	-29741.6	0.000000	0.000000	6.763031	0.064305	NaN	0.000000	0.001530	0.001707	28.08	0.067927	0.002121	32.0325	-155.344	-165.668	0.061126	0.761683	-0.299715	-0.301014	0.064305	32.0325	-0.301221	-4906.8	-1.310531E-5	NaN
338	1.000000	0.803011	7.36837e+06	-55539.1	955.819	-29741.6	0.000000	0.000000	6.803060	0.047101	NaN	0.000000	0.001532	0.001686	28.0802	0.039026	0.001966	19.8513	-138.842	-162.334	0.085738	0.801732	-0.259686	-0.260965	0.047101	19.8513	-0.261465	-1234.12	-3.816526E-5	NaN
338	1.000000	0.843038	7.36837e+06	-55539.1	955.818	-29741.6	0.000000	0.000000	6.843086	0.021988	NaN	0.000000	0.001493	0.001705	28.0803	0.027379	0.001995	13.7238	128.392	-166.75	0.022054	0.841750	-0.219658	-0.220947	0.021988	13.7238	-0.220860	-286.688	-7.669515E-5	NaN
338	1.000000	0.883033	7.36837e+06	-55539.1	955.819	-29741.6	0.000000	0.000000	6.883083	0.065928	NaN	0.000000	0.001491	0.001716	28.0811	0.080055	0.001998	40.0729	-29.4891	-167.664	0.063089	0.881709	-0.179663	-0.180988	0.065928	40.0729	-0.180897	-63.2002	-0.001043	NaN
338	1.000000	0.923078	7.36837e+06	-55539.1	955.819	-29741.6	0.000000	0.000000	6.923123	-0.033498	NaN	0.000000	0.001534	0.001652	28.0814	0.065921	0.002084	31.6363	-101.674	-166.34	-0.016598	0.921764	-0.139619	-0.140933	-0.033498	31.6363	-0.138825	-11.2421	0.002980	NaN
338	1.000000	0.963082	7.36837e+06	-55539.1	955.819	-29741.6	0.000000	0.000000	6.963130	0.004566	NaN	0.000000	0.001468	0.001730	28.0813	0.098784	0.001980	49.8891	86.5949	-162.218	0.057004	0.961726	-0.099614	-0.100971	0.004566	49.8891	-0.099683	-1.797772	-0.002540	NaN
338	1.000000	1.003086	7.36837e+06	-55539.1	955.819	-29741.6	0.000000	0.000000	7.003131	-0.049086	NaN	0.000000	0.001490	0.001729	28.0812	0.066231	0.002013	32.9056	148.58	-166.223	-0.039399	1.001768	-0.059610	-0.060928	-0.049086	32.9056	-0.058492	-0.162938	0.301255	NaN
338	1.000000	1.043093	7.36837e+06	-55539.1	955.818	-29741.6	0.000000	0.000000	7.043142	0.043998	NaN	0.000000	0.001486	0.001674	28.0801	0.112370	0.001948	57.6711	47.5891	-165.771	0.078504	1.041784	-0.019604	-0.020912	0.043998	57.6711	-0.020176	-0.012691	-3.466860	NaN
338	2.000000	1.074659	7.36837e+06	-55539.1	955.819	-29741.6	0.000000	0.000000	7.075211	12.2699	NaN	0.000000	0.001508	0.001767	28.0803	12.0952	0.001735	6969.53	8.643922	-174.582	12.0167	1.074350	0.011963	0.011654	12.2699	6969.53	0.010642	0.009904	1238.9	63984.4
338	2.000000	1.084584	7.36837e+06	-55539.1	955.818	-29741.6	0.000000	0.000000	7.086047	34.4244	NaN	0.000000	0.001523	0.001723	28.0805	23.2065	0.001781	13030.5	8.101479	179.65	32.6166	1.084284	0.021888	0.021588	34.4244	13030.5	0.019906	0.022395	1537.14	79552.9
338	2.000000	1.094540	7.36837e+06	-55539.1	955.819	-29741.6	0.000000	0.000000	7.097208	63.7133	NaN	0.000000	0.001497	0.001694	28.0818	33.29	0.001831	18183.6	4.420191	-178.481	62.0488	1.094266	0.031843	0.031570	63.7133	18183.6	0.029215	0.039133	1628.12	83981.1
338	2.000000	1.104567	7.36837e+06	-55539.1	955.818	-29741.6	0.000000	0.000000	7.108792	101.542	NaN	0.000000	0.001523	0.001707	28.0817	43.3355	0.001842	23521.2	3.678321	179.631	101.128	1.104150	0.041871	0.041454	101.542	23521.2	0.038633	0.060543	1677.18	87337.4
338	2.000000	1.114546	7.36837e+06	-55539.1	955.819	-29741.6	0.000000	0.000000	7.120743	149.496	NaN	0.000000	0.001515	0.001756	28.0816	53.4487	0.001683	31762.1	5.254768	175.642	148.719	1.114178	0.051850	0.051481	149.496	31762.1	0.048319	0.087290	1712.64	98220.2
338	2.000000	1.124470	7.36837e+06	-55539.1	955.818	-29741.6	0.000000	0.000000	7.132851	202.577	NaN	0.000000	0.001484	0.001711	28.0813	61.9097	0.001819	34040.3	6.772073	172.98	198.865	1.124166	0.061773	0.061470	202.577	34040.3	0.057310	0.116339	1741.25	91180.7
338	2.000000	1.134452	7.36838e+06	-55539.1	955.818	-29741.6	0.000000	0.000000	7.145333	263.348	NaN	0.000000	0.001504	0.001722	28.08	71.7915	0.001713	41913.4	5.102052	173.424	258.683	1.134200	0.071756	0.071503	263.348	41913.4	0.067043	0.152269	1729.5	98134.3
338	2.000000	1.144568	7.36838e+06	-55539.1	955.818	-29741.6	0.000000	0.000000	7.157888	322.637	NaN	0.000000	0.001550	0.001739	28.0801	82.3854	0.001826	45116.1	4.408845	173.597	322.786	1.144293	0.081872	0.081596	322.637	45116.1	0.076508	0.191566	1684.21	94177
338	2.000000	1.154411	7.36838e+06	-55539.1	955.819	-29741.6	0.000000	0.000000	7.171318	409.855	NaN	0.000000	0.001516	0.001718	28.08	91.3767	0.001853	49324	5.644478	171.802	405.97	1.154148	0.091714	0.091452	409.855	49324	0.085482	0.232707	1761.25	93417.3
338	2.000000	1.164387	7.36838e+06	-55539.1	955.82	-29741.6	0.000000	0.000000	7.184543	488.794	NaN	0.000000	0.001504	0.001748	28.0814	100.606	0.001817	55368.7	6.093928	170.582	483.56	1.164105	0.101691	0.101409	488.794	55368.7	0.095070	0.280769	1740.91	95469.1
338	2.000000	1.170520	7.36838e+06	-55539.1	955.82	-29741.6	0.000000	0.000000	7.192919	543.343	NaN	0.000000	0.001541	0.001761	28.0812	105.311	0.001697	62065.3	6.406630	170.046	543.38	1.170066	0.107824	0.107369	543.343	62065.3	0.101258	0.314019	1730.29	101191