Folder: unikorn_login/remote_trans/data/nanoindenter/0828-1/data/Data_2025-08-06,11h17m57s (part 188)

File: 2025-07-22_16-23-58_1_393.txt
2025-07-22, 16:23:58, 1
Index	Phase	Displacement	Time	Pos X	Pos Y	Pos Z	Rot A	Rot B	Piezo Z	Force A	Force B	Gripper	Voltage A	Voltage B	Temperature	Amplitude force	Amplitude pos	Stiffness	Phase shift	Phase excitation	Force A raw	Displacement raw	HMax	HMax raw	Real Force	Real Stiffness	Contact Depth	Area	Hardness	Reduced Mod.
[#]	[#]	[um]	[s]	[um]	[um]	[um]	[m°]	[m°]	[um]	[uN]	[uN]	[V]	[V]	[V]	[°C]	[uN]	[um]	[N/m]	[°]	[°]	[uN]	[um]	[um]	[um]	[uN]	[N/m]	[um]	[um^2]	[MPa]	[MPa]
393	1.000000	0.002684	7.36891e+06	-57439.1	1005.82	-29737.1	0.000000	0.000000	6.002808	-0.018918	NaN	0.000000	0.001618	0.001652	28.0816	0.057981	0.001018	56.9583	127.398	-164.34	-0.008523	0.001393	-1.076357	-1.077648	-0.018918	56.9583	-1.076108	-2.394622E+14	7.900244E-17	NaN
393	1.000000	0.042637	7.36891e+06	-57439.1	1005.82	-29737.1	0.000000	0.000000	6.042762	-0.009381	NaN	0.000000	0.001649	0.001653	28.0817	0.043771	0.001849	23.6703	-112.923	-165.52	0.007800	0.041295	-1.036404	-1.037746	-0.009381	23.6703	-1.036107	-6.944014E+13	1.350928E-16	NaN
393	1.000000	0.082626	7.36891e+06	-57439.1	1005.82	-29737.1	0.000000	0.000000	6.082754	0.065153	NaN	0.000000	0.001651	0.001659	28.0817	0.073221	0.001862	39.3136	-76.9392	-165.229	0.052143	0.081231	-0.996415	-0.997810	0.065153	39.3136	-0.997658	-2.109765E+13	-3.088160E-15	NaN
393	1.000000	0.122654	7.36891e+06	-57439.1	1005.82	-29737.1	0.000000	0.000000	6.122778	-0.020120	NaN	0.000000	0.001637	0.001643	28.0805	0.050828	0.001970	25.8026	-7.779243	-166.274	-0.040059	0.121408	-0.956387	-0.957633	-0.020120	25.8026	-0.955802	-5.757985E+12	3.494229E-15	NaN
393	1.000000	0.162681	7.36891e+06	-57439.1	1005.82	-29737.1	0.000000	0.000000	6.162805	-0.026966	NaN	0.000000	0.001627	0.001682	28.0804	0.061936	0.002046	30.2779	134.369	-165.205	-0.075390	0.161372	-0.916359	-0.917669	-0.026966	30.2779	-0.915691	-1.655880E+12	1.628494E-14	NaN
393	1.000000	0.202688	7.36891e+06	-57439.1	1005.82	-29737.1	0.000000	0.000000	6.202813	-0.017047	NaN	0.000000	0.001651	0.001654	28.0808	0.095107	0.001997	47.62	-105.887	-166.274	0.046459	0.201328	-0.876353	-0.877713	-0.017047	47.62	-0.876084	-4.827765E+11	3.531120E-14	NaN
393	1.000000	0.242715	7.36891e+06	-57439.1	1005.82	-29737.1	0.000000	0.000000	6.242839	-0.026542	NaN	0.000000	0.001616	0.001654	28.0807	0.101166	0.002097	48.2388	175.078	-165.966	-0.025453	0.241458	-0.836326	-0.837583	-0.026542	48.2388	-0.835913	-1.380142E+11	1.923142E-13	NaN
393	1.000000	0.282729	7.36891e+06	-57439.1	1005.82	-29737.1	0.000000	0.000000	6.282854	0.000733	NaN	0.000000	0.001678	0.001680	28.0819	0.014907	0.002134	6.984837	126.825	-166.187	-0.031396	0.281469	-0.796312	-0.797571	0.000733	6.984837	-0.796391	-4.016630E+10	-1.825777E-14	NaN
393	1.000000	0.322724	7.36891e+06	-57439.1	1005.82	-29737.1	0.000000	0.000000	6.322852	0.073596	NaN	0.000000	0.001603	0.001648	28.0818	0.087658	0.002043	42.9157	-13.8286	-166.567	0.016877	0.321442	-0.756317	-0.757599	0.073596	42.9157	-0.757603	-1.193155E+10	-6.168192E-12	NaN
393	1.000000	0.362759	7.36891e+06	-57439.1	1005.82	-29737.1	0.000000	0.000000	6.362884	-0.007769	NaN	0.000000	0.001666	0.001643	28.0813	0.044843	0.001902	23.5747	63.3044	-165.583	-0.029731	0.361475	-0.716281	-0.717566	-0.007769	23.5747	-0.716034	-3.238781E+9	2.398804E-12	NaN
393	1.000000	0.402788	7.36891e+06	-57439.1	1005.82	-29737.1	0.000000	0.000000	6.402914	0.000302	NaN	0.000000	0.001664	0.001597	28.0801	0.081149	0.002105	38.5513	-140.99	-167.698	-0.028671	0.401538	-0.676252	-0.677502	0.000302	38.5513	-0.676258	-9.268807E+8	-3.260291E-13	NaN
393	1.000000	0.442781	7.36891e+06	-57439.1	1005.82	-29737.1	0.000000	0.000000	6.442905	-0.030625	NaN	0.000000	0.001656	0.001575	28.0804	0.068785	0.001987	34.6243	-176.188	-167.548	0.022171	0.441485	-0.636260	-0.637556	-0.030625	34.6243	-0.635597	-2.569567E+8	1.191829E-10	NaN
393	1.000000	0.482808	7.36891e+06	-57439.1	1005.82	-29737.1	0.000000	0.000000	6.482935	0.057728	NaN	0.000000	0.001688	0.001583	28.0806	0.078717	0.001990	39.5499	91.9916	-165.851	-0.106364	0.481550	-0.596233	-0.597490	0.057728	39.5499	-0.597328	-7.649893E+7	-7.546226E-10	NaN
393	1.000000	0.522808	7.36891e+06	-57439.1	1005.82	-29737.1	0.000000	0.000000	6.522934	0.008299	NaN	0.000000	0.001670	0.001580	28.0805	0.091044	0.001959	46.4633	44.323	-170.004	0.121091	0.521497	-0.556232	-0.557544	0.008299	46.4633	-0.556366	-2.080179E+7	-3.989770E-10	NaN
393	1.000000	0.562799	7.36891e+06	-57439.1	1005.82	-29737.1	0.000000	0.000000	6.562921	-0.068456	NaN	0.000000	0.001637	0.001559	28.0818	0.039052	0.002012	19.4071	-133.908	-163.947	-0.013685	0.561520	-0.516242	-0.517521	-0.068456	19.4071	-0.513597	-5.3027e+06	1.290966E-8	NaN
393	1.000000	0.602852	7.36891e+06	-57439.1	1005.82	-29737.1	0.000000	0.000000	6.602979	0.025208	NaN	0.000000	0.001664	0.001615	28.0817	0.171386	0.002143	79.9866	103.971	-165.974	-0.061759	0.601623	-0.476188	-0.477417	0.025208	79.9866	-0.476425	-1.60494e+06	-1.570646E-8	NaN
393	1.000000	0.642888	7.36891e+06	-57439.1	1005.82	-29737.1	0.000000	0.000000	6.643012	-0.022821	NaN	0.000000	0.001650	0.001611	28.0817	0.114472	0.002215	51.6727	159.928	-167.561	-0.052952	0.641535	-0.436153	-0.437506	-0.022821	51.6727	-0.435821	-430883	5.296395E-8	NaN
393	1.000000	0.682874	7.36891e+06	-57439.1	1005.82	-29737.1	0.000000	0.000000	6.682998	-0.023945	NaN	0.000000	0.001717	0.001608	28.0806	0.158531	0.001963	80.7474	-103.237	-164.357	0.034320	0.681595	-0.396167	-0.397446	-0.023945	80.7474	-0.395944	-116982	2.046897E-7	NaN
393	1.000000	0.722913	7.36891e+06	-57439.1	1005.82	-29737.1	0.000000	0.000000	6.723038	0.014199	NaN	0.000000	0.001652	0.001659	28.0808	0.025132	0.001968	12.771	130.494	-164.506	0.062127	0.721555	-0.356128	-0.357486	0.014199	12.771	-0.356962	-32203.5	-4.409175E-7	NaN
393	1.000000	0.762935	7.36891e+06	-57439.1	1005.82	-29737.1	0.000000	0.000000	6.763060	-0.013843	NaN	0.000000	0.001666	0.001656	28.0808	0.035039	0.001862	18.8161	-133.482	-164.807	0.055036	0.761610	-0.316106	-0.317430	-0.013843	18.8161	-0.315554	-8000.52	1.730278E-6	NaN
393	1.000000	0.802948	7.36891e+06	-57439.1	1005.82	-29737.1	0.000000	0.000000	6.803068	-0.109049	NaN	0.000000	0.001730	0.001648	28.082	0.069659	0.002010	34.6606	158.021	-167.983	-0.018477	0.801633	-0.276093	-0.277408	-0.109049	34.6606	-0.273733	-1897.63	5.746598E-5	NaN
393	1.000000	0.842916	7.36891e+06	-57439.1	1005.82	-29737.1	0.000000	0.000000	6.843042	0.021101	NaN	0.000000	0.001657	0.001647	28.0819	0.111765	0.001927	58.0072	-31.3374	-164.68	0.030546	0.841675	-0.236125	-0.237366	0.021101	58.0072	-0.236397	-504.867	-4.179449E-5	NaN
393	1.000000	0.882945	7.36891e+06	-57439.1	1005.82	-29737.1	0.000000	0.000000	6.883070	-0.008870	NaN	0.000000	0.001680	0.001660	28.0816	0.142054	0.001861	76.3376	-88.815	-162.361	-0.020616	0.881687	-0.196096	-0.197354	-0.008870	76.3376	-0.196009	-113.213	7.834499E-5	NaN
393	1.000000	0.922981	7.36891e+06	-57439.1	1005.82	-29737.1	0.000000	0.000000	6.923107	0.017243	NaN	0.000000	0.001628	0.001631	28.0815	0.050659	0.002087	24.2791	-7.584664	-167.303	-0.090932	0.921676	-0.156059	-0.157365	0.017243	24.2791	-0.156592	-23.8325	-0.000723	NaN
393	1.000000	0.963008	7.36891e+06	-57439.1	1005.82	-29737.1	0.000000	0.000000	6.963132	-0.028890	NaN	0.000000	0.001644	0.001624	28.0803	0.049787	0.002151	23.1425	79.1383	-169.254	0.019543	0.961704	-0.116033	-0.117336	-0.028890	23.1425	-0.115096	-3.837895	0.007528	NaN
393	1.000000	1.003026	7.36891e+06	-57439.1	1005.82	-29737.1	0.000000	0.000000	7.003151	-0.013666	NaN	0.000000	0.001641	0.001631	28.0804	0.075948	0.002068	36.7266	155.682	-168.465	0.010090	1.001749	-0.076015	-0.077292	-0.013666	36.7266	-0.075736	-0.482507	0.028322	NaN
393	1.000000	1.043009	7.36891e+06	-57439.1	1005.82	-29737.1	0.000000	0.000000	7.043132	-0.044656	NaN	0.000000	0.001630	0.001704	28.0804	0.120220	0.001934	62.1495	-111.197	-167.219	0.003222	1.041692	-0.036032	-0.037349	-0.044656	62.1495	-0.035493	-0.033115	1.348488	NaN
393	1.000000	1.083011	7.36891e+06	-57439.1	1005.82	-29737.1	0.000000	0.000000	7.083319	4.455922	NaN	0.000000	0.001731	0.001639	28.0818	5.253240	0.001782	2948.52	9.574905	-171.477	2.640307	1.081722	0.003970	0.002682	4.455922	2948.52	0.002837	0.002243	1986.75	56882.6
393	2.000000	1.095569	7.36891e+06	-57439.1	1005.82	-29737.1	0.000000	0.000000	7.096524	20.1599	NaN	0.000000	0.001697	0.001669	28.0819	18.9791	0.001864	10180.6	6.725176	-176.538	20.6279	1.095167	0.016528	0.016126	20.1599	10180.6	0.015043	0.015343	1313.96	75091.9
393	2.000000	1.105510	7.36891e+06	-57439.1	1005.82	-29737.1	0.000000	0.000000	7.107124	36.1987	NaN	0.000000	0.001650	0.001651	28.0817	28.091	0.001837	15289.5	4.189064	-178.636	35.9613	1.105367	0.026469	0.026326	36.1987	15289.5	0.024693	0.030460	1188.4	80038.6
393	2.000000	1.115499	7.36891e+06	-57439.1	1005.82	-29737.1	0.000000	0.000000	7.118336	65.9098	NaN	0.000000	0.001645	0.001653	28.0815	38.3217	0.001819	21071.5	3.630531	178.972	66.3703	1.115224	0.036458	0.036183	65.9098	21071.5	0.034112	0.049699	1326.18	86356.2
393	2.000000	1.125473	7.36891e+06	-57439.1	1005.82	-29737.1	0.000000	0.000000	7.129717	100.113	NaN	0.000000	0.001658	0.001644	28.0802	48.0168	0.001888	25431.4	3.129097	178.387	99.914	1.125116	0.046432	0.046075	100.113	25431.4	0.043479	0.073329	1365.25	85803.7
393	2.000000	1.135410	7.36891e+06	-57439.1	1005.82	-29737.1	0.000000	0.000000	7.141237	138.579	NaN	0.000000	0.001621	0.001651	28.0802	56.9593	0.001751	32538.8	2.896729	175.486	135.504	1.135177	0.056369	0.056136	138.579	32538.8	0.053175	0.102480	1352.26	92865.7
393	2.000000	1.145370	7.36891e+06	-57439.1	1005.82	-29737.1	0.000000	0.000000	7.153308	189.883	NaN	0.000000	0.001649	0.001626	28.0802	66.2979	0.001771	37439.7	5.993951	172.162	185.635	1.145053	0.066330	0.066012	189.883	37439.7	0.062526	0.135021	1406.32	93090.5
393	2.000000	1.155484	7.36891e+06	-57439.1	1005.82	-29737.1	0.000000	0.000000	7.165649	244.018	NaN	0.000000	0.001575	0.001707	28.0813	76.0127	0.001808	42033.6	10.1309	167.985	246.178	1.155073	0.076443	0.076032	244.018	42033.6	0.072089	0.172691	1413.03	92413.5
393	2.000000	1.165400	7.36891e+06	-57439.1	1005.82	-29737.1	0.000000	0.000000	7.178344	311.557	NaN	0.000000	0.001634	0.001643	28.0814	86.4116	0.001844	46851.6	8.697980	167.449	310.413	1.165133	0.086360	0.086092	311.557	46851.6	0.081372	0.213400	1459.96	92661.6
393	2.000000	1.175445	7.36891e+06	-57439.1	1005.82	-29737.1	0.000000	0.000000	7.190793	369.986	NaN	0.000000	0.001605	0.001704	28.0817	94.8463	0.001842	51497.4	1.445092	173.723	370.087	1.175309	0.096404	0.096268	369.986	51497.4	0.091016	0.259934	1423.38	92284.1
393	2.000000	1.184998	7.36891e+06	-57439.1	1005.82	-29737.1	0.000000	0.000000	7.203708	451.69	NaN	0.000000	0.001664	0.001709	28.0809	105.26	0.001770	59462.9	9.127614	-14.2404	453.658	1.184614	0.105957	0.105573	451.69	59462.9	0.100260	0.308541	1463.96	97805.4

File: 2025-07-22_16-23-58_1_394.txt
2025-07-22, 16:23:58, 1
Index	Phase	Displacement	Time	Pos X	Pos Y	Pos Z	Rot A	Rot B	Piezo Z	Force A	Force B	Gripper	Voltage A	Voltage B	Temperature	Amplitude force	Amplitude pos	Stiffness	Phase shift	Phase excitation	Force A raw	Displacement raw	HMax	HMax raw	Real Force	Real Stiffness	Contact Depth	Area	Hardness	Reduced Mod.
[#]	[#]	[um]	[s]	[um]	[um]	[um]	[m°]	[m°]	[um]	[uN]	[uN]	[V]	[V]	[V]	[°C]	[uN]	[um]	[N/m]	[°]	[°]	[uN]	[um]	[um]	[um]	[uN]	[N/m]	[um]	[um^2]	[MPa]	[MPa]
394	1.000000	0.002591	7.36892e+06	-57389.1	1005.82	-29737.2	0.000000	0.000000	6.002781	-0.049345	NaN	0.000000	0.001627	0.001629	28.0806	0.025180	0.001021	24.6583	126.06	-161.65	-0.053980	0.001389	-1.021133	-1.022335	-0.049345	24.6583	-1.019632	-4.168761E+13	1.183689E-15	NaN
394	1.000000	0.042572	7.36892e+06	-57389.1	1005.82	-29737.2	0.000000	0.000000	6.042763	-0.025902	NaN	0.000000	0.001654	0.001653	28.0809	0.081498	0.001990	40.9599	138.39	-167.609	0.017694	0.041227	-0.981152	-0.982497	-0.025902	40.9599	-0.980677	-1.246050E+13	2.078725E-15	NaN
394	1.000000	0.082552	7.36892e+06	-57389.1	1005.82	-29737.2	0.000000	0.000000	6.082745	0.019266	NaN	0.000000	0.001612	0.001650	28.0806	0.079413	0.002037	38.9775	47.9289	-169.009	0.093214	0.081240	-0.941172	-0.942484	0.019266	38.9775	-0.941542	-3.697829E+12	-5.210090E-15	NaN
394	1.000000	0.122593	7.36892e+06	-57389.1	1005.82	-29737.2	0.000000	0.000000	6.122785	-0.010322	NaN	0.000000	0.001623	0.001643	28.0795	0.048896	0.001895	25.7991	-90.7582	-167.351	0.010594	0.121259	-0.901131	-0.902466	-0.010322	25.7991	-0.900831	-1.043010E+12	9.896606E-15	NaN
394	1.000000	0.162601	7.36892e+06	-57389.1	1005.82	-29737.2	0.000000	0.000000	6.162792	-0.031412	NaN	0.000000	0.001627	0.001654	28.0794	0.182436	0.001980	92.1309	149.972	-165.597	-0.052183	0.161337	-0.861123	-0.862387	-0.031412	92.1309	-0.860867	-3.005070E+11	1.045287E-13	NaN
394	1.000000	0.202609	7.36892e+06	-57389.1	1005.82	-29737.2	0.000000	0.000000	6.202801	0.009340	NaN	0.000000	0.001678	0.001650	28.0805	0.088822	0.001938	45.8257	37.4146	-165.597	0.032372	0.201320	-0.821115	-0.822404	0.009340	45.8257	-0.821268	-8.737959E+10	-1.068907E-13	NaN
394	1.000000	0.242664	7.36892e+06	-57389.1	1005.82	-29737.2	0.000000	0.000000	6.242856	0.001278	NaN	0.000000	0.001661	0.001694	28.0805	0.138941	0.001966	70.6559	177.647	-167.389	-0.012866	0.241297	-0.781060	-0.782427	0.001278	70.6559	-0.781074	-2.487840E+10	-5.138446E-14	NaN
394	1.000000	0.282623	7.36892e+06	-57389.1	1005.82	-29737.2	0.000000	0.000000	6.282810	-0.124957	NaN	0.000000	0.001663	0.001650	28.0801	0.042285	0.002022	20.9167	-41.578	-166.874	-0.119029	0.281370	-0.741101	-0.742354	-0.124957	20.9167	-0.736621	-6.180475E+9	2.021807E-11	NaN
394	1.000000	0.322668	7.36892e+06	-57389.1	1005.82	-29737.2	0.000000	0.000000	6.322858	-0.051152	NaN	0.000000	0.001665	0.001655	28.0802	0.031643	0.002057	15.3821	40.1922	-167.369	-0.025324	0.321358	-0.701056	-0.702366	-0.051152	15.3821	-0.698562	-1.870196E+9	2.735114E-11	NaN
394	1.000000	0.362675	7.36892e+06	-57389.1	1005.82	-29737.2	0.000000	0.000000	6.362868	0.013018	NaN	0.000000	0.001627	0.001659	28.0801	0.017551	0.002145	8.180909	-105.433	-165.001	-0.001448	0.361368	-0.661049	-0.662356	0.013018	8.180909	-0.662242	-5.959122E+8	-2.184584E-11	NaN
394	1.000000	0.402705	7.36892e+06	-57389.1	1005.82	-29737.2	0.000000	0.000000	6.402898	0.021077	NaN	0.000000	0.001653	0.001663	28.0791	0.027225	0.001899	14.3331	-177.963	-163.652	0.002584	0.401378	-0.621019	-0.622346	0.021077	14.3331	-0.622121	-1.677995E+8	-1.256103E-10	NaN
394	1.000000	0.442726	7.36892e+06	-57389.1	1005.82	-29737.2	0.000000	0.000000	6.442917	-0.024566	NaN	0.000000	0.001636	0.001643	28.079	0.053196	0.001913	27.8071	24.608	-161.765	-0.014454	0.441418	-0.580998	-0.582306	-0.024566	27.8071	-0.580336	-4.460274E+7	5.507625E-10	NaN
394	1.000000	0.482759	7.36892e+06	-57389.1	1005.82	-29737.2	0.000000	0.000000	6.482952	0.009484	NaN	0.000000	0.001600	0.001637	28.0792	0.069004	0.001999	34.515	68.4601	-166.582	0.033342	0.481422	-0.540965	-0.542302	0.009484	34.515	-0.541171	-1.281129E+7	-7.403057E-10	NaN
394	1.000000	0.522738	7.36892e+06	-57389.1	1005.82	-29737.2	0.000000	0.000000	6.522927	-0.087090	NaN	0.000000	0.001619	0.001639	28.0804	0.142024	0.001965	72.2921	-112.861	-163.861	-0.059153	0.521483	-0.500986	-0.502241	-0.087090	72.2921	-0.500082	-3.43686e+06	2.533992E-8	NaN
394	1.000000	0.562794	7.36892e+06	-57389.1	1005.82	-29737.2	0.000000	0.000000	6.562983	-0.063120	NaN	0.000000	0.001629	0.001674	28.0805	0.101248	0.002039	49.6523	-164.389	-165.351	-0.053433	0.561478	-0.460930	-0.462246	-0.063120	49.6523	-0.459977	-943398	6.690684E-8	NaN
394	1.000000	0.602773	7.36892e+06	-57389.1	1005.82	-29737.2	0.000000	0.000000	6.602962	-0.074719	NaN	0.000000	0.001707	0.001607	28.0804	0.102187	0.001896	53.8988	-66.3866	-160.136	0.007972	0.601472	-0.420951	-0.422252	-0.074719	53.8988	-0.419911	-256538	2.912601E-7	NaN
394	1.000000	0.642767	7.36892e+06	-57389.1	1005.82	-29737.2	0.000000	0.000000	6.642958	-0.041212	NaN	0.000000	0.001608	0.001635	28.0804	0.055032	0.002008	27.4005	-156.488	-169.412	-0.042098	0.641496	-0.380957	-0.382228	-0.041212	27.4005	-0.379829	-68775.2	5.992236E-7	NaN
394	1.000000	0.682822	7.36892e+06	-57389.1	1005.82	-29737.2	0.000000	0.000000	6.683013	-0.015718	NaN	0.000000	0.001640	0.001629	28.0792	0.059799	0.002115	28.2775	35.5788	-166.053	0.011072	0.681517	-0.340902	-0.342207	-0.015718	28.2775	-0.340485	-18562.2	8.467927E-7	NaN
394	1.000000	0.722853	7.36892e+06	-57389.1	1005.82	-29737.2	0.000000	0.000000	6.723044	-0.024757	NaN	0.000000	0.001650	0.001659	28.0793	0.007580	0.002044	3.708751	90.1289	-165.431	-0.069269	0.721526	-0.300871	-0.302198	-0.024757	3.708751	-0.295865	-4083.22	6.063060E-6	NaN
394	1.000000	0.762855	7.36892e+06	-57389.1	1005.82	-29737.2	0.000000	0.000000	6.763047	9.801481E-5	NaN	0.000000	0.001612	0.001660	28.0791	0.109048	0.001885	57.8441	-172.722	-165.721	0.047053	0.761511	-0.260869	-0.262213	9.801481E-5	57.8441	-0.260870	-1208.52	-8.110343E-8	NaN
394	1.000000	0.802888	7.36892e+06	-57389.1	1005.82	-29737.2	0.000000	0.000000	6.803079	-0.027978	NaN	0.000000	0.001645	0.001654	28.0804	0.102967	0.001970	52.2557	-86.276	-164.743	-0.037678	0.801565	-0.220836	-0.222160	-0.027978	52.2557	-0.220434	-282.236	9.912821E-5	NaN
394	1.000000	0.842848	7.36892e+06	-57389.1	1005.82	-29737.2	0.000000	0.000000	6.843039	-0.029569	NaN	0.000000	0.001605	0.001701	28.0806	0.077043	0.001898	40.5953	-7.737000	-168.98	-0.119467	0.841593	-0.180876	-0.182131	-0.029569	40.5953	-0.180329	-61.8116	0.000478	NaN
394	1.000000	0.882912	7.36892e+06	-57389.1	1005.82	-29737.2	0.000000	0.000000	6.883105	0.016161	NaN	0.000000	0.001640	0.001651	28.0804	0.093566	0.002070	45.2014	-2.281098	-167.927	-0.009199	0.881599	-0.140812	-0.142125	0.016161	45.2014	-0.141080	-12.3943	-0.001304	NaN
394	1.000000	0.922931	7.36892e+06	-57389.1	1005.82	-29737.2	0.000000	0.000000	6.923122	-0.031192	NaN	0.000000	0.001621	0.001706	28.0799	0.108429	0.002100	51.6214	-151.718	-169.2	0.019962	0.921592	-0.100793	-0.102132	-0.031192	51.6214	-0.100340	-1.859091	0.016778	NaN
394	1.000000	0.962891	7.36892e+06	-57389.1	1005.82	-29737.2	0.000000	0.000000	6.963081	-0.067807	NaN	0.000000	0.001627	0.001652	28.0788	0.025301	0.002088	12.1157	106.232	-167.368	-0.030726	0.961581	-0.060833	-0.062143	-0.067807	12.1157	-0.056635	-0.143864	0.471329	NaN
394	1.000000	1.002956	7.36892e+06	-57389.1	1005.82	-29737.2	0.000000	0.000000	7.003148	-0.009803	NaN	0.000000	0.001595	0.001641	28.079	0.070043	0.002057	34.0536	73.123	-164.251	0.071695	1.001653	-0.020768	-0.022071	-0.009803	34.0536	-0.020552	-0.012973	0.755635	NaN
394	2.000000	1.034517	7.36892e+06	-57389.1	1005.82	-29737.2	0.000000	0.000000	7.035211	12.1985	NaN	0.000000	0.001572	0.001666	28.0794	11.2151	0.001790	6265.41	3.339401	-171.508	11.4304	1.034238	0.010793	0.010514	12.1985	6265.41	0.009333	0.008450	1443.64	62273
394	2.000000	1.044459	7.36892e+06	-57389.1	1005.82	-29737.2	0.000000	0.000000	7.045865	29.5028	NaN	0.000000	0.001600	0.001677	28.0808	21.064	0.001847	11405.7	5.871721	-177.354	27.8051	1.044082	0.020735	0.020358	29.5028	11405.7	0.018795	0.020684	1426.37	72457
394	2.000000	1.054478	7.36892e+06	-57389.1	1005.82	-29737.2	0.000000	0.000000	7.056412	42.3378	NaN	0.000000	0.001591	0.001635	28.0807	29.521	0.001906	15487.1	4.376570	-178.52	43.0445	1.054204	0.030754	0.030480	42.3378	15487.1	0.028704	0.038100	1111.23	72490.7
394	2.000000	1.064433	7.36892e+06	-57389.1	1005.82	-29737.2	0.000000	0.000000	7.067342	66.0454	NaN	0.000000	0.001628	0.001732	28.0805	38.7869	0.001898	20432	6.811076	176.862	66.9634	1.064151	0.040709	0.040427	66.0454	20432	0.038284	0.059669	1106.86	76420.2
394	2.000000	1.074480	7.36892e+06	-57389.1	1005.82	-29737.2	0.000000	0.000000	7.078772	99.6472	NaN	0.000000	0.001634	0.001728	28.0791	49.3786	0.002013	24533.3	9.784928	172.791	103.068	1.074118	0.050756	0.050394	99.6472	24533.3	0.047710	0.085466	1165.93	76671.4
394	2.000000	1.084428	7.36892e+06	-57389.1	1005.82	-29737.2	0.000000	0.000000	7.090285	137.69	NaN	0.000000	0.001634	0.001648	28.0793	58.5917	0.001855	31589.8	8.556758	171.287	139.875	1.084127	0.060704	0.060403	137.69	31589.8	0.057435	0.116772	1179.13	84459.9
394	2.000000	1.094379	7.36892e+06	-57389.1	1005.82	-29737.2	0.000000	0.000000	7.102042	181.575	NaN	0.000000	0.001648	0.001675	28.0792	67.1312	0.001759	38163.2	3.472569	174.334	179.337	1.094052	0.070655	0.070328	181.575	38163.2	0.067087	0.152439	1191.13	89303.7
394	2.000000	1.104323	7.36892e+06	-57389.1	1005.82	-29737.2	0.000000	0.000000	7.113827	226.322	NaN	0.000000	0.001616	0.001684	28.0793	74.9734	0.001706	43950.4	0.459902	176.406	223.261	1.104249	0.080599	0.080525	226.322	43950.4	0.076737	0.192567	1175.29	91505.1
394	2.000000	1.114358	7.36892e+06	-57389.1	1005.82	-29737.2	0.000000	0.000000	7.126351	286.824	NaN	0.000000	0.001564	0.001629	28.0805	85.1124	0.001779	47836.7	1.871360	174.524	284.313	1.114046	0.090634	0.090322	286.824	47836.7	0.086137	0.235857	1216.1	89993.3
394	2.000000	1.124390	7.36892e+06	-57389.1	1005.82	-29737.2	0.000000	0.000000	7.138952	349.254	NaN	0.000000	0.001596	0.001724	28.0806	94.9178	0.001870	50766.5	4.955227	171.287	348.369	1.123998	0.100666	0.100274	349.254	50766.5	0.095506	0.283056	1233.87	87179.5
394	2.000000	1.130466	7.36892e+06	-57389.1	1005.82	-29737.2	0.000000	0.000000	7.146300	380.176	NaN	0.000000	0.001553	0.001646	28.0805	99.2645	0.001761	56380.5	6.183475	169.27	385.906	1.130090	0.106742	0.106366	380.176	56380.5	0.101685	0.316378	1201.65	91579.8