Folder: unikorn_login/remote_trans/data/nanoindenter/0828-1/data/Data_2025-08-06,11h17m57s (part 10)

File: 2025-07-22_16-23-58_1_18.txt
2025-07-22, 16:23:58, 1
Index	Phase	Displacement	Time	Pos X	Pos Y	Pos Z	Rot A	Rot B	Piezo Z	Force A	Force B	Gripper	Voltage A	Voltage B	Temperature	Amplitude force	Amplitude pos	Stiffness	Phase shift	Phase excitation	Force A raw	Displacement raw	HMax	HMax raw	Real Force	Real Stiffness	Contact Depth	Area	Hardness	Reduced Mod.
[#]	[#]	[um]	[s]	[um]	[um]	[um]	[m°]	[m°]	[um]	[uN]	[uN]	[V]	[V]	[V]	[°C]	[uN]	[um]	[N/m]	[°]	[°]	[uN]	[um]	[um]	[um]	[uN]	[N/m]	[um]	[um^2]	[MPa]	[MPa]
18	1.000000	0.002570	7.36522e+06	-39539.1	955.818	-29794.1	0.000000	0.000000	6.002795	-0.025430	NaN	0.000000	0.001640	0.001677	28.0832	0.061505	0.000831	73.9923	36.8225	-177.755	0.005778	0.001341	-1.055787	-1.057016	-0.025430	73.9923	-1.055529	-1.266863E+14	2.007357E-16	NaN
18	1.000000	0.042539	7.36522e+06	-39539.1	955.819	-29794.1	0.000000	0.000000	6.042768	0.086106	NaN	0.000000	0.001566	0.001710	28.0821	0.129582	0.002060	62.8944	-73.0683	-166.818	0.073661	0.041228	-1.015818	-1.017129	0.086106	62.8944	-1.016845	-3.823820E+13	-2.251819E-15	NaN
18	1.000000	0.082545	7.36522e+06	-39539.1	955.819	-29794.1	0.000000	0.000000	6.082772	0.022367	NaN	0.000000	0.001550	0.001779	28.0835	0.092319	0.001829	50.4759	169.662	-167.124	0.031855	0.081205	-0.975812	-0.977152	0.022367	50.4759	-0.976144	-1.082576E+13	-2.066049E-15	NaN
18	1.000000	0.122561	7.36522e+06	-39539.1	955.818	-29794.1	0.000000	0.000000	6.122788	0.044485	NaN	0.000000	0.001553	0.001742	28.0828	0.048271	0.001918	25.1722	-142.501	-167.215	0.031773	0.121202	-0.935796	-0.937155	0.044485	25.1722	-0.937122	-3.223326E+12	-1.380095E-14	NaN
18	1.000000	0.162588	7.36522e+06	-39539.1	955.819	-29794.1	0.000000	0.000000	6.162818	0.116979	NaN	0.000000	0.001554	0.001707	28.0818	0.034501	0.001977	17.4491	34.856	-166.012	0.060508	0.161278	-0.895769	-0.897079	0.116979	17.4491	-0.900797	-1.041935E+12	-1.122710E-13	NaN
18	1.000000	0.202610	7.36522e+06	-39539.1	955.818	-29794.1	0.000000	0.000000	6.202836	0.021053	NaN	0.000000	0.001542	0.001741	28.08	0.127080	0.001917	66.2808	-35.163	-164.922	0.064005	0.201285	-0.855747	-0.857072	0.021053	66.2808	-0.855986	-2.580955E+11	-8.157054E-14	NaN
18	1.000000	0.242632	7.36522e+06	-39539.1	955.818	-29794.1	0.000000	0.000000	6.242860	0.066235	NaN	0.000000	0.001521	0.001761	28.081	0.096609	0.002068	46.7237	-97.3392	-165.031	0.091174	0.241294	-0.815725	-0.817063	0.066235	46.7237	-0.816789	-7.597278E+10	-8.718293E-13	NaN
18	1.000000	0.282635	7.36522e+06	-39539.1	955.819	-29794.1	0.000000	0.000000	6.282860	-0.001064	NaN	0.000000	0.001561	0.001775	28.0802	0.065471	0.002150	30.4564	94.8586	-163.949	-0.050715	0.281296	-0.775722	-0.777061	-0.001064	30.4564	-0.775696	-2.102494E+10	5.059271E-14	NaN
18	1.000000	0.322646	7.36522e+06	-39539.1	955.818	-29794.1	0.000000	0.000000	6.322872	-0.003374	NaN	0.000000	0.001544	0.001754	28.0834	0.027110	0.002117	12.8076	102.978	-168.948	-0.026687	0.321341	-0.735710	-0.737015	-0.003374	12.8076	-0.735513	-5.969402E+9	5.651658E-13	NaN
18	1.000000	0.362650	7.36522e+06	-39539.1	955.818	-29794.1	0.000000	0.000000	6.362878	0.065081	NaN	0.000000	0.001530	0.001778	28.0814	0.052155	0.001989	26.2231	-140.399	-166.072	0.097664	0.361341	-0.695707	-0.697016	0.065081	26.2231	-0.697568	-1.812673E+9	-3.590338E-11	NaN
18	1.000000	0.402653	7.36522e+06	-39539.1	955.819	-29794.1	0.000000	0.000000	6.402880	0.031727	NaN	0.000000	0.001514	0.001740	28.0839	0.029510	0.002067	14.275	-79.5211	-166.326	0.057689	0.401365	-0.655704	-0.656992	0.031727	14.275	-0.657371	-5.110335E+8	-6.208393E-11	NaN
18	1.000000	0.442666	7.36522e+06	-39539.1	955.819	-29794.1	0.000000	0.000000	6.442894	0.055849	NaN	0.000000	0.001503	0.001733	28.0816	0.155284	0.002107	73.686	-18.6837	-166.385	0.049288	0.441406	-0.615691	-0.616951	0.055849	73.686	-0.616259	-1.393821E+8	-4.006874E-10	NaN
18	1.000000	0.482716	7.36522e+06	-39539.1	955.818	-29794.1	0.000000	0.000000	6.482944	0.059711	NaN	0.000000	0.001548	0.001697	28.0816	0.043097	0.001988	21.6778	154.505	-164.466	-0.019603	0.481351	-0.575641	-0.577005	0.059711	21.6778	-0.577707	-4.102704E+7	-1.455418E-9	NaN
18	1.000000	0.522692	7.36522e+06	-39539.1	955.819	-29794.1	0.000000	0.000000	6.522922	0.112216	NaN	0.000000	0.001523	0.001644	28.0811	0.074455	0.001966	37.8695	21.9746	-163.127	0.178597	0.521382	-0.535665	-0.536975	0.112216	37.8695	-0.537887	-1.153593E+7	-9.727519E-9	NaN
18	1.000000	0.562761	7.36522e+06	-39539.1	955.818	-29794.1	0.000000	0.000000	6.562987	0.024797	NaN	0.000000	0.001537	0.001660	28.0824	0.113921	0.002067	55.1039	-165.72	-166.71	0.048505	0.561485	-0.495596	-0.496872	0.024797	55.1039	-0.495933	-3.00792e+06	-8.243812E-9	NaN
18	1.000000	0.602772	7.36522e+06	-39539.1	955.818	-29794.1	0.000000	0.000000	6.602998	-0.002737	NaN	0.000000	0.001553	0.001658	28.0825	0.106752	0.001989	53.6627	-40.0067	-165.183	0.027157	0.601468	-0.455585	-0.456889	-0.002737	53.6627	-0.455546	-817340	3.349086E-9	NaN
18	1.000000	0.642796	7.36522e+06	-39539.1	955.819	-29794.1	0.000000	0.000000	6.643025	0.078017	NaN	0.000000	0.001591	0.001677	28.0831	0.063911	0.001944	32.8828	-179.041	-169.922	0.059866	0.641445	-0.415561	-0.416912	0.078017	32.8828	-0.417340	-235875	-3.307556E-7	NaN
18	1.000000	0.682785	7.36522e+06	-39539.1	955.818	-29794.1	0.000000	0.000000	6.683011	0.011273	NaN	0.000000	0.001566	0.001679	28.0827	0.090177	0.001987	45.3811	75.0245	-166.784	0.077455	0.681449	-0.375572	-0.376908	0.011273	45.3811	-0.375758	-60112.8	-1.875341E-7	NaN
18	1.000000	0.722792	7.36522e+06	-39539.1	955.818	-29794.2	0.000000	0.000000	6.723020	0.065217	NaN	0.000000	0.001557	0.001662	28.0825	0.082658	0.002110	39.1705	37.5535	-167.203	-0.034342	0.721535	-0.335565	-0.336822	0.065217	39.1705	-0.336813	-16408.6	-3.974543E-6	NaN
18	1.000000	0.762831	7.36522e+06	-39539.1	955.819	-29794.2	0.000000	0.000000	6.763056	-0.003989	NaN	0.000000	0.001541	0.001673	28.0813	0.068798	0.001971	34.9002	-24.3603	-165.22	0.013818	0.761492	-0.295526	-0.296865	-0.003989	34.9002	-0.295441	-4024.09	9.912321E-7	NaN
18	1.000000	0.802828	7.36522e+06	-39539.1	955.819	-29794.2	0.000000	0.000000	6.803057	0.083554	NaN	0.000000	0.001531	0.001701	28.0833	0.029960	0.001977	15.1541	-0.661773	-165.982	0.113324	0.801509	-0.255529	-0.256848	0.083554	15.1541	-0.259664	-1158.15	-7.214402E-5	NaN
18	1.000000	0.842885	7.36522e+06	-39539.1	955.819	-29794.2	0.000000	0.000000	6.843114	0.080868	NaN	0.000000	0.001531	0.001629	28.0794	0.090713	0.002054	44.1677	44.3837	-167.021	0.091470	0.841552	-0.215471	-0.216805	0.080868	44.1677	-0.216845	-247.257	-0.000327	NaN
18	1.000000	0.882889	7.36522e+06	-39539.1	955.818	-29794.2	0.000000	0.000000	6.883117	0.059940	NaN	0.000000	0.001541	0.001671	28.0837	0.064996	0.002109	30.8121	-157.507	-169.641	0.045877	0.881525	-0.175468	-0.176832	0.059940	30.8121	-0.176927	-54.0787	-0.001108	NaN
18	1.000000	0.922867	7.36522e+06	-39539.1	955.818	-29794.2	0.000000	0.000000	6.923097	0.098576	NaN	0.000000	0.001579	0.001674	28.0827	0.082925	0.001962	42.2578	-13.342	-167.184	0.093996	0.921598	-0.135490	-0.136759	0.098576	42.2578	-0.137239	-10.4925	-0.009395	NaN
18	1.000000	0.962927	7.36522e+06	-39539.1	955.82	-29794.2	0.000000	0.000000	6.963152	-0.008790	NaN	0.000000	0.001603	0.001648	28.0837	0.137823	0.002000	68.8967	-52.6261	-167.858	0.046622	0.961610	-0.095430	-0.096747	-0.008790	68.8967	-0.095335	-1.435600	0.006123	NaN
18	1.000000	1.002943	7.36522e+06	-39539.1	955.82	-29794.2	0.000000	0.000000	7.003171	0.049850	NaN	0.000000	0.001572	0.001651	28.081	0.086371	0.001983	43.5645	-100.377	-164.154	0.001554	1.001619	-0.055414	-0.056738	0.049850	43.5645	-0.056272	-0.140380	-0.355111	NaN
18	1.000000	1.042938	7.36522e+06	-39539.1	955.819	-29794.2	0.000000	0.000000	7.043165	0.045839	NaN	0.000000	0.001558	0.001652	28.0826	0.026877	0.002005	13.405	18.2378	-166.963	0.081197	1.041622	-0.015419	-0.016735	0.045839	13.405	-0.017984	-0.011152	-4.110500	NaN
18	2.000000	1.072468	7.36522e+06	-39539.1	955.818	-29794.2	0.000000	0.000000	7.073349	15.9656	NaN	0.000000	0.001584	0.001614	28.0817	13.4374	0.001676	8015.37	7.309993	-176.598	15.2575	1.072150	0.014111	0.013793	15.9656	8015.37	0.012617	0.012238	1304.64	66198.8
18	2.000000	1.082406	7.36522e+06	-39539.1	955.819	-29794.2	0.000000	0.000000	7.084207	38.3339	NaN	0.000000	0.001592	0.001650	28.0825	24.7524	0.001755	14100.3	4.936129	-179.116	37.4613	1.082070	0.024049	0.023713	38.3339	14100.3	0.022010	0.025800	1485.8	80202.9
18	2.000000	1.092374	7.36522e+06	-39539.1	955.818	-29794.2	0.000000	0.000000	7.095603	73.0885	NaN	0.000000	0.001587	0.001641	28.0832	35.633	0.001924	18519.7	3.363343	-179.756	71.7203	1.092104	0.034017	0.033747	73.0885	18519.7	0.031057	0.042963	1701.18	81631.4
18	2.000000	1.102341	7.36522e+06	-39539.1	955.82	-29794.2	0.000000	0.000000	7.107258	114.159	NaN	0.000000	0.001609	0.001619	28.0838	44.7107	0.001844	24242.4	5.452271	175.17	111.406	1.102049	0.043984	0.043692	114.159	24242.4	0.040453	0.065203	1750.83	86739.1
18	2.000000	1.112361	7.36522e+06	-39539.1	955.819	-29794.2	0.000000	0.000000	7.119468	167.458	NaN	0.000000	0.001553	0.001681	28.0834	54.9447	0.001769	31067.8	5.396764	173.841	167.87	1.112074	0.054004	0.053717	167.458	31067.8	0.049962	0.092295	1814.38	93432
18	2.000000	1.122323	7.36522e+06	-39539.1	955.819	-29794.2	0.000000	0.000000	7.132112	232.728	NaN	0.000000	0.001540	0.001665	28.0832	65.6432	0.001815	36161.1	5.164168	173.002	232.378	1.122053	0.063966	0.063696	232.728	36161.1	0.059139	0.122740	1896.1	94302.1
18	2.000000	1.132306	7.36522e+06	-39539.1	955.82	-29794.2	0.000000	0.000000	7.144968	302.629	NaN	0.000000	0.001516	0.001699	28.0803	76.3762	0.001919	39806.6	7.523306	170.168	300.285	1.132028	0.073950	0.073671	302.629	39806.6	0.068248	0.157033	1927.17	91776.9
18	2.000000	1.142233	7.36522e+06	-39539.1	955.819	-29794.2	0.000000	0.000000	7.157973	377.56	NaN	0.000000	0.001529	0.001628	28.084	84.6393	0.001796	47135.8	-0.287900	176.46	373.163	1.142180	0.083876	0.083823	377.56	47135.8	0.077868	0.197559	1911.13	96889.4
18	2.000000	1.152227	7.36522e+06	-39539.1	955.82	-29794.2	0.000000	0.000000	7.171772	470.134	NaN	0.000000	0.001545	0.001629	28.0835	95.8986	0.001759	54523.9	1.341772	173.765	464.405	1.152051	0.093870	0.093694	470.134	54523.9	0.087403	0.241998	1942.71	101264
18	2.000000	1.162246	7.36522e+06	-39539.1	955.819	-29794.2	0.000000	0.000000	7.186768	591.243	NaN	0.000000	0.001551	0.001662	28.0839	106.823	0.001875	56960.2	8.742895	166.569	587.948	1.161783	0.103889	0.103426	591.243	56960.2	0.096104	0.286205	2065.8	97276
18	2.000000	1.167239	7.36522e+06	-39539.1	955.819	-29794.2	0.000000	0.000000	7.194310	653.271	NaN	0.000000	0.001546	0.001596	28.1319	110.669	0.001751	63203.5	6.475721	168.489	650.236	1.166895	0.108882	0.108538	653.271	63203.5	0.101130	0.313317	2085.02	103163

File: 2025-07-22_16-23-58_1_19.txt
2025-07-22, 16:23:58, 1
Index	Phase	Displacement	Time	Pos X	Pos Y	Pos Z	Rot A	Rot B	Piezo Z	Force A	Force B	Gripper	Voltage A	Voltage B	Temperature	Amplitude force	Amplitude pos	Stiffness	Phase shift	Phase excitation	Force A raw	Displacement raw	HMax	HMax raw	Real Force	Real Stiffness	Contact Depth	Area	Hardness	Reduced Mod.
[#]	[#]	[um]	[s]	[um]	[um]	[um]	[m°]	[m°]	[um]	[uN]	[uN]	[V]	[V]	[V]	[°C]	[uN]	[um]	[N/m]	[°]	[°]	[uN]	[um]	[um]	[um]	[uN]	[N/m]	[um]	[um^2]	[MPa]	[MPa]
19	1.000000	0.003147	7.36523e+06	-39589.1	955.818	-29794	0.000000	0.000000	6.002815	0.005402	NaN	0.000000	0.001595	0.001643	28.127	0.104001	0.000961	108.208	19.1401	-164.375	0.039066	0.001825	-1.056577	-1.057898	0.005402	108.208	-1.056614	-1.310134E+14	-4.123422E-17	NaN
19	1.000000	0.043076	7.36523e+06	-39589.1	955.818	-29794	0.000000	0.000000	6.042743	-0.000647	NaN	0.000000	0.001655	0.001658	28.1284	0.027930	0.001995	14.0024	100.266	-168.811	-0.024660	0.041709	-1.016648	-1.018015	-0.000647	14.0024	-1.016613	-3.796481E+13	1.703980E-17	NaN
19	1.000000	0.083085	7.36523e+06	-39589.1	955.818	-29794	0.000000	0.000000	6.082756	0.078526	NaN	0.000000	0.001670	0.001652	28.1282	0.012683	0.002015	6.293558	32.4493	-166.193	0.073993	0.081774	-0.976639	-0.977950	0.078526	6.293558	-0.985997	-1.469582E+13	-5.343402E-15	NaN
19	1.000000	0.123112	7.36523e+06	-39589.1	955.819	-29794	0.000000	0.000000	6.122780	-0.013037	NaN	0.000000	0.001589	0.001663	28.129	0.170107	0.001956	86.9696	176.573	-166.95	0.020678	0.121831	-0.936611	-0.937893	-0.013037	86.9696	-0.936499	-3.161513E+12	4.123658E-15	NaN
19	1.000000	0.163128	7.36523e+06	-39589.1	955.819	-29794	0.000000	0.000000	6.162798	0.042840	NaN	0.000000	0.001555	0.001678	28.1276	0.103791	0.002111	49.1699	-87.8777	-166.478	0.000224	0.161822	-0.896595	-0.897902	0.042840	49.1699	-0.897249	-9.330171E+11	-4.591602E-14	NaN
19	1.000000	0.203121	7.36523e+06	-39589.1	955.818	-29794	0.000000	0.000000	6.202792	0.090661	NaN	0.000000	0.001599	0.001677	28.1269	0.118514	0.002031	58.3558	11.1965	-164.73	0.067253	0.201871	-0.856603	-0.857853	0.090661	58.3558	-0.857768	-2.728399E+11	-3.322868E-13	NaN
19	1.000000	0.243173	7.36523e+06	-39589.1	955.819	-29794	0.000000	0.000000	6.242842	0.027216	NaN	0.000000	0.001536	0.001674	28.1258	0.069225	0.002026	34.1734	-172.281	-165.198	0.053603	0.241891	-0.816551	-0.817833	0.027216	34.1734	-0.817148	-7.683054E+10	-3.542394E-13	NaN
19	1.000000	0.283204	7.36523e+06	-39589.1	955.818	-29794	0.000000	0.000000	6.282872	-0.000551	NaN	0.000000	0.001559	0.001639	28.1268	0.121033	0.001944	62.2715	150.078	-164.117	0.070955	0.281819	-0.776519	-0.777904	-0.000551	62.2715	-0.776513	-2.156942E+10	2.555355E-14	NaN
19	1.000000	0.323207	7.36523e+06	-39589.1	955.819	-29794	0.000000	0.000000	6.322875	-0.003740	NaN	0.000000	0.001606	0.001640	28.1257	0.036540	0.001972	18.5268	142.899	-165.326	-0.028536	0.321893	-0.736516	-0.737831	-0.003740	18.5268	-0.736365	-6.131077E+9	6.100239E-13	NaN
19	1.000000	0.363195	7.36523e+06	-39589.1	955.818	-29794	0.000000	0.000000	6.362864	0.027871	NaN	0.000000	0.001611	0.001675	28.1284	0.051603	0.001939	26.6141	7.586275	-166.411	0.012700	0.361910	-0.696529	-0.697814	0.027871	26.6141	-0.697314	-1.798249E+9	-1.549883E-11	NaN
19	1.000000	0.403248	7.36523e+06	-39589.1	955.819	-29794	0.000000	0.000000	6.402917	0.031214	NaN	0.000000	0.001596	0.001666	28.1266	0.083138	0.002086	39.8586	26.789	-165.624	0.040580	0.401942	-0.656476	-0.657782	0.031214	39.8586	-0.657063	-5.060977E+8	-6.167509E-11	NaN
19	1.000000	0.443246	7.36523e+06	-39589.1	955.819	-29794	0.000000	0.000000	6.442914	0.021867	NaN	0.000000	0.001542	0.001647	28.1276	0.037465	0.001987	18.854	18.1621	-167.028	0.073269	0.441943	-0.616478	-0.617781	0.021867	18.854	-0.617348	-1.442692E+8	-1.515723E-10	NaN
19	1.000000	0.483269	7.36523e+06	-39589.1	955.818	-29794	0.000000	0.000000	6.482940	0.072326	NaN	0.000000	0.001546	0.001599	28.1249	0.036402	0.002105	17.2943	-97.2025	-165.323	-0.020533	0.481972	-0.576454	-0.577751	0.072326	17.2943	-0.579591	-4.355895E+7	-1.660428E-9	NaN
19	1.000000	0.523294	7.36523e+06	-39589.1	955.817	-29794	0.000000	0.000000	6.522962	-0.012070	NaN	0.000000	0.001606	0.001691	28.1256	0.131263	0.001912	68.6614	173.207	-167.052	0.074832	0.521958	-0.536429	-0.537766	-0.012070	68.6614	-0.536297	-1.096459E+7	1.100776E-9	NaN
19	1.000000	0.563298	7.36523e+06	-39589.1	955.819	-29794	0.000000	0.000000	6.562968	0.039336	NaN	0.000000	0.001640	0.001675	28.1246	0.024298	0.001910	12.7245	154.202	-168.705	0.095449	0.561964	-0.496425	-0.497760	0.039336	12.7245	-0.498744	-3.29221e+06	-1.194817E-8	NaN
19	1.000000	0.603304	7.36523e+06	-39589.1	955.819	-29794	0.000000	0.000000	6.602972	0.000272	NaN	0.000000	0.001594	0.001698	28.1259	0.136392	0.002035	67.0095	140.972	-167.158	-0.011656	0.602011	-0.456419	-0.457712	0.000272	67.0095	-0.456422	-840862	-3.235313E-10	NaN
19	1.000000	0.643355	7.36523e+06	-39589.1	955.818	-29794	0.000000	0.000000	6.643021	-0.045369	NaN	0.000000	0.001607	0.001643	28.1261	0.104288	0.002096	49.7626	123.874	-166.889	0.038648	0.642034	-0.416369	-0.417690	-0.045369	49.7626	-0.415685	-223451	2.030396E-7	NaN
19	1.000000	0.683343	7.36523e+06	-39589.1	955.819	-29794	0.000000	0.000000	6.683012	0.033876	NaN	0.000000	0.001581	0.001662	28.1266	0.122415	0.001946	62.9155	65.4526	-164.307	-0.035991	0.682036	-0.376381	-0.377688	0.033876	62.9155	-0.376784	-62189.3	-5.447223E-7	NaN
19	1.000000	0.723353	7.36523e+06	-39589.1	955.819	-29794	0.000000	0.000000	6.723019	-0.043127	NaN	0.000000	0.001590	0.001656	28.1254	0.069803	0.002048	34.0788	-43.8059	-166.551	-0.106702	0.722080	-0.336370	-0.337643	-0.043127	34.0788	-0.335421	-15658.1	2.754295E-6	NaN
19	1.000000	0.763410	7.36523e+06	-39589.1	955.819	-29794	0.000000	0.000000	6.763079	0.022874	NaN	0.000000	0.001572	0.001641	28.1256	0.103441	0.002094	49.4087	-56.5461	-165.94	0.030829	0.762084	-0.296313	-0.297639	0.022874	49.4087	-0.296661	-4196.37	-5.450902E-6	NaN
19	1.000000	0.803397	7.36523e+06	-39589.1	955.819	-29794	0.000000	0.000000	6.803066	0.027212	NaN	0.000000	0.001598	0.001698	28.1238	0.072421	0.001889	38.3353	73.471	-167.045	-0.028081	0.802098	-0.256326	-0.257626	0.027212	38.3353	-0.256859	-1048.82	-2.594538E-5	NaN
19	1.000000	0.843422	7.36523e+06	-39589.1	955.818	-29794	0.000000	0.000000	6.843091	0.020597	NaN	0.000000	0.001582	0.001674	28.1241	0.116660	0.002039	57.2198	71.3547	-164.719	0.042003	0.842080	-0.216301	-0.217644	0.020597	57.2198	-0.216571	-244.771	-8.414911E-5	NaN
19	1.000000	0.883433	7.36523e+06	-39589.1	955.818	-29794	0.000000	0.000000	6.883104	0.071826	NaN	0.000000	0.001562	0.001677	28.125	0.038941	0.002030	19.1805	163.802	-168.921	0.059914	0.882114	-0.176290	-0.177610	0.071826	19.1805	-0.179099	-58.9005	-0.001219	NaN
19	1.000000	0.923437	7.36523e+06	-39589.1	955.819	-29794	0.000000	0.000000	6.923108	0.062064	NaN	0.000000	0.001535	0.001695	28.1259	0.100863	0.002037	49.524	-2.227355	-169.783	0.085075	0.922193	-0.136286	-0.137530	0.062064	49.524	-0.137226	-10.4865	-0.005918	NaN
19	1.000000	0.963458	7.36523e+06	-39589.1	955.818	-29794	0.000000	0.000000	6.963126	0.001939	NaN	0.000000	0.001506	0.001679	28.1245	0.042835	0.002014	21.2685	57.7677	-167.305	-0.002985	0.962165	-0.096265	-0.097559	0.001939	21.2685	-0.096334	-1.512476	-0.001282	NaN
19	1.000000	1.003487	7.36523e+06	-39589.1	955.817	-29794	0.000000	0.000000	7.003158	0.080512	NaN	0.000000	0.001544	0.001639	28.1256	0.053199	0.001981	26.8569	-65.0355	-161.802	0.084691	1.002149	-0.056237	-0.057574	0.080512	26.8569	-0.058485	-0.162865	-0.494352	NaN
19	1.000000	1.043473	7.36523e+06	-39589.1	955.819	-29794	0.000000	0.000000	7.043141	0.004966	NaN	0.000000	0.001555	0.001593	28.1231	0.127375	0.002050	62.1214	-150.588	-168.632	0.002073	1.042212	-0.016251	-0.017512	0.004966	62.1214	-0.016311	-0.010076	-0.492896	NaN
19	2.000000	1.080130	7.36523e+06	-39589.1	955.819	-29794	0.000000	0.000000	7.080175	9.181550	NaN	0.000000	0.001588	0.001649	28.124	7.355251	0.001761	4175.78	9.993702	-175.238	9.427895	1.079784	0.020407	0.020060	9.181550	4175.78	0.018758	0.020627	445.113	26563.7
19	2.000000	1.090047	7.36523e+06	-39589.1	955.818	-29794	0.000000	0.000000	7.090473	18.4547	NaN	0.000000	0.001529	0.001637	28.1227	15.2189	0.001960	7765.12	7.447241	-175.762	18.9555	1.089742	0.030323	0.030019	18.4547	7765.12	0.028541	0.037774	488.556	36502.7
19	2.000000	1.100046	7.36523e+06	-39589.1	955.82	-29794	0.000000	0.000000	7.101196	36.0499	NaN	0.000000	0.001565	0.001634	28.1249	25.5936	0.001770	14460.4	7.514074	178.426	39.1914	1.099688	0.040323	0.039965	36.0499	14460.4	0.038453	0.060092	599.91	53894.6
19	2.000000	1.109995	7.36523e+06	-39589.1	955.82	-29794	0.000000	0.000000	7.112106	59.453	NaN	0.000000	0.001622	0.001647	28.1235	35.1551	0.001845	19052.1	4.476977	177.599	58.7585	1.109619	0.050271	0.049896	59.453	19052.1	0.047931	0.086125	690.311	59313.1
19	2.000000	1.119960	7.36523e+06	-39589.1	955.819	-29794	0.000000	0.000000	7.123661	98.1335	NaN	0.000000	0.001607	0.001636	28.1244	44.3756	0.001780	24923.7	5.758393	175.103	97.5018	1.119698	0.060237	0.059975	98.1335	24923.7	0.057284	0.116248	844.172	66787
19	2.000000	1.130034	7.36523e+06	-39589.1	955.819	-29794	0.000000	0.000000	7.135620	144.031	NaN	0.000000	0.001645	0.001657	28.1231	53.7138	0.001829	29362.3	6.474285	173.214	147.765	1.129604	0.070310	0.069881	144.031	29362.3	0.066631	0.150654	956.034	69115.1
19	2.000000	1.139958	7.36523e+06	-39589.1	955.818	-29794	0.000000	0.000000	7.147678	195.95	NaN	0.000000	0.001535	0.001646	28.1227	62.2119	0.001750	35558.5	4.895749	172.5	196.344	1.139631	0.080235	0.079907	195.95	35558.5	0.076102	0.189791	1032.45	74572.5
19	2.000000	1.149947	7.36523e+06	-39589.1	955.819	-29794	0.000000	0.000000	7.160330	260.76	NaN	0.000000	0.001537	0.001634	28.1212	72.7901	0.001893	38443.7	7.574741	170	259.564	1.149695	0.090224	0.089971	260.76	38443.7	0.085136	0.231053	1128.57	73070.6
19	2.000000	1.159971	7.36523e+06	-39589.1	955.819	-29794	0.000000	0.000000	7.173100	327.557	NaN	0.000000	0.001585	0.001664	28.1221	82.4403	0.001864	44216.9	3.593533	172.621	328.285	1.159681	0.100248	0.099957	327.557	44216.9	0.094692	0.278794	1174.91	76510.2
19	2.000000	1.169949	7.36523e+06	-39589.1	955.819	-29794	0.000000	0.000000	7.185951	397.483	NaN	0.000000	0.001560	0.001654	28.1225	90.4775	0.001825	49564	1.850874	173.384	397.925	1.169845	0.110226	0.110121	397.483	49564	0.104211	0.330500	1202.67	78768.8
19	2.000000	1.177386	7.36523e+06	-39589.1	955.819	-29794	0.000000	0.000000	7.196623	476.221	NaN	0.000000	0.001535	0.001656	28.0849	95.7645	0.001697	56437.8	2.129820	-7.429826	474.152	1.177065	0.117662	0.117342	476.221	56437.8	0.111334	0.371880	1280.57	84555.5