Folder: unikorn_login/remote_trans/data/nanoindenter/0828-1/data/Data_2025-08-06,11h17m57s

File: 2025-07-22_16-19-15_0_0.txt
2025-07-22, 16:19:15, 0
Index	Phase	Displacement	Time	Pos X	Pos Y	Pos Z	Rot A	Rot B	Piezo Z	Force A	Force B	Gripper	Voltage A	Voltage B	Temperature	Amplitude force	Amplitude pos	Stiffness	Phase shift	Phase excitation	Force A raw	Displacement raw	HMax	HMax raw	Real Force	Real Stiffness	Contact Depth	Area	Hardness	Reduced Mod.
[#]	[#]	[um]	[s]	[um]	[um]	[um]	[m°]	[m°]	[um]	[uN]	[uN]	[V]	[V]	[V]	[°C]	[uN]	[um]	[N/m]	[°]	[°]	[uN]	[um]	[um]	[um]	[uN]	[N/m]	[um]	[um^2]	[MPa]	[MPa]
0.000000	1.000000	0.002483	7.36476e+06	-39509.6	587.333	-29794.3	0.000000	0.000000	6.002622	0.074291	NaN	0.000000	0.001591	0.001591	28.0837	0.150121	0.000861	174.326	-135.356	-163.178	-0.012680	0.001200	-1.147693	-1.148976	0.074291	174.326	-1.148012	-2.208868E+15	-3.363301E-17	NaN
0.000000	1.000000	0.046498	7.36476e+06	-39509.6	587.333	-29794.3	0.000000	0.000000	6.046632	-0.051521	NaN	0.000000	0.001646	0.001648	28.1271	0.161947	0.002023	80.0375	57.9691	-169.208	-0.052548	0.045175	-1.103678	-1.105000	-0.051521	80.0375	-1.103195	-5.532985E+14	9.311589E-17	NaN
0.000000	1.000000	0.090584	7.36476e+06	-39509.6	587.333	-29794.3	0.000000	0.000000	6.090721	0.011398	NaN	0.000000	0.001577	0.001679	28.0818	0.061555	0.002030	30.3192	-176.22	-165.312	-0.041844	0.089267	-1.059592	-1.060909	0.011398	30.3192	-1.059874	-1.449176E+14	-7.864893E-17	NaN
0.000000	1.000000	0.134641	7.36476e+06	-39509.6	587.332	-29794.3	0.000000	0.000000	6.134775	-0.059775	NaN	0.000000	0.001661	0.001695	28.125	0.106869	0.002045	52.2463	36.7991	-166.513	-0.014294	0.133284	-1.015535	-1.016892	-0.059775	52.2463	-1.014677	-3.575388E+13	1.671837E-15	NaN
0.000000	1.000000	0.178677	7.36476e+06	-39509.6	587.333	-29794.3	0.000000	0.000000	6.178812	-0.019991	NaN	0.000000	0.001667	0.001666	28.0804	0.082036	0.002084	39.3561	-8.096763	-165.033	-0.021976	0.177363	-0.971499	-0.972813	-0.019991	39.3561	-0.971118	-9.262622E+12	2.158277E-15	NaN
0.000000	1.000000	0.222693	7.36476e+06	-39509.6	587.333	-29794.3	0.000000	0.000000	6.222831	0.054321	NaN	0.000000	0.001634	0.001681	28.1268	0.144513	0.001980	72.9932	-85.3751	-166.236	-0.032737	0.221400	-0.927483	-0.928776	0.054321	72.9932	-0.928041	-2.430838E+12	-2.234665E-14	NaN
0.000000	1.000000	0.266719	7.36476e+06	-39509.6	587.333	-29794.3	0.000000	0.000000	6.266854	-0.034829	NaN	0.000000	0.001634	0.001696	28.0844	0.124203	0.001996	62.2294	-102.015	-165.814	-0.071174	0.265424	-0.883457	-0.884752	-0.034829	62.2294	-0.883037	-5.994789E+11	5.809943E-14	NaN
0.000000	1.000000	0.310735	7.36476e+06	-39509.6	587.333	-29794.3	0.000000	0.000000	6.310872	0.036112	NaN	0.000000	0.001581	0.001680	28.1261	0.075124	0.002052	36.6058	-73.2819	-166.018	0.001742	0.309453	-0.839441	-0.840723	0.036112	36.6058	-0.840181	-1.576679E+11	-2.290386E-13	NaN
0.000000	1.000000	0.354748	7.36476e+06	-39509.6	587.332	-29794.3	0.000000	0.000000	6.354883	-0.019381	NaN	0.000000	0.001553	0.001689	28.0832	0.068073	0.001972	34.5122	167.951	-163.38	-0.000446	0.353455	-0.795428	-0.796721	-0.019381	34.5122	-0.795007	-3.846551E+10	5.038582E-13	NaN
0.000000	1.000000	0.398755	7.36476e+06	-39509.6	587.33	-29794.3	0.000000	0.000000	6.398893	0.055459	NaN	0.000000	0.001628	0.001665	28.1258	0.091423	0.001926	47.4681	142.754	-168.648	0.100322	0.397445	-0.751421	-0.752731	0.055459	47.4681	-0.752297	-1.010394E+10	-5.488817E-12	NaN
0.000000	1.000000	0.442774	7.36476e+06	-39509.6	587.331	-29794.3	0.000000	0.000000	6.442908	-0.051505	NaN	0.000000	0.001693	0.001675	28.0791	0.114811	0.001980	57.9896	-118.951	-165.49	0.036117	0.441516	-0.707402	-0.708660	-0.051505	57.9896	-0.706736	-2.418242E+9	2.129862E-11	NaN
0.000000	1.000000	0.486815	7.36476e+06	-39509.6	587.331	-29794.3	0.000000	0.000000	6.486954	0.068381	NaN	0.000000	0.001688	0.001714	28.1248	0.057062	0.001887	30.2362	27.4091	-164.524	0.069579	0.485536	-0.663361	-0.664640	0.068381	30.2362	-0.665057	-6.512099E+8	-1.050067E-10	NaN
0.000000	1.000000	0.530827	7.36476e+06	-39509.6	587.331	-29794.3	0.000000	0.000000	6.530966	0.058515	NaN	0.000000	0.001714	0.001720	28.0805	0.093611	0.001972	47.4683	-88.5789	-163.388	0.111492	0.529467	-0.619349	-0.620709	0.058515	47.4683	-0.620273	-1.582661E+8	-3.697268E-10	NaN
0.000000	1.000000	0.574863	7.36476e+06	-39509.6	587.332	-29794.3	0.000000	0.000000	6.574997	-0.053404	NaN	0.000000	0.001686	0.001683	28.1257	0.043374	0.001872	23.1753	-13.7464	-165.386	-0.004495	0.573509	-0.575313	-0.576667	-0.053404	23.1753	-0.573585	-3.598789E+7	1.483947E-9	NaN
0.000000	1.000000	0.618887	7.36476e+06	-39509.6	587.331	-29794.3	0.000000	0.000000	6.619023	-0.012754	NaN	0.000000	0.001709	0.001719	28.0811	0.143788	0.002048	70.2126	-157.781	-164.446	0.076555	0.617566	-0.531288	-0.532610	-0.012754	70.2126	-0.531152	-9.30198e+06	1.371136E-9	NaN
0.000000	1.000000	0.662889	7.36476e+06	-39509.6	587.332	-29794.3	0.000000	0.000000	6.663028	0.074247	NaN	0.000000	0.001642	0.001695	28.1257	0.067183	0.001957	34.3285	-91.248	-166.574	0.036833	0.661602	-0.487287	-0.488573	0.074247	34.3285	-0.488909	-2.39962e+06	-3.094104E-8	NaN
0.000000	1.000000	0.706903	7.36476e+06	-39509.6	587.331	-29794.3	0.000000	0.000000	6.707038	-0.026730	NaN	0.000000	0.001658	0.001744	28.0796	0.056877	0.001899	29.9447	21.1429	-165.453	0.062561	0.705638	-0.443273	-0.444538	-0.026730	29.9447	-0.442603	-537148	4.976193E-8	NaN
0.000000	1.000000	0.750906	7.36476e+06	-39509.6	587.332	-29794.3	0.000000	0.000000	6.751045	0.075000	NaN	0.000000	0.001653	0.001669	28.124	0.084604	0.001834	46.137	-116.576	-168.126	0.004062	0.749588	-0.399270	-0.400587	0.075000	46.137	-0.400489	-135823	-5.521884E-7	NaN
0.000000	1.000000	0.794945	7.36476e+06	-39509.6	587.331	-29794.3	0.000000	0.000000	6.795083	0.042655	NaN	0.000000	0.001579	0.001708	28.0807	0.055858	0.001979	28.2307	-88.9677	-166.883	0.108957	0.793632	-0.355231	-0.356544	0.042655	28.2307	-0.356364	-31568	-1.351193E-6	NaN
0.000000	1.000000	0.838953	7.36476e+06	-39509.6	587.331	-29794.3	0.000000	0.000000	6.839092	0.080581	NaN	0.000000	0.001618	0.001669	28.1238	0.104311	0.002081	50.1178	-170.366	-165.816	0.015476	0.837636	-0.311223	-0.312540	0.080581	50.1178	-0.312429	-7194.07	-1.120102E-5	NaN
0.000000	1.000000	0.883003	7.36476e+06	-39509.6	587.331	-29794.3	0.000000	0.000000	6.883145	0.137179	NaN	0.000000	0.001570	0.001704	28.0824	0.033183	0.002095	15.8354	48.8365	-164.486	0.055779	0.881682	-0.267172	-0.268494	0.137179	15.8354	-0.273669	-1893.4	-7.245125E-5	NaN
0.000000	1.000000	0.927007	7.36476e+06	-39509.6	587.331	-29794.3	0.000000	0.000000	6.927146	0.073976	NaN	0.000000	0.001567	0.001659	28.1235	0.047764	0.002056	23.2362	163.459	-162.503	0.084149	0.925718	-0.223169	-0.224458	0.073976	23.2362	-0.225557	-340.548	-0.000217	NaN
0.000000	1.000000	0.971016	7.36476e+06	-39509.6	587.332	-29794.3	0.000000	0.000000	6.971157	0.111869	NaN	0.000000	0.001571	0.001629	28.0807	0.086741	0.001975	43.9227	93.7285	-167.103	0.142669	0.969721	-0.179160	-0.180455	0.111869	43.9227	-0.181070	-63.6285	-0.001758	NaN
0.000000	1.000000	1.015036	7.36476e+06	-39509.6	587.332	-29794.3	0.000000	0.000000	7.015174	0.042612	NaN	0.000000	0.001568	0.001644	28.1216	0.070136	0.002024	34.6495	-103.327	-163.653	0.003120	1.013715	-0.135139	-0.136461	0.042612	34.6495	-0.136062	-9.966103	-0.004276	NaN
0.000000	1.000000	1.059047	7.36476e+06	-39509.6	587.332	-29794.3	0.000000	0.000000	7.059189	0.128916	NaN	0.000000	0.001586	0.001633	28.0811	0.075085	0.002063	36.4039	-77.486	-163.817	0.112180	1.057741	-0.091128	-0.092435	0.128916	36.4039	-0.093784	-1.323184	-0.097429	NaN
0.000000	1.000000	1.103056	7.36476e+06	-39509.6	587.332	-29794.3	0.000000	0.000000	7.103196	0.078733	NaN	0.000000	0.001629	0.001631	28.1224	0.015879	0.002095	7.580071	112.816	-165.123	0.033977	1.101761	-0.047119	-0.048415	0.078733	7.580071	-0.054909	-0.127986	-0.615168	NaN
0.000000	1.000000	1.147109	7.36476e+06	-39509.6	587.332	-29794.3	0.000000	0.000000	7.147248	0.062885	NaN	0.000000	0.001643	0.001634	28.0831	0.155169	0.002043	75.9477	170.961	-164.391	0.096584	1.145746	-0.003067	-0.004430	0.062885	75.9477	-0.003688	-0.002576	-24.4155	NaN
0.000000	2.000000	1.166630	7.36476e+06	-39509.6	587.332	-29794.3	0.000000	0.000000	7.167777	24.5944	NaN	0.000000	0.001671	0.001673	28.1226	17.6435	0.001678	10514	4.504869	-176.097	24.4281	1.166358	0.016455	0.016182	24.5944	10514	0.014700	0.014888	1651.98	78727.4
0.000000	2.000000	1.177537	7.36476e+06	-39509.6	587.332	-29794.3	0.000000	0.000000	7.180042	57.637	NaN	0.000000	0.001657	0.001654	28.0832	27.5313	0.001972	13960.8	3.001997	-175.015	55.4523	1.177230	0.027361	0.027054	57.637	13960.8	0.024265	0.029692	1941.18	74022.8
0.000000	2.000000	1.188550	7.36476e+06	-39509.6	587.332	-29794.3	0.000000	0.000000	7.192594	95.0892	NaN	0.000000	0.001655	0.001687	28.1214	38.1235	0.001694	22498.6	5.442399	177.059	94.1863	1.188291	0.038375	0.038116	95.0892	22498.6	0.035205	0.052224	1820.8	89948.6
0.000000	2.000000	1.199551	7.36476e+06	-39509.6	587.332	-29794.3	0.000000	0.000000	7.205552	142.727	NaN	0.000000	0.001665	0.001701	28.0815	49.7075	0.001787	27809.1	5.358644	174.836	140.95	1.199224	0.049375	0.049048	142.727	27809.1	0.045526	0.079087	1804.7	90345.8
0.000000	2.000000	1.210481	7.36476e+06	-39509.6	587.332	-29794.3	0.000000	0.000000	7.218778	198.589	NaN	0.000000	0.001667	0.001694	28.1224	58.2311	0.001832	31780	0.482024	179.28	195.852	1.210190	0.060305	0.060015	198.589	31780	0.055618	0.110566	1796.11	87320.4
0.000000	2.000000	1.221480	7.36476e+06	-39509.6	587.333	-29794.3	0.000000	0.000000	7.232382	261.995	NaN	0.000000	0.001642	0.001673	28.083	68.9633	0.001786	38605.5	6.847847	171.913	261	1.221179	0.071304	0.071003	261.995	38605.5	0.066214	0.149030	1758.01	91366.3
0.000000	2.000000	1.232509	7.36476e+06	-39509.6	587.332	-29794.3	0.000000	0.000000	7.246524	337.742	NaN	0.000000	0.001624	0.001695	28.1224	80.8651	0.001785	45293.8	3.301429	174.05	337.11	1.232283	0.082333	0.082108	337.742	45293.8	0.076741	0.192583	1753.74	94298
0.000000	2.000000	1.243434	7.36477e+06	-39509.6	587.332	-29794.3	0.000000	0.000000	7.260612	414.701	NaN	0.000000	0.001590	0.001679	28.0826	91.8906	0.001944	47270	8.463150	169.403	410.437	1.243132	0.093258	0.092957	414.701	47270	0.086678	0.238472	1738.99	88438.2
0.000000	2.000000	1.254437	7.36477e+06	-39509.6	587.331	-29794.3	0.000000	0.000000	7.275227	502.594	NaN	0.000000	0.001659	0.001682	28.1207	99.3635	0.001774	55996.3	7.558254	168.928	500.88	1.254070	0.104261	0.103894	502.594	55996.3	0.097529	0.293777	1710.81	94389.6
0.000000	2.000000	1.256930	7.36477e+06	-39509.6	587.331	-29794.3	0.000000	0.000000	7.278556	522.956	NaN	0.000000	0.001632	0.001700	28.1193	99.3131	0.001678	59187.3	5.910622	-9.659606	518.177	1.256656	0.106754	0.106480	522.956	59187.3	0.100127	0.307815	1698.93	97467

File: 2025-07-22_16-23-58_1_0.txt
2025-07-22, 16:23:58, 1
Index	Phase	Displacement	Time	Pos X	Pos Y	Pos Z	Rot A	Rot B	Piezo Z	Force A	Force B	Gripper	Voltage A	Voltage B	Temperature	Amplitude force	Amplitude pos	Stiffness	Phase shift	Phase excitation	Force A raw	Displacement raw	HMax	HMax raw	Real Force	Real Stiffness	Contact Depth	Area	Hardness	Reduced Mod.
[#]	[#]	[um]	[s]	[um]	[um]	[um]	[m°]	[m°]	[um]	[uN]	[uN]	[V]	[V]	[V]	[°C]	[uN]	[um]	[N/m]	[°]	[°]	[uN]	[um]	[um]	[um]	[uN]	[N/m]	[um]	[um^2]	[MPa]	[MPa]
0.000000	1.000000	0.003022	7.36504e+06	-38639.1	955.818	-29794.8	0.000000	0.000000	6.002600	-0.018344	NaN	0.000000	0.001646	0.001496	28.0988	0.069285	0.000968	71.5527	15.6479	-154.575	-0.042265	0.001747	-0.998659	-0.999934	-0.018344	71.5527	-0.998467	-2.163329E+13	8.479744E-16	NaN
0.000000	1.000000	0.043080	7.36504e+06	-38639.1	955.818	-29794.8	0.000000	0.000000	6.042659	0.024112	NaN	0.000000	0.001639	0.001540	28.0975	0.086711	0.001981	43.7664	146.213	-166.456	-0.012949	0.041750	-0.958601	-0.959931	0.024112	43.7664	-0.959015	-6.361849E+12	-3.790134E-15	NaN
0.000000	1.000000	0.083129	7.36504e+06	-38639.1	955.819	-29794.8	0.000000	0.000000	6.082710	0.058790	NaN	0.000000	0.001651	0.001496	28.0977	0.121588	0.001895	64.1747	-81.5533	-160.165	0.115398	0.081814	-0.918552	-0.919867	0.058790	64.1747	-0.919239	-1.848971E+12	-3.179594E-14	NaN
0.000000	1.000000	0.123176	7.36504e+06	-38639.1	955.818	-29794.8	0.000000	0.000000	6.122754	-0.034380	NaN	0.000000	0.001606	0.001559	28.0984	0.129739	0.001884	68.8789	133.93	-164.35	0.047737	0.121875	-0.878505	-0.879806	-0.034380	68.8789	-0.878130	-5.145425E+11	6.681624E-14	NaN
0.000000	1.000000	0.163210	7.36504e+06	-38639.1	955.818	-29794.8	0.000000	0.000000	6.162792	0.093079	NaN	0.000000	0.001554	0.001541	28.0986	0.039193	0.002057	19.0575	-141.585	-162.89	0.023055	0.161901	-0.838471	-0.839780	0.093079	19.0575	-0.842135	-1.675751E+11	-5.554435E-13	NaN
0.000000	1.000000	0.203221	7.36504e+06	-38639.1	955.818	-29794.8	0.000000	0.000000	6.202801	0.037345	NaN	0.000000	0.001597	0.001513	28.1003	0.064948	0.001989	32.6547	141.97	-164.068	0.027532	0.201909	-0.798460	-0.799772	0.037345	32.6547	-0.799318	-4.401535E+10	-8.484561E-13	NaN
0.000000	1.000000	0.243236	7.36504e+06	-38639.1	955.819	-29794.8	0.000000	0.000000	6.242814	-0.019481	NaN	0.000000	0.001589	0.001526	28.0991	0.077206	0.002097	36.8181	-19.4417	-167.79	0.062706	0.241950	-0.758445	-0.759731	-0.019481	36.8181	-0.758048	-1.209894E+10	1.610177E-12	NaN
0.000000	1.000000	0.283273	7.36504e+06	-38639.1	955.82	-29794.8	0.000000	0.000000	6.282854	0.039912	NaN	0.000000	0.001595	0.001564	28.0996	0.069865	0.002070	33.7573	115.105	-169.155	0.019736	0.281972	-0.718408	-0.719709	0.039912	33.7573	-0.719294	-3.587972E+9	-1.112382E-11	NaN
0.000000	1.000000	0.323311	7.36504e+06	-38639.1	955.819	-29794.8	0.000000	0.000000	6.322888	-0.033857	NaN	0.000000	0.001532	0.001598	28.1002	0.042726	0.001978	21.6054	13.6917	-164.362	0.010359	0.321937	-0.678370	-0.679744	-0.033857	21.6054	-0.677195	-9.546350E+8	3.546641E-11	NaN
0.000000	1.000000	0.363324	7.36504e+06	-38639.1	955.818	-29794.8	0.000000	0.000000	6.362902	-0.019692	NaN	0.000000	0.001510	0.001568	28.0993	0.075149	0.001855	40.5082	-146.093	-165.982	0.015934	0.361985	-0.638357	-0.639696	-0.019692	40.5082	-0.637992	-2.771644E+8	7.104809E-11	NaN
0.000000	1.000000	0.403329	7.36504e+06	-38639.1	955.818	-29794.8	0.000000	0.000000	6.402907	-0.024099	NaN	0.000000	0.001595	0.001554	28.0988	0.036426	0.001986	18.3439	-23.1299	-165.554	0.014638	0.402039	-0.598352	-0.599642	-0.024099	18.3439	-0.597366	-7.659194E+7	3.146453E-10	NaN
0.000000	1.000000	0.443343	7.36504e+06	-38639.1	955.818	-29794.8	0.000000	0.000000	6.442923	0.048532	NaN	0.000000	0.001536	0.001599	28.1013	0.040158	0.001952	20.5705	-2.213393	-161.908	-0.031259	0.441993	-0.558338	-0.559688	0.048532	20.5705	-0.560108	-2.343522E+7	-2.070908E-9	NaN
0.000000	1.000000	0.483366	7.36504e+06	-38639.1	955.819	-29794.8	0.000000	0.000000	6.482945	0.010419	NaN	0.000000	0.001608	0.001608	28.1002	0.036151	0.002045	17.6734	-38.6942	-165.102	-0.017737	0.482014	-0.518315	-0.519667	0.010419	17.6734	-0.518757	-6.25613e+06	-1.665442E-9	NaN
0.000000	1.000000	0.523384	7.36504e+06	-38639.1	955.819	-29794.8	0.000000	0.000000	6.522963	0.017503	NaN	0.000000	0.001598	0.001611	28.1019	0.070941	0.002063	34.3801	-65.8106	-162.598	0.113486	0.522106	-0.478297	-0.479575	0.017503	34.3801	-0.478679	-1.72596e+06	-1.014101E-8	NaN
0.000000	1.000000	0.563393	7.36504e+06	-38639.1	955.818	-29794.8	0.000000	0.000000	6.562972	-0.008145	NaN	0.000000	0.001598	0.001585	28.1015	0.075898	0.001999	37.9689	78.0324	-165.179	-0.032278	0.562142	-0.438288	-0.439539	-0.008145	37.9689	-0.438127	-464431	1.753768E-8	NaN
0.000000	1.000000	0.603432	7.36504e+06	-38639.1	955.82	-29794.8	0.000000	0.000000	6.603011	-0.004548	NaN	0.000000	0.001643	0.001568	28.1004	0.075568	0.001917	39.4302	-135.512	-163.916	0.108149	0.602056	-0.398249	-0.399625	-0.004548	39.4302	-0.398162	-125829	3.614524E-8	NaN
0.000000	1.000000	0.643418	7.36504e+06	-38639.1	955.82	-29794.8	0.000000	0.000000	6.643000	0.089401	NaN	0.000000	0.001590	0.001600	28.1012	0.082230	0.001913	42.9958	-136.794	-168.064	0.088509	0.642118	-0.358263	-0.359563	0.089401	42.9958	-0.359823	-35422.7	-2.523845E-6	NaN
0.000000	1.000000	0.683453	7.36504e+06	-38639.1	955.82	-29794.8	0.000000	0.000000	6.683032	0.006496	NaN	0.000000	0.001631	0.001625	28.1015	0.066264	0.002124	31.1988	-115.73	-165.153	0.020690	0.682150	-0.318228	-0.319531	0.006496	31.1988	-0.318384	-8807.43	-7.375187E-7	NaN
0.000000	1.000000	0.723479	7.36504e+06	-38639.1	955.819	-29794.8	0.000000	0.000000	6.723058	0.009378	NaN	0.000000	0.001652	0.001627	28.1024	0.027466	0.001960	14.015	148.969	-167.832	0.012299	0.722168	-0.278202	-0.279513	0.009378	14.015	-0.278704	-2256.33	-4.156275E-6	NaN
0.000000	1.000000	0.763498	7.36504e+06	-38639.1	955.818	-29794.8	0.000000	0.000000	6.763077	0.006398	NaN	0.000000	0.001596	0.001623	28.1031	0.032385	0.001974	16.4095	71.7189	-165.463	0.077083	0.762181	-0.238183	-0.239500	0.006398	16.4095	-0.238476	-544.157	-1.175685E-5	NaN
0.000000	1.000000	0.803523	7.36504e+06	-38639.1	955.819	-29794.8	0.000000	0.000000	6.803100	-0.045859	NaN	0.000000	0.001656	0.001647	28.1014	0.082132	0.001901	43.2067	-100.898	-164.932	0.048647	0.802126	-0.198158	-0.199555	-0.045859	43.2067	-0.197362	-119.195	0.000385	NaN
0.000000	1.000000	0.843528	7.36504e+06	-38639.1	955.819	-29794.8	0.000000	0.000000	6.843111	0.117876	NaN	0.000000	0.001669	0.001644	28.1015	0.098174	0.002059	47.6737	178.192	-165.144	0.131569	0.842237	-0.158154	-0.159444	0.117876	47.6737	-0.160008	-27.4238	-0.004298	NaN
0.000000	1.000000	0.883563	7.36505e+06	-38639.1	955.819	-29794.8	0.000000	0.000000	6.883144	0.046633	NaN	0.000000	0.001649	0.001656	28.1018	0.061317	0.002118	28.9563	-13.1305	-163.105	-0.031329	0.882238	-0.118118	-0.119443	0.046633	28.9563	-0.119326	-4.682243	-0.009960	NaN
0.000000	1.000000	0.923563	7.36505e+06	-38639.1	955.818	-29794.8	0.000000	0.000000	6.923147	0.128060	NaN	0.000000	0.001645	0.001651	28.1028	0.059367	0.002029	29.2566	-175.584	-166.374	-0.043688	0.922278	-0.078118	-0.079403	0.128060	29.2566	-0.081401	-0.670732	-0.190926	NaN
0.000000	1.000000	0.963559	7.36505e+06	-38639.1	955.819	-29794.8	0.000000	0.000000	6.963143	0.115417	NaN	0.000000	0.001649	0.001643	28.1023	0.046364	0.001989	23.3093	-13.0941	-167.581	0.103249	0.962289	-0.038122	-0.039392	0.115417	23.3093	-0.041835	-0.051434	-2.243984	NaN
0.000000	1.000000	1.003581	7.36505e+06	-38639.1	955.817	-29794.8	0.000000	0.000000	7.003208	1.175571	NaN	0.000000	0.001652	0.001617	28.1036	0.747052	0.001988	375.791	22.5092	-164.867	1.094803	1.002297	0.001900	0.000615	1.175571	375.791	-0.000446	-0.000331	-3554.36	NaN
0.000000	1.000000	1.043496	7.36505e+06	-38639.1	955.818	-29794.8	0.000000	0.000000	7.043447	9.056659	NaN	0.000000	0.001677	0.001627	28.1037	2.597637	0.001865	1392.84	12.5542	-167.164	8.830076	1.042261	0.041815	0.040579	9.056659	1392.84	0.036938	0.056355	160.706	5360.51
0.000000	2.000000	1.054111	7.36505e+06	-38639.1	955.818	-29794.8	0.000000	0.000000	7.054170	11.6893	NaN	0.000000	0.001652	0.001630	28.1048	3.815294	0.002136	1785.84	12.1677	-169.161	11.641	1.053798	0.052430	0.052117	11.6893	1785.84	0.047521	0.084906	137.674	5599.47
0.000000	2.000000	1.064111	7.36505e+06	-38639.1	955.818	-29794.8	0.000000	0.000000	7.064344	15.9298	NaN	0.000000	0.001630	0.001627	28.1035	4.382834	0.002027	2162.62	10.2343	-168.436	15.8415	1.063771	0.062430	0.062090	15.9298	2162.62	0.056905	0.114945	138.586	5827.85
0.000000	2.000000	1.074077	7.36505e+06	-38639.1	955.819	-29794.8	0.000000	0.000000	7.074522	21.0794	NaN	0.000000	0.001683	0.001596	28.1038	5.106513	0.002035	2508.82	7.304869	-165.011	20.8199	1.073731	0.072396	0.072050	21.0794	2508.82	0.066095	0.148565	141.887	5946.81
0.000000	2.000000	1.084055	7.36505e+06	-38639.1	955.819	-29794.8	0.000000	0.000000	7.084755	27.2872	NaN	0.000000	0.001670	0.001658	28.1033	6.354180	0.001992	3190.56	9.847797	-170.752	27.0052	1.083786	0.082374	0.082105	27.2872	3190.56	0.075960	0.189172	144.245	6702.1
0.000000	2.000000	1.094015	7.36505e+06	-38639.1	955.818	-29794.8	0.000000	0.000000	7.094987	33.9298	NaN	0.000000	0.001647	0.001645	28.1039	7.132597	0.002004	3558.46	8.593581	-168.473	33.68	1.093687	0.092333	0.092006	33.9298	3558.46	0.085182	0.231272	146.71	6760.43
0.000000	2.000000	1.104020	7.36505e+06	-38639.1	955.819	-29794.8	0.000000	0.000000	7.105275	40.7937	NaN	0.000000	0.001679	0.001608	28.1053	7.740141	0.002108	3671.12	8.516645	-168.371	40.4528	1.103760	0.102339	0.102079	40.7937	3671.12	0.094004	0.275221	148.222	6393.38
0.000000	2.000000	1.114041	7.36505e+06	-38639.1	955.819	-29794.8	0.000000	0.000000	7.115589	47.9384	NaN	0.000000	0.001673	0.001633	28.1057	8.814554	0.002067	4264.1	10.7615	-172.029	47.8386	1.113729	0.112360	0.112048	47.9384	4264.1	0.103928	0.328904	145.752	6793.07
0.000000	2.000000	1.124046	7.36505e+06	-38639.1	955.819	-29794.8	0.000000	0.000000	7.125940	56.357	NaN	0.000000	0.001683	0.001633	28.1069	9.106663	0.001870	4868.62	9.651727	-172.948	56.5176	1.123709	0.122365	0.122028	56.357	4868.62	0.113683	0.386034	145.99	7159.23
0.000000	2.000000	1.134001	7.36505e+06	-38639.1	955.819	-29794.8	0.000000	0.000000	7.136265	65.3477	NaN	0.000000	0.001668	0.001678	28.105	10.0392	0.002009	4997.85	9.119675	-171.785	64.8815	1.133670	0.132320	0.131989	65.3477	4997.85	0.122514	0.441471	148.023	6872.35
0.000000	2.000000	1.142980	7.36505e+06	-38639.1	955.82	-29794.8	0.000000	0.000000	7.145605	74.1208	NaN	0.000000	0.001736	0.001622	28.0937	10.4616	0.001902	5499.61	5.427044	-169.516	73.2245	1.142649	0.141299	0.140968	74.1208	5499.61	0.131191	0.499400	148.42	7110.19