Folder: unikorn_login/remote_trans/data/nanoindenter/0828-1/data/Data_2025-08-06,11h17m57s (part 134)

File: 2025-07-22_16-23-58_1_285.txt
2025-07-22, 16:23:58, 1
Index	Phase	Displacement	Time	Pos X	Pos Y	Pos Z	Rot A	Rot B	Piezo Z	Force A	Force B	Gripper	Voltage A	Voltage B	Temperature	Amplitude force	Amplitude pos	Stiffness	Phase shift	Phase excitation	Force A raw	Displacement raw	HMax	HMax raw	Real Force	Real Stiffness	Contact Depth	Area	Hardness	Reduced Mod.
[#]	[#]	[um]	[s]	[um]	[um]	[um]	[m°]	[m°]	[um]	[uN]	[uN]	[V]	[V]	[V]	[°C]	[uN]	[um]	[N/m]	[°]	[°]	[uN]	[um]	[um]	[um]	[uN]	[N/m]	[um]	[um^2]	[MPa]	[MPa]
285	1.000000	0.002395	7.36784e+06	-52889.1	955.818	-29748.3	0.000000	0.000000	6.002825	0.076811	NaN	0.000000	0.001570	0.001735	28.0799	0.101451	0.000928	109.269	-113.438	-172.099	0.115170	0.001145	-1.067200	-1.068450	0.076811	109.269	-1.067727	-1.847774E+14	-4.156923E-16	NaN
285	1.000000	0.042329	7.36784e+06	-52889.1	955.819	-29748.3	0.000000	0.000000	6.042754	-0.023376	NaN	0.000000	0.001533	0.001714	28.0797	0.082339	0.002019	40.7911	-154.578	-161.635	0.059552	0.040978	-1.027266	-1.028617	-0.023376	40.7911	-1.026836	-5.211025E+13	4.485820E-16	NaN
285	1.000000	0.082350	7.36784e+06	-52889.1	955.818	-29748.3	0.000000	0.000000	6.082776	0.006703	NaN	0.000000	0.001590	0.001724	28.0782	0.086322	0.001982	43.5561	-77.875	-164.683	-0.043281	0.081042	-0.987245	-0.988552	0.006703	43.5561	-0.987361	-1.533074E+13	-4.372519E-16	NaN
285	1.000000	0.122355	7.36784e+06	-52889.1	955.819	-29748.3	0.000000	0.000000	6.122781	-0.020277	NaN	0.000000	0.001678	0.001765	28.0787	0.017408	0.001900	9.161729	79.0348	-164.37	-0.049600	0.121014	-0.947240	-0.948581	-0.020277	9.161729	-0.945580	-4.191873E+12	4.837301E-15	NaN
285	1.000000	0.162371	7.36784e+06	-52889.1	955.818	-29748.3	0.000000	0.000000	6.162797	-0.005975	NaN	0.000000	0.001540	0.001709	28.0781	0.076393	0.002028	37.6768	89.0628	-166.802	0.056629	0.161067	-0.907224	-0.908527	-0.005975	37.6768	-0.907105	-1.267812E+12	4.712894E-15	NaN
285	1.000000	0.202363	7.36784e+06	-52889.1	955.818	-29748.3	0.000000	0.000000	6.202790	0.024150	NaN	0.000000	0.001578	0.001662	28.0792	0.084950	0.002112	40.2296	13.1914	-163.817	0.043355	0.201078	-0.867232	-0.868517	0.024150	40.2296	-0.867682	-3.716024E+11	-6.498783E-14	NaN
285	1.000000	0.242430	7.36784e+06	-52889.1	955.818	-29748.3	0.000000	0.000000	6.242855	-0.039146	NaN	0.000000	0.001601	0.001684	28.079	0.043068	0.002017	21.3489	-96.8297	-164.841	0.001564	0.241117	-0.827165	-0.828478	-0.039146	21.3489	-0.825790	-1.006260E+11	3.890293E-13	NaN
285	1.000000	0.282419	7.36784e+06	-52889.1	955.819	-29748.3	0.000000	0.000000	6.282843	-0.068294	NaN	0.000000	0.001624	0.001694	28.0791	0.088462	0.001959	45.1466	-71.3365	-166.052	-0.089984	0.281136	-0.787176	-0.788458	-0.068294	45.1466	-0.786041	-2.906102E+10	2.350016E-12	NaN
285	1.000000	0.322444	7.36784e+06	-52889.1	955.819	-29748.3	0.000000	0.000000	6.322871	0.011954	NaN	0.000000	0.001533	0.001718	28.0791	0.119074	0.002098	56.7437	79.98	-162.63	-0.074630	0.321139	-0.747151	-0.748456	0.011954	56.7437	-0.747309	-8.641448E+9	-1.383331E-12	NaN
285	1.000000	0.362457	7.36784e+06	-52889.1	955.818	-29748.3	0.000000	0.000000	6.362883	-0.006325	NaN	0.000000	0.001576	0.001705	28.0781	0.035861	0.002045	17.5382	19.6369	-165.394	-0.023524	0.361112	-0.707138	-0.708483	-0.006325	17.5382	-0.706868	-2.428263E+9	2.604599E-12	NaN
285	1.000000	0.402494	7.36784e+06	-52889.1	955.818	-29748.3	0.000000	0.000000	6.402919	-0.021171	NaN	0.000000	0.001634	0.001682	28.078	0.045332	0.002089	21.6998	-55.9177	-164.77	-0.033386	0.401163	-0.667101	-0.668432	-0.021171	21.6998	-0.666369	-6.787188E+8	3.119331E-11	NaN
285	1.000000	0.442499	7.36784e+06	-52889.1	955.818	-29748.3	0.000000	0.000000	6.442927	0.061475	NaN	0.000000	0.001573	0.001665	28.0782	0.123909	0.002026	61.1523	-110.783	-164.765	0.041966	0.441156	-0.627096	-0.628439	0.061475	61.1523	-0.627850	-2.011400E+8	-3.056347E-10	NaN
285	1.000000	0.482494	7.36784e+06	-52889.1	955.819	-29748.3	0.000000	0.000000	6.482920	-0.006065	NaN	0.000000	0.001602	0.001693	28.0795	0.067051	0.002015	33.2743	177.762	-164.171	-0.037273	0.481198	-0.587101	-0.588397	-0.006065	33.2743	-0.586964	-5.505565E+7	1.101571E-10	NaN
285	1.000000	0.522492	7.36784e+06	-52889.1	955.818	-29748.3	0.000000	0.000000	6.522918	-0.007425	NaN	0.000000	0.001632	0.001676	28.0794	0.028871	0.001982	14.569	135.912	-163.95	0.074726	0.521198	-0.547102	-0.548397	-0.007425	14.569	-0.546720	-1.529389E+7	4.855000E-10	NaN
285	1.000000	0.562535	7.36784e+06	-52889.1	955.819	-29748.3	0.000000	0.000000	6.562963	0.043368	NaN	0.000000	0.001602	0.001685	28.0793	0.055307	0.001941	28.501	-141.759	-168.187	0.064163	0.561215	-0.507060	-0.508379	0.043368	28.501	-0.508201	-4.46018e+06	-9.723358E-9	NaN
285	1.000000	0.602541	7.36785e+06	-52889.1	955.818	-29748.3	0.000000	0.000000	6.602967	-0.006096	NaN	0.000000	0.001605	0.001674	28.0795	0.038104	0.002055	18.5452	-57.099	-167.42	0.029593	0.601253	-0.467053	-0.468342	-0.006096	18.5452	-0.466807	-1.17655e+06	5.181437E-9	NaN
285	1.000000	0.642594	7.36785e+06	-52889.1	955.819	-29748.3	0.000000	0.000000	6.643018	-0.047209	NaN	0.000000	0.001629	0.001612	28.0785	0.047690	0.002154	22.1391	151.097	-165.357	-0.045014	0.641217	-0.427001	-0.428378	-0.047209	22.1391	-0.425402	-306881	1.538331E-7	NaN
285	1.000000	0.682597	7.36785e+06	-52889.1	955.818	-29748.3	0.000000	0.000000	6.683025	0.032637	NaN	0.000000	0.001676	0.001590	28.0782	0.036662	0.001961	18.6993	72.8776	-167.222	0.002879	0.681354	-0.386997	-0.388241	0.032637	18.6993	-0.388306	-90977.7	-3.587323E-7	NaN
285	1.000000	0.722602	7.36785e+06	-52889.1	955.819	-29748.3	0.000000	0.000000	6.723028	0.005757	NaN	0.000000	0.001589	0.001631	28.0782	0.070122	0.001978	35.4489	141.239	-164.281	-0.086531	0.721326	-0.346993	-0.348269	0.005757	35.4489	-0.347115	-23179.6	-2.483572E-7	NaN
285	1.000000	0.762625	7.36785e+06	-52889.1	955.818	-29748.3	0.000000	0.000000	6.763047	-0.099213	NaN	0.000000	0.001668	0.001613	28.0795	0.054176	0.002071	26.1605	-102.929	-166.581	-0.073552	0.761301	-0.306970	-0.308294	-0.099213	26.1605	-0.304126	-5419.75	1.830593E-5	NaN
285	1.000000	0.802625	7.36785e+06	-52889.1	955.818	-29748.3	0.000000	0.000000	6.803051	0.009448	NaN	0.000000	0.001630	0.001640	28.0799	0.053051	0.001945	27.2782	-68.5406	-165.931	-0.026541	0.801309	-0.266970	-0.268286	0.009448	27.2782	-0.267230	-1511.45	-6.251257E-6	NaN
285	1.000000	0.842658	7.36785e+06	-52889.1	955.817	-29748.3	0.000000	0.000000	6.843085	0.023808	NaN	0.000000	0.001609	0.001650	28.0794	0.029389	0.002022	14.5374	147.031	-165.164	-0.063707	0.841355	-0.226937	-0.228240	0.023808	14.5374	-0.228165	-374.554	-6.356381E-5	NaN
285	1.000000	0.882674	7.36785e+06	-52889.1	955.818	-29748.3	0.000000	0.000000	6.883096	-0.112899	NaN	0.000000	0.001659	0.001639	28.0784	0.129942	0.001983	65.5329	-29.5974	-167.89	-0.020092	0.881376	-0.186921	-0.188219	-0.112899	65.5329	-0.185629	-75.9837	0.001486	NaN
285	1.000000	0.922723	7.36785e+06	-52889.1	955.819	-29748.3	0.000000	0.000000	6.923150	0.007563	NaN	0.000000	0.001606	0.001659	28.0781	0.017322	0.001978	8.755385	-151.783	-164.473	-0.000477	0.921428	-0.146872	-0.148167	0.007563	8.755385	-0.147519	-16.3158	-0.000464	NaN
285	1.000000	0.962684	7.36785e+06	-52889.1	955.818	-29748.3	0.000000	0.000000	6.963107	-0.069824	NaN	0.000000	0.001626	0.001664	28.0782	0.106289	0.001954	54.4044	-94.1618	-166.487	0.017592	0.961416	-0.106911	-0.108178	-0.069824	54.4044	-0.105949	-2.463872	0.028339	NaN
285	1.000000	1.002734	7.36785e+06	-52889.1	955.817	-29748.3	0.000000	0.000000	7.003161	0.019035	NaN	0.000000	0.001622	0.001656	28.0782	0.053876	0.002011	26.7863	111.17	-164.591	-0.047521	1.001392	-0.066861	-0.068203	0.019035	26.7863	-0.067394	-0.290025	-0.065632	NaN
285	1.000000	1.042749	7.36785e+06	-52889.1	955.819	-29748.3	0.000000	0.000000	7.043172	-0.081601	NaN	0.000000	0.001648	0.001641	28.0791	0.077920	0.002030	38.3931	171.734	-163.829	-0.120506	1.041407	-0.026845	-0.028188	-0.081601	38.3931	-0.025251	-0.017128	4.764265	NaN
285	2.000000	1.080426	7.36785e+06	-52889.1	955.818	-29748.3	0.000000	0.000000	7.081161	7.515657	NaN	0.000000	0.001603	0.001637	28.0795	9.041122	0.001812	4988.97	13.035	-174.946	7.688421	1.080083	0.010831	0.010489	7.515657	4988.97	0.009701	0.008851	849.14	48449.6
285	2.000000	1.090273	7.36785e+06	-52889.1	955.818	-29748.3	0.000000	0.000000	7.091725	24.933	NaN	0.000000	0.001649	0.001655	28.0795	20.1455	0.001875	10742.7	7.215153	-176.403	22.8774	1.089994	0.020678	0.020399	24.933	10742.7	0.018938	0.020900	1192.94	67890.6
285	2.000000	1.100292	7.36785e+06	-52889.1	955.819	-29748.3	0.000000	0.000000	7.102812	50.903	NaN	0.000000	0.001675	0.001677	28.0782	30.8339	0.001759	17529.1	4.290221	-178.831	51.0572	1.100040	0.030698	0.030445	50.903	17529.1	0.028520	0.037731	1349.09	82448.5
285	2.000000	1.110238	7.36785e+06	-52889.1	955.819	-29748.3	0.000000	0.000000	7.114137	84.4382	NaN	0.000000	0.001532	0.001639	28.0782	40.895	0.001806	22638.7	5.380567	177.888	83.3627	1.109990	0.040643	0.040395	84.4382	22638.7	0.037845	0.058579	1441.45	85458.5
285	2.000000	1.120246	7.36785e+06	-52889.1	955.818	-29748.3	0.000000	0.000000	7.125921	127.622	NaN	0.000000	0.001585	0.001661	28.078	50.0188	0.001736	28811.9	4.005163	177.337	126.574	1.119917	0.050651	0.050322	127.622	28811.9	0.047329	0.084337	1513.24	90643.3
285	2.000000	1.130215	7.36785e+06	-52889.1	955.819	-29748.3	0.000000	0.000000	7.137980	178.436	NaN	0.000000	0.001626	0.001642	28.0781	59.5061	0.001779	33447.3	6.626241	173.988	177.919	1.129893	0.060620	0.060298	178.436	33447.3	0.056619	0.113965	1565.72	90520.9
285	2.000000	1.140205	7.36785e+06	-52889.1	955.818	-29748.3	0.000000	0.000000	7.150272	234.409	NaN	0.000000	0.001531	0.001674	28.0794	67.5016	0.001786	37800	1.040322	177.48	232.239	1.139982	0.070610	0.070387	234.409	37800	0.065959	0.148039	1583.42	89758.6
285	2.000000	1.150228	7.36785e+06	-52889.1	955.819	-29748.3	0.000000	0.000000	7.163025	300.785	NaN	0.000000	0.001561	0.001678	28.0798	77.754	0.001738	44747.2	7.997770	170.845	301.603	1.149831	0.080633	0.080236	300.785	44747.2	0.075592	0.187576	1603.53	94395.1
285	2.000000	1.160114	7.36785e+06	-52889.1	955.818	-29748.3	0.000000	0.000000	7.175825	371.646	NaN	0.000000	0.001581	0.001695	28.0795	86.9516	0.001898	45812.2	1.428402	176.398	367.128	1.159871	0.090519	0.090276	371.646	45812.2	0.084434	0.227711	1632.1	87712.7
285	2.000000	1.170156	7.36785e+06	-52889.1	955.819	-29748.3	0.000000	0.000000	7.188926	446.012	NaN	0.000000	0.001579	0.001688	28.0783	96.389	0.001797	53644.3	4.741032	171.59	443.425	1.170030	0.100561	0.100435	446.012	53644.3	0.094325	0.276887	1610.81	93142
285	2.000000	1.178123	7.36785e+06	-52889.1	955.82	-29748.3	0.000000	0.000000	7.199817	517.106	NaN	0.000000	0.001510	0.001647	28.0777	102.198	0.001720	59424.9	4.343011	171.082	512.631	1.177968	0.108528	0.108374	517.106	59424.9	0.102002	0.318133	1625.44	96258.2

File: 2025-07-22_16-23-58_1_286.txt
2025-07-22, 16:23:58, 1
Index	Phase	Displacement	Time	Pos X	Pos Y	Pos Z	Rot A	Rot B	Piezo Z	Force A	Force B	Gripper	Voltage A	Voltage B	Temperature	Amplitude force	Amplitude pos	Stiffness	Phase shift	Phase excitation	Force A raw	Displacement raw	HMax	HMax raw	Real Force	Real Stiffness	Contact Depth	Area	Hardness	Reduced Mod.
[#]	[#]	[um]	[s]	[um]	[um]	[um]	[m°]	[m°]	[um]	[uN]	[uN]	[V]	[V]	[V]	[°C]	[uN]	[um]	[N/m]	[°]	[°]	[uN]	[um]	[um]	[um]	[uN]	[N/m]	[um]	[um^2]	[MPa]	[MPa]
286	1.000000	0.002844	7.36785e+06	-52939.1	955.819	-29748.1	0.000000	0.000000	6.002800	-0.057009	NaN	0.000000	0.001601	0.001632	28.0821	0.091809	0.000820	112.009	-34.627	-165.595	-0.045921	0.001575	-1.045321	-1.046590	-0.057009	112.009	-1.044939	-9.128065E+13	6.245437E-16	NaN
286	1.000000	0.042773	7.36785e+06	-52939.1	955.818	-29748.1	0.000000	0.000000	6.042735	0.082387	NaN	0.000000	0.001577	0.001643	28.0818	0.036912	0.001986	18.5899	173.106	-165.669	0.005597	0.041452	-1.005392	-1.006713	0.082387	18.5899	-1.008716	-2.972306E+13	-2.771821E-15	NaN
286	1.000000	0.082781	7.36785e+06	-52939.1	955.818	-29748.1	0.000000	0.000000	6.082739	0.006533	NaN	0.000000	0.001687	0.001664	28.0805	0.104389	0.002103	49.6498	30.3668	-162.624	0.053122	0.081438	-0.965384	-0.966727	0.006533	49.6498	-0.965483	-7.776466E+12	-8.401591E-16	NaN
286	1.000000	0.122791	7.36785e+06	-52939.1	955.818	-29748.1	0.000000	0.000000	6.122747	-0.034581	NaN	0.000000	0.001595	0.001658	28.0806	0.072397	0.002007	36.0725	-135.123	-165.675	0.043635	0.121552	-0.925374	-0.926613	-0.034581	36.0725	-0.924655	-2.188017E+12	1.580466E-14	NaN
286	1.000000	0.162836	7.36785e+06	-52939.1	955.819	-29748.1	0.000000	0.000000	6.162792	-0.030774	NaN	0.000000	0.001634	0.001699	28.0808	0.109312	0.001990	54.9192	-175.647	-165.646	-0.016646	0.161608	-0.885329	-0.886557	-0.030774	54.9192	-0.884909	-6.354612E+11	4.842720E-14	NaN
286	1.000000	0.202870	7.36785e+06	-52939.1	955.818	-29748.1	0.000000	0.000000	6.202829	0.042332	NaN	0.000000	0.001652	0.001652	28.0815	0.089958	0.001962	45.8389	-88.5867	-164.036	0.034518	0.201515	-0.845295	-0.846650	0.042332	45.8389	-0.845988	-1.889737E+11	-2.240124E-13	NaN
286	1.000000	0.242874	7.36785e+06	-52939.1	955.817	-29748.1	0.000000	0.000000	6.242830	-0.024940	NaN	0.000000	0.001656	0.001701	28.0815	0.173538	0.001999	86.8183	146.714	-165.787	0.001130	0.241515	-0.805291	-0.806650	-0.024940	86.8183	-0.805076	-5.269354E+10	4.732997E-13	NaN
286	1.000000	0.282859	7.36785e+06	-52939.1	955.818	-29748.1	0.000000	0.000000	6.282816	-0.039495	NaN	0.000000	0.001609	0.001714	28.0815	0.085271	0.002094	40.7121	-140.347	-165.345	0.001452	0.281562	-0.765306	-0.766603	-0.039495	40.7121	-0.764578	-1.484481E+10	2.660526E-12	NaN
286	1.000000	0.322935	7.36785e+06	-52939.1	955.818	-29748.1	0.000000	0.000000	6.322893	0.005842	NaN	0.000000	0.001631	0.001725	28.0806	0.141097	0.001923	73.3693	-4.116718	-162.792	0.028299	0.321609	-0.725230	-0.726556	0.005842	73.3693	-0.725290	-4.331126E+9	-1.348875E-12	NaN
286	1.000000	0.362914	7.36785e+06	-52939.1	955.819	-29748.1	0.000000	0.000000	6.362871	-0.006604	NaN	0.000000	0.001610	0.001718	28.0805	0.080535	0.002063	39.042	-168.74	-163.681	0.028479	0.361602	-0.685251	-0.686563	-0.006604	39.042	-0.685125	-1.225400E+9	5.389566E-12	NaN
286	1.000000	0.402936	7.36785e+06	-52939.1	955.819	-29748.1	0.000000	0.000000	6.402893	-0.024982	NaN	0.000000	0.001622	0.001688	28.0806	0.087115	0.001975	44.1112	-3.793232	-166.136	-0.059716	0.401608	-0.645229	-0.646557	-0.024982	44.1112	-0.644804	-3.437123E+8	7.268364E-11	NaN
286	1.000000	0.442953	7.36785e+06	-52939.1	955.818	-29748.1	0.000000	0.000000	6.442911	-0.000401	NaN	0.000000	0.001592	0.001727	28.0803	0.096600	0.002067	46.7242	112.819	-165.883	0.010375	0.441611	-0.605212	-0.606554	-0.000401	46.7242	-0.605205	-9.820446E+7	4.082549E-12	NaN
286	1.000000	0.482978	7.36785e+06	-52939.1	955.817	-29748.1	0.000000	0.000000	6.482936	0.004052	NaN	0.000000	0.001602	0.001725	28.0815	0.050220	0.001874	26.8015	-46.062	-166.318	-0.078632	0.481681	-0.565187	-0.566484	0.004052	26.8015	-0.565301	-2.764924E+7	-1.465454E-10	NaN
286	1.000000	0.522994	7.36785e+06	-52939.1	955.817	-29748.1	0.000000	0.000000	6.522951	-0.030701	NaN	0.000000	0.001605	0.001707	28.0814	0.083873	0.001956	42.8689	102.402	-166.575	-0.101701	0.521666	-0.525171	-0.526499	-0.030701	42.8689	-0.524633	-7.55121e+06	4.065659E-9	NaN
286	1.000000	0.562999	7.36785e+06	-52939.1	955.819	-29748.1	0.000000	0.000000	6.562959	0.039333	NaN	0.000000	0.001600	0.001706	28.0816	0.023170	0.002006	11.5528	88.7063	-162.659	0.004797	0.561669	-0.485166	-0.486496	0.039333	11.5528	-0.487719	-2.30947e+06	-1.703104E-8	NaN
286	1.000000	0.603021	7.36785e+06	-52939.1	955.818	-29748.1	0.000000	0.000000	6.602979	0.000219	NaN	0.000000	0.001596	0.001751	28.0803	0.047603	0.002077	22.9153	-108.082	-165.504	-0.050767	0.601669	-0.445144	-0.446496	0.000219	22.9153	-0.445151	-583469	-3.754776E-10	NaN
286	1.000000	0.643037	7.36786e+06	-52939.1	955.819	-29748.1	0.000000	0.000000	6.642997	0.042736	NaN	0.000000	0.001594	0.001748	28.0803	0.084955	0.001976	42.9835	-11.1851	-163.871	0.021597	0.641725	-0.405128	-0.406440	0.042736	42.9835	-0.405874	-162064	-2.637006E-7	NaN
286	1.000000	0.683038	7.36786e+06	-52939.1	955.817	-29748.1	0.000000	0.000000	6.682994	-0.040588	NaN	0.000000	0.001606	0.001736	28.0806	0.031896	0.002031	15.7082	-161.899	-164.455	-0.077731	0.681733	-0.365127	-0.366432	-0.040588	15.7082	-0.363189	-39620.1	1.024438E-6	NaN
286	1.000000	0.723058	7.36786e+06	-52939.1	955.819	-29748.1	0.000000	0.000000	6.723018	0.053536	NaN	0.000000	0.001571	0.001726	28.0806	0.064971	0.001959	33.1736	11.0565	-164.476	-0.011873	0.721834	-0.325107	-0.326331	0.053536	33.1736	-0.326317	-11520.4	-4.647103E-6	NaN
286	1.000000	0.763120	7.36786e+06	-52939.1	955.818	-29748.1	0.000000	0.000000	6.763077	-0.013217	NaN	0.000000	0.001619	0.001731	28.0818	0.036572	0.002142	17.074	92.6507	-166.116	0.043635	0.761784	-0.285045	-0.286381	-0.013217	17.074	-0.284464	-2755.58	4.796324E-6	NaN
286	1.000000	0.803055	7.36786e+06	-52939.1	955.818	-29748.1	0.000000	0.000000	6.803013	-0.005662	NaN	0.000000	0.001555	0.001711	28.0818	0.014170	0.001953	7.256973	144.865	-167.272	0.018993	0.801830	-0.245110	-0.246335	-0.005662	7.256973	-0.244524	-676.174	8.373638E-6	NaN
286	1.000000	0.843107	7.36786e+06	-52939.1	955.819	-29748.1	0.000000	0.000000	6.843064	-0.018441	NaN	0.000000	0.001601	0.001722	28.0819	0.066202	0.002165	30.5801	85.4359	-164.647	0.088959	0.841832	-0.205058	-0.206333	-0.018441	30.5801	-0.204606	-156.723	0.000118	NaN
286	1.000000	0.883120	7.36786e+06	-52939.1	955.817	-29748.1	0.000000	0.000000	6.883076	-0.023721	NaN	0.000000	0.001646	0.001680	28.0806	0.050407	0.001973	25.5497	-116.269	-165.619	0.001316	0.881892	-0.165045	-0.166273	-0.023721	25.5497	-0.164349	-32.724	0.000725	NaN
286	1.000000	0.923168	7.36786e+06	-52939.1	955.818	-29748.1	0.000000	0.000000	6.923125	-0.019093	NaN	0.000000	0.001689	0.001722	28.0807	0.028832	0.002094	13.7693	46.015	-163.052	-0.021598	0.921894	-0.124997	-0.126271	-0.019093	13.7693	-0.123957	-5.798563	0.003293	NaN
286	1.000000	0.963184	7.36786e+06	-52939.1	955.819	-29748.1	0.000000	0.000000	6.963142	0.017998	NaN	0.000000	0.001638	0.001710	28.0808	0.166300	0.001960	84.8305	-34.3686	-162.804	0.063212	0.961824	-0.084981	-0.086341	0.017998	84.8305	-0.085140	-0.828091	-0.021735	NaN
286	1.000000	1.003185	7.36786e+06	-52939.1	955.817	-29748.1	0.000000	0.000000	7.003145	0.049851	NaN	0.000000	0.001630	0.001741	28.0809	0.139838	0.001960	71.3536	-103.546	-161.966	0.045161	1.001895	-0.044980	-0.046270	0.049851	71.3536	-0.045504	-0.066587	-0.748659	NaN
286	1.000000	1.043206	7.36786e+06	-52939.1	955.818	-29748.1	0.000000	0.000000	7.043162	-0.043751	NaN	0.000000	0.001651	0.001692	28.0816	0.024438	0.001982	12.3292	-85.879	-163.776	0.008225	1.041872	-0.004959	-0.006293	-0.043751	12.3292	-0.002297	-0.001644	26.6044	NaN
286	2.000000	1.067684	7.36786e+06	-52939.1	955.816	-29748.1	0.000000	0.000000	7.068291	15.7867	NaN	0.000000	0.001588	0.001633	28.0818	14.862	0.001744	8519.54	5.266230	-172.589	15.5479	1.067479	0.019519	0.019314	15.7867	8519.54	0.018129	0.019687	801.869	55474.8
286	2.000000	1.077725	7.36786e+06	-52939.1	955.816	-29748.1	0.000000	0.000000	7.079154	35.7634	NaN	0.000000	0.001588	0.001652	28.0818	26.3594	0.001826	14439	3.298764	-176.887	35.6772	1.077420	0.029560	0.029255	35.7634	14439	0.027702	0.036116	990.24	69416.4
286	2.000000	1.087642	7.36786e+06	-52939.1	955.818	-29748.1	0.000000	0.000000	7.090613	73.2616	NaN	0.000000	0.001583	0.001660	28.0805	37.219	0.001776	20960.3	5.815116	177.217	72.4251	1.087396	0.039477	0.039231	73.2616	20960.3	0.036856	0.056156	1304.62	80811.8
286	2.000000	1.097640	7.36786e+06	-52939.1	955.818	-29748.1	0.000000	0.000000	7.102136	110.336	NaN	0.000000	0.001601	0.001720	28.0806	46.4536	0.001838	25275.6	5.667366	176.037	108.43	1.097330	0.049475	0.049165	110.336	25275.6	0.046201	0.081033	1361.62	81123.1
286	2.000000	1.107542	7.36786e+06	-52939.1	955.817	-29748.1	0.000000	0.000000	7.114027	158.685	NaN	0.000000	0.001557	0.001691	28.0805	55.2084	0.001685	32768.2	3.135466	177.131	154.653	1.107215	0.059377	0.059050	158.685	32768.2	0.055745	0.110996	1429.65	89861.4
286	2.000000	1.117602	7.36786e+06	-52939.1	955.817	-29748.1	0.000000	0.000000	7.126137	208.552	NaN	0.000000	0.001619	0.001706	28.0816	65.2937	0.001805	36172.8	5.362286	174.207	208.237	1.117287	0.069437	0.069122	208.552	36172.8	0.065113	0.144778	1440.49	86856.7
286	2.000000	1.127626	7.36786e+06	-52939.1	955.817	-29748.1	0.000000	0.000000	7.138577	267.293	NaN	0.000000	0.001605	0.001669	28.0816	75.8543	0.001828	41506.4	7.154635	171.319	269.197	1.127427	0.079461	0.079262	267.293	41506.4	0.074631	0.183434	1457.16	88541.8
286	2.000000	1.137611	7.36786e+06	-52939.1	955.817	-29748.1	0.000000	0.000000	7.151409	336.507	NaN	0.000000	0.001618	0.001719	28.0816	84.7715	0.001930	43933.7	5.734121	172.606	337.661	1.137384	0.089446	0.089219	336.507	43933.7	0.083701	0.224244	1500.63	84763.7
286	2.000000	1.147552	7.36786e+06	-52939.1	955.817	-29748.1	0.000000	0.000000	7.164553	414.375	NaN	0.000000	0.001617	0.001724	28.0817	93.9609	0.001736	54126.3	5.204888	171.73	412.711	1.147253	0.099387	0.099088	414.375	54126.3	0.093645	0.273363	1515.84	94582.8
286	2.000000	1.157593	7.36786e+06	-52939.1	955.818	-29748.1	0.000000	0.000000	7.178247	503.199	NaN	0.000000	0.001600	0.001701	28.0805	106.378	0.001895	56141.4	6.100239	170.671	503.81	1.157276	0.109428	0.109111	503.199	56141.4	0.102705	0.322047	1562.5	90385.1
286	2.000000	1.161164	7.36786e+06	-52939.1	955.818	-29748.1	0.000000	0.000000	7.183084	533.992	NaN	0.000000	0.001606	0.001701	28.0801	108.314	0.001790	60493.6	5.486186	-8.349392	537.999	1.160573	0.112999	0.112408	533.992	60493.6	0.106378	0.342847	1557.52	94391.5