Folder: unikorn_login/remote_trans/data/nanoindenter/0828-1/data/Data_2025-08-06,11h17m57s (part 130)

File: 2025-07-22_16-23-58_1_277.txt
2025-07-22, 16:23:58, 1
Index	Phase	Displacement	Time	Pos X	Pos Y	Pos Z	Rot A	Rot B	Piezo Z	Force A	Force B	Gripper	Voltage A	Voltage B	Temperature	Amplitude force	Amplitude pos	Stiffness	Phase shift	Phase excitation	Force A raw	Displacement raw	HMax	HMax raw	Real Force	Real Stiffness	Contact Depth	Area	Hardness	Reduced Mod.
[#]	[#]	[um]	[s]	[um]	[um]	[um]	[m°]	[m°]	[um]	[uN]	[uN]	[V]	[V]	[V]	[°C]	[uN]	[um]	[N/m]	[°]	[°]	[uN]	[um]	[um]	[um]	[uN]	[N/m]	[um]	[um^2]	[MPa]	[MPa]
277	1.000000	0.003194	7.36776e+06	-52489.1	955.819	-29749.4	0.000000	0.000000	6.002740	0.003977	NaN	0.000000	0.001589	0.001738	28.0789	0.061181	0.000933	65.547	-79.8989	171.925	0.044188	0.001951	-1.038089	-1.039332	0.003977	65.547	-1.038134	-7.393971E+13	-5.378071E-17	NaN
277	1.000000	0.043143	7.36776e+06	-52489.1	955.818	-29749.4	0.000000	0.000000	6.042689	0.025409	NaN	0.000000	0.001604	0.001733	28.0785	0.042717	0.001979	21.587	87.5863	175.756	0.014842	0.041811	-0.998140	-0.999472	0.025409	21.587	-0.999023	-2.200967E+13	-1.154442E-15	NaN
277	1.000000	0.083141	7.36776e+06	-52489.1	955.819	-29749.4	0.000000	0.000000	6.082686	-0.010198	NaN	0.000000	0.001625	0.001725	28.0786	0.049845	0.002072	24.0572	19.9836	176.969	0.061099	0.081841	-0.958142	-0.959442	-0.010198	24.0572	-0.957824	-6.131051E+12	1.663330E-15	NaN
277	1.000000	0.123152	7.36776e+06	-52489.1	955.818	-29749.4	0.000000	0.000000	6.122693	-0.095214	NaN	0.000000	0.001604	0.001730	28.0772	0.091195	0.001974	46.198	-33.6895	174.72	-0.116538	0.121851	-0.918132	-0.919432	-0.095214	46.198	-0.916586	-1.702571E+12	5.592346E-14	NaN
277	1.000000	0.163194	7.36776e+06	-52489.1	955.818	-29749.4	0.000000	0.000000	6.162735	-0.099424	NaN	0.000000	0.001596	0.001721	28.0775	0.104811	0.001885	55.5913	-108.667	175.63	-0.033635	0.161883	-0.878089	-0.879400	-0.099424	55.5913	-0.876748	-4.928592E+11	2.017289E-13	NaN
277	1.000000	0.203178	7.36777e+06	-52489.1	955.819	-29749.4	0.000000	0.000000	6.202723	-0.012506	NaN	0.000000	0.001545	0.001707	28.0773	0.177160	0.002081	85.1333	153.302	177.015	-0.039800	0.201881	-0.838105	-0.839402	-0.012506	85.1333	-0.837995	-1.472740E+11	8.491551E-14	NaN
277	1.000000	0.243223	7.36777e+06	-52489.1	955.818	-29749.4	0.000000	0.000000	6.242767	-0.022144	NaN	0.000000	0.001543	0.001739	28.0774	0.002982	0.001986	1.501133	-134.307	174.036	-0.095491	0.241887	-0.798060	-0.799396	-0.022144	1.501133	-0.786997	-2.994257E+10	7.395562E-13	NaN
277	1.000000	0.283235	7.36777e+06	-52489.1	955.818	-29749.4	0.000000	0.000000	6.282778	-0.049461	NaN	0.000000	0.001578	0.001753	28.0785	0.073853	0.001900	38.8723	-80.9966	174.795	0.020069	0.281877	-0.758049	-0.759406	-0.049461	38.8723	-0.757094	-1.174273E+10	4.212031E-12	NaN
277	1.000000	0.323234	7.36777e+06	-52489.1	955.818	-29749.4	0.000000	0.000000	6.322777	-0.039779	NaN	0.000000	0.001604	0.001745	28.0788	0.057669	0.002096	27.5194	-108.718	177.257	0.003370	0.321917	-0.718049	-0.719367	-0.039779	27.5194	-0.716965	-3.334883E+9	1.192817E-11	NaN
277	1.000000	0.363283	7.36777e+06	-52489.1	955.818	-29749.4	0.000000	0.000000	6.362828	-0.005370	NaN	0.000000	0.001574	0.001721	28.0785	0.067318	0.002072	32.4951	174.203	177.09	-0.085684	0.361954	-0.678001	-0.679329	-0.005370	32.4951	-0.677877	-9.753555E+8	5.505766E-12	NaN
277	1.000000	0.403305	7.36777e+06	-52489.1	955.819	-29749.4	0.000000	0.000000	6.402846	-0.090990	NaN	0.000000	0.001569	0.001720	28.0774	0.075496	0.001815	41.5919	177.469	176.872	-0.053210	0.401959	-0.637978	-0.639325	-0.090990	41.5919	-0.636338	-2.630458E+8	3.459096E-10	NaN
277	1.000000	0.443285	7.36777e+06	-52489.1	955.819	-29749.4	0.000000	0.000000	6.442830	-0.006318	NaN	0.000000	0.001580	0.001717	28.0772	0.115169	0.002007	57.3975	-166.936	177.999	-0.010451	0.441997	-0.597998	-0.599286	-0.006318	57.3975	-0.597916	-7.793885E+7	8.106167E-11	NaN
277	1.000000	0.483323	7.36777e+06	-52489.1	955.819	-29749.4	0.000000	0.000000	6.482863	-0.128999	NaN	0.000000	0.001569	0.001735	28.0772	0.196779	0.002035	96.7091	-7.615250	177.785	-0.054769	0.482033	-0.557960	-0.559251	-0.128999	96.7091	-0.556959	-2.119852E+7	6.085284E-9	NaN
277	1.000000	0.523369	7.36777e+06	-52489.1	955.818	-29749.4	0.000000	0.000000	6.522911	-0.069687	NaN	0.000000	0.001585	0.001724	28.0785	0.024437	0.002036	12.0025	83.2674	175.495	-0.106692	0.522014	-0.517914	-0.519269	-0.069687	12.0025	-0.513559	-5.29641e+06	1.315748E-8	NaN
277	1.000000	0.563342	7.36777e+06	-52489.1	955.818	-29749.4	0.000000	0.000000	6.562885	-0.044418	NaN	0.000000	0.001537	0.001743	28.0785	0.114258	0.002020	56.5624	-37.6378	176.393	-0.005339	0.562044	-0.477942	-0.479239	-0.044418	56.5624	-0.477353	-1.6537e+06	2.685954E-8	NaN
277	1.000000	0.603375	7.36777e+06	-52489.1	955.819	-29749.4	0.000000	0.000000	6.602919	-0.027956	NaN	0.000000	0.001514	0.001731	28.0787	0.107583	0.002035	52.8721	-146.683	176.978	-0.027743	0.602069	-0.437908	-0.439214	-0.027956	52.8721	-0.437511	-455228	6.141062E-8	NaN
277	1.000000	0.643380	7.36777e+06	-52489.1	955.819	-29749.4	0.000000	0.000000	6.642924	-0.043473	NaN	0.000000	0.001584	0.001769	28.0785	0.109576	0.002143	51.1307	0.520434	176.518	0.019309	0.642042	-0.397903	-0.399241	-0.043473	51.1307	-0.397265	-122173	3.558313E-7	NaN
277	1.000000	0.683437	7.36777e+06	-52489.1	955.819	-29749.4	0.000000	0.000000	6.682980	-0.048432	NaN	0.000000	0.001561	0.001751	28.0772	0.019640	0.001910	10.284	109.404	173.182	-0.026221	0.682060	-0.357846	-0.359223	-0.048432	10.284	-0.354314	-29482.1	1.642758E-6	NaN
277	1.000000	0.723407	7.36777e+06	-52489.1	955.818	-29749.4	0.000000	0.000000	6.722950	-0.055951	NaN	0.000000	0.001567	0.001722	28.0772	0.061442	0.001916	32.0743	140.532	174.712	-0.028370	0.722080	-0.317876	-0.319203	-0.055951	32.0743	-0.316568	-8280.91	6.756670E-6	NaN
277	1.000000	0.763420	7.36777e+06	-52489.1	955.818	-29749.4	0.000000	0.000000	6.762962	-0.069558	NaN	0.000000	0.001563	0.001689	28.0772	0.036714	0.002074	17.7017	-83.3669	172.976	-0.065226	0.762143	-0.277863	-0.279140	-0.069558	17.7017	-0.274916	-1977.55	3.517357E-5	NaN
277	1.000000	0.803437	7.36777e+06	-52489.1	955.818	-29749.4	0.000000	0.000000	6.802982	-0.001174	NaN	0.000000	0.001577	0.001688	28.0783	0.073232	0.001972	37.1311	98.4689	174.1	0.010891	0.802143	-0.237846	-0.239140	-0.001174	37.1311	-0.237822	-531.493	2.208298E-6	NaN
277	1.000000	0.843481	7.36777e+06	-52489.1	955.819	-29749.4	0.000000	0.000000	6.843027	0.022152	NaN	0.000000	0.001593	0.001737	28.0783	0.027513	0.001860	14.7893	141.943	171.112	0.023695	0.842114	-0.197803	-0.199169	0.022152	14.7893	-0.198926	-126.483	-0.000175	NaN
277	1.000000	0.883502	7.36777e+06	-52489.1	955.818	-29749.4	0.000000	0.000000	6.883047	-0.017650	NaN	0.000000	0.001580	0.001751	28.0782	0.126952	0.001979	64.1415	-15.4374	174.007	0.006919	0.882158	-0.157781	-0.159125	-0.017650	64.1415	-0.157574	-24.8173	0.000711	NaN
277	1.000000	0.923475	7.36777e+06	-52489.1	955.818	-29749.4	0.000000	0.000000	6.923020	-0.005704	NaN	0.000000	0.001562	0.001737	28.0785	0.129432	0.001968	65.7612	-159.092	176.299	-0.072496	0.922239	-0.117808	-0.119044	-0.005704	65.7612	-0.117743	-4.348262	0.001312	NaN
277	1.000000	0.963512	7.36777e+06	-52489.1	955.817	-29749.4	0.000000	0.000000	6.963057	-0.016578	NaN	0.000000	0.001562	0.001735	28.0772	0.116998	0.002000	58.5091	150.171	173.981	-0.004086	0.962181	-0.077771	-0.079102	-0.016578	58.5091	-0.077558	-0.537192	0.030860	NaN
277	1.000000	1.003538	7.36777e+06	-52489.1	955.819	-29749.4	0.000000	0.000000	7.003081	-0.050035	NaN	0.000000	0.001571	0.001726	28.0771	0.093285	0.002002	46.591	71.2439	176.137	-0.034292	1.002209	-0.037745	-0.039074	-0.050035	46.591	-0.036939	-0.036564	1.368443	NaN
277	1.000000	1.043542	7.36777e+06	-52489.1	955.816	-29749.4	0.000000	0.000000	7.043121	0.820276	NaN	0.000000	0.001626	0.001730	28.0769	1.328025	0.001950	681.115	5.720199	179.317	0.140050	1.042224	0.002259	0.000941	0.820276	681.115	0.001356	0.001040	788.404	19292.5
277	2.000000	1.059097	7.36777e+06	-52489.1	955.818	-29749.4	0.000000	0.000000	7.059514	21.2039	NaN	0.000000	0.001610	0.001745	28.0783	18.8134	0.001835	10254.7	6.157277	163.154	19.9628	1.058828	0.017814	0.017545	21.2039	10254.7	0.016263	0.017007	1246.77	71842.4
277	2.000000	1.069075	7.36777e+06	-52489.1	955.817	-29749.4	0.000000	0.000000	7.070547	46.8569	NaN	0.000000	0.001590	0.001710	28.0785	29.7489	0.001924	15464.4	6.624491	160.317	46.9854	1.068800	0.027792	0.027517	46.8569	15464.4	0.025519	0.031967	1465.79	79023.4
277	2.000000	1.079045	7.36777e+06	-52489.1	955.818	-29749.4	0.000000	0.000000	7.081760	77.0625	NaN	0.000000	0.001612	0.001715	28.0783	37.7346	0.001818	20750.8	2.404419	162.235	75.5434	1.078684	0.037762	0.037401	77.0625	20750.8	0.034977	0.051691	1490.82	83386.9
277	2.000000	1.088936	7.36777e+06	-52489.1	955.818	-29749.4	0.000000	0.000000	7.093352	118.414	NaN	0.000000	0.001576	0.001715	28.0769	46.8284	0.001814	25811.1	-0.960274	163.629	113.639	1.088619	0.047653	0.047336	118.414	25811.1	0.044213	0.075368	1571.15	85898.7
277	2.000000	1.098931	7.36777e+06	-52489.1	955.818	-29749.4	0.000000	0.000000	7.104905	156.31	NaN	0.000000	0.001618	0.001709	28.0771	55.9783	0.001783	31395.6	5.333909	155.688	151.986	1.098684	0.057648	0.057400	156.31	31395.6	0.053914	0.104895	1490.16	88565.7
277	2.000000	1.109011	7.36777e+06	-52489.1	955.818	-29749.4	0.000000	0.000000	7.116934	203.71	NaN	0.000000	0.001581	0.001721	28.0771	65.6935	0.001888	34802.6	3.283745	156.798	203.483	1.108785	0.067728	0.067502	203.71	34802.6	0.063338	0.138048	1475.64	85579.4
277	2.000000	1.118893	7.36777e+06	-52489.1	955.817	-29749.4	0.000000	0.000000	7.129334	264.915	NaN	0.000000	0.001539	0.001695	28.0773	72.6649	0.001657	43857.4	2.355046	156.416	260.115	1.118589	0.077610	0.077305	264.915	43857.4	0.073080	0.176842	1498.04	95284.9
277	2.000000	1.128951	7.36777e+06	-52489.1	955.819	-29749.4	0.000000	0.000000	7.141754	322.357	NaN	0.000000	0.001524	0.001706	28.0782	83.8326	0.001743	48094.4	6.814110	150.788	319.554	1.128630	0.087667	0.087347	322.357	48094.4	0.082640	0.219275	1470.11	93836.9
277	2.000000	1.138960	7.36777e+06	-52489.1	955.819	-29749.4	0.000000	0.000000	7.154533	389.706	NaN	0.000000	0.001605	0.001718	28.0784	92.4855	0.001870	49463.1	6.714107	152.191	388.775	1.138531	0.097677	0.097248	389.706	49463.1	0.091768	0.263743	1477.6	87996.2
277	2.000000	1.148937	7.36777e+06	-52489.1	955.818	-29749.4	0.000000	0.000000	7.167419	460.437	NaN	0.000000	0.001545	0.001695	28.0789	101.679	0.001799	56515.1	4.144971	153.235	459.72	1.148521	0.107654	0.107238	460.437	56515.1	0.101544	0.315598	1458.93	91911.6
277	2.000000	1.149455	7.36777e+06	-52489.1	955.819	-29749.4	0.000000	0.000000	7.167966	461.125	NaN	0.000000	0.001555	0.001701	28.0788	102.074	0.001843	55373.1	4.562526	-27.2681	459.768	1.149084	0.108172	0.107801	461.125	55373.1	0.101927	0.317717	1451.37	89753.7

File: 2025-07-22_16-23-58_1_278.txt
2025-07-22, 16:23:58, 1
Index	Phase	Displacement	Time	Pos X	Pos Y	Pos Z	Rot A	Rot B	Piezo Z	Force A	Force B	Gripper	Voltage A	Voltage B	Temperature	Amplitude force	Amplitude pos	Stiffness	Phase shift	Phase excitation	Force A raw	Displacement raw	HMax	HMax raw	Real Force	Real Stiffness	Contact Depth	Area	Hardness	Reduced Mod.
[#]	[#]	[um]	[s]	[um]	[um]	[um]	[m°]	[m°]	[um]	[uN]	[uN]	[V]	[V]	[V]	[°C]	[uN]	[um]	[N/m]	[°]	[°]	[uN]	[um]	[um]	[um]	[uN]	[N/m]	[um]	[um^2]	[MPa]	[MPa]
278	1.000000	0.002337	7.36777e+06	-52539.1	955.818	-29749.2	0.000000	0.000000	6.002773	-0.025558	NaN	0.000000	0.001565	0.001728	28.08	0.079241	0.001044	75.9174	120.629	-167.526	-0.012609	0.001012	-1.035006	-1.036332	-0.025558	75.9174	-1.034754	-6.659174E+13	3.837990E-16	NaN
278	1.000000	0.042326	7.36777e+06	-52539.1	955.818	-29749.2	0.000000	0.000000	6.042761	-0.057491	NaN	0.000000	0.001596	0.001756	28.0811	0.069218	0.001995	34.7006	-28.2637	-165.987	-0.126361	0.040974	-0.995017	-0.996370	-0.057491	34.7006	-0.993774	-1.870432E+13	3.073667E-15	NaN
278	1.000000	0.082304	7.36777e+06	-52539.1	955.818	-29749.3	0.000000	0.000000	6.082739	-0.053257	NaN	0.000000	0.001586	0.001702	28.0811	0.035356	0.001982	17.8344	-154.364	-168.838	-0.068783	0.081054	-0.955039	-0.956290	-0.053257	17.8344	-0.952800	-5.245445E+12	1.015308E-14	NaN
278	1.000000	0.122362	7.36777e+06	-52539.1	955.819	-29749.3	0.000000	0.000000	6.122800	0.020617	NaN	0.000000	0.001590	0.001754	28.0809	0.057838	0.001953	29.6096	25.7452	-166.843	-0.022631	0.121048	-0.914982	-0.916295	0.020617	29.6096	-0.915504	-1.646253E+12	-1.252353E-14	NaN
278	1.000000	0.162377	7.36777e+06	-52539.1	955.818	-29749.3	0.000000	0.000000	6.162812	-0.058425	NaN	0.000000	0.001580	0.001786	28.0796	0.132140	0.001972	67.0148	163.331	-164.54	-0.119923	0.161048	-0.874967	-0.876295	-0.058425	67.0148	-0.874313	-4.568649E+11	1.278832E-13	NaN
278	1.000000	0.202362	7.36777e+06	-52539.1	955.819	-29749.3	0.000000	0.000000	6.202800	0.011828	NaN	0.000000	0.001599	0.001745	28.0797	0.078536	0.002012	39.0318	-170.492	-165.306	0.016483	0.201059	-0.834981	-0.836285	0.011828	39.0318	-0.835209	-1.350130E+11	-8.760672E-14	NaN
278	1.000000	0.242383	7.36777e+06	-52539.1	955.819	-29749.3	0.000000	0.000000	6.242817	-0.098217	NaN	0.000000	0.001601	0.001708	28.0798	0.108945	0.002071	52.5949	-89.3174	-167.166	-0.125640	0.241084	-0.794960	-0.796260	-0.098217	52.5949	-0.793560	-3.676410E+10	2.671559E-12	NaN
278	1.000000	0.282415	7.36777e+06	-52539.1	955.818	-29749.3	0.000000	0.000000	6.282851	-0.015655	NaN	0.000000	0.001572	0.001705	28.0799	0.045477	0.001861	24.4324	-3.632514	-164.314	-0.044852	0.281070	-0.754929	-0.756273	-0.015655	24.4324	-0.754448	-1.080844E+10	1.448372E-12	NaN
278	1.000000	0.322419	7.36778e+06	-52539.1	955.818	-29749.3	0.000000	0.000000	6.322856	-0.015894	NaN	0.000000	0.001580	0.001697	28.0812	0.026956	0.002142	12.5849	-156.386	-165.813	-0.047343	0.321164	-0.714924	-0.716179	-0.015894	12.5849	-0.713977	-3.036072E+9	5.235190E-12	NaN
278	1.000000	0.362443	7.36778e+06	-52539.1	955.819	-29749.3	0.000000	0.000000	6.362880	-0.015927	NaN	0.000000	0.001601	0.001722	28.0806	0.096199	0.002022	47.568	96.4544	-166.293	-0.013269	0.361140	-0.674901	-0.676203	-0.015927	47.568	-0.674649	-8.810804E+8	1.807694E-11	NaN
278	1.000000	0.402491	7.36778e+06	-52539.1	955.819	-29749.3	0.000000	0.000000	6.402925	-0.087180	NaN	0.000000	0.001551	0.001710	28.0806	0.088407	0.002107	41.9564	-137.407	-167.707	-0.144732	0.401183	-0.634853	-0.636160	-0.087180	41.9564	-0.633294	-2.389212E+8	3.648892E-10	NaN
278	1.000000	0.442495	7.36778e+06	-52539.1	955.818	-29749.3	0.000000	0.000000	6.442928	-0.111625	NaN	0.000000	0.001580	0.001712	28.0795	0.127206	0.001931	65.8801	-174.492	-163.174	-0.029147	0.441147	-0.594849	-0.596197	-0.111625	65.8801	-0.593578	-6.791778E+7	1.643530E-9	NaN
278	1.000000	0.482500	7.36778e+06	-52539.1	955.817	-29749.3	0.000000	0.000000	6.482939	0.036696	NaN	0.000000	0.001555	0.001689	28.0795	0.087203	0.002075	42.0192	-63.1907	-165.438	0.049173	0.481219	-0.554843	-0.556125	0.036696	42.0192	-0.555498	-2.023418E+7	-1.813546E-9	NaN
278	1.000000	0.522542	7.36778e+06	-52539.1	955.819	-29749.3	0.000000	0.000000	6.522979	-0.004923	NaN	0.000000	0.001549	0.001664	28.0795	0.047539	0.001935	24.5637	86.2604	-163.857	-0.028993	0.521185	-0.514801	-0.516158	-0.004923	24.5637	-0.514651	-5.48498e+06	8.975733E-10	NaN
278	1.000000	0.562545	7.36778e+06	-52539.1	955.819	-29749.3	0.000000	0.000000	6.562984	0.030621	NaN	0.000000	0.001531	0.001716	28.0806	0.181191	0.002090	86.7089	-164.222	-166.302	0.055337	0.561220	-0.474799	-0.476123	0.030621	86.7089	-0.475063	-1.53599e+06	-1.993593E-8	NaN
278	1.000000	0.602578	7.36778e+06	-52539.1	955.819	-29749.3	0.000000	0.000000	6.603016	0.019180	NaN	0.000000	0.001564	0.001692	28.0806	0.081702	0.002061	39.6423	-117.361	-162.747	0.124985	0.601231	-0.434766	-0.436112	0.019180	39.6423	-0.435128	-421279	-4.552893E-8	NaN
278	1.000000	0.642569	7.36778e+06	-52539.1	955.819	-29749.3	0.000000	0.000000	6.643005	-0.035487	NaN	0.000000	0.001517	0.001707	28.0809	0.096881	0.002039	47.5102	158.673	-165.973	0.020492	0.641279	-0.394774	-0.396064	-0.035487	47.5102	-0.394214	-110512	3.211142E-7	NaN
278	1.000000	0.682574	7.36778e+06	-52539.1	955.818	-29749.3	0.000000	0.000000	6.683009	-0.059856	NaN	0.000000	0.001614	0.001709	28.0812	0.061354	0.001983	30.9396	-97.5657	-168.646	-0.058390	0.681303	-0.354770	-0.356040	-0.059856	30.9396	-0.353319	-28519.2	2.098798E-6	NaN
278	1.000000	0.722591	7.36778e+06	-52539.1	955.817	-29749.3	0.000000	0.000000	6.723027	-0.032423	NaN	0.000000	0.001531	0.001726	28.08	0.036117	0.002104	17.1668	-26.3628	-167.621	-0.051566	0.721318	-0.314753	-0.316025	-0.032423	17.1668	-0.313336	-7419.64	4.369929E-6	NaN
278	1.000000	0.762600	7.36778e+06	-52539.1	955.818	-29749.3	0.000000	0.000000	6.763036	-0.024729	NaN	0.000000	0.001550	0.001696	28.0801	0.120253	0.002076	57.9114	-172.804	-163.59	-0.053940	0.761315	-0.274743	-0.276029	-0.024729	57.9114	-0.274423	-1943.86	1.272157E-5	NaN
278	1.000000	0.802633	7.36778e+06	-52539.1	955.818	-29749.3	0.000000	0.000000	6.803069	-0.051454	NaN	0.000000	0.001571	0.001717	28.0799	0.065935	0.001829	36.0537	27.6104	-165.148	-0.090448	0.801323	-0.234710	-0.236020	-0.051454	36.0537	-0.233640	-456.953	0.000113	NaN
278	1.000000	0.842651	7.36778e+06	-52539.1	955.818	-29749.3	0.000000	0.000000	6.843089	-0.002968	NaN	0.000000	0.001561	0.001691	28.0815	0.112438	0.001956	57.4926	102.395	-163.74	0.016788	0.841364	-0.194692	-0.195980	-0.002968	57.4926	-0.194653	-107.512	2.760922E-5	NaN
278	1.000000	0.882666	7.36778e+06	-52539.1	955.817	-29749.3	0.000000	0.000000	6.883102	-0.022535	NaN	0.000000	0.001582	0.001743	28.0814	0.032469	0.002059	15.7724	-44.9451	-168.785	0.042567	0.881406	-0.154677	-0.155937	-0.022535	15.7724	-0.153606	-21.0594	0.001070	NaN
278	1.000000	0.922645	7.36778e+06	-52539.1	955.818	-29749.3	0.000000	0.000000	6.923081	-0.033720	NaN	0.000000	0.001596	0.001742	28.0816	0.081155	0.001840	44.1145	49.088	-168.158	-0.020560	0.921369	-0.114699	-0.115975	-0.033720	44.1145	-0.114125	-3.664712	0.009201	NaN
278	1.000000	0.962677	7.36778e+06	-52539.1	955.818	-29749.3	0.000000	0.000000	6.963113	-0.041743	NaN	0.000000	0.001565	0.001734	28.0816	0.078126	0.001987	39.317	132.929	-165.954	0.017046	0.961435	-0.074666	-0.075909	-0.041743	39.317	-0.073870	-0.431684	0.096699	NaN
278	1.000000	1.002716	7.36778e+06	-52539.1	955.818	-29749.3	0.000000	0.000000	7.003150	-0.090626	NaN	0.000000	0.001601	0.001703	28.0803	0.017492	0.001941	9.013432	-113.222	-166.482	-0.019008	1.001410	-0.034627	-0.035933	-0.090626	9.013432	-0.027086	-0.019156	4.730841	NaN
278	1.000000	1.042668	7.36778e+06	-52539.1	955.817	-29749.3	0.000000	0.000000	7.043272	4.054735	NaN	0.000000	0.001600	0.001754	28.0802	4.610530	0.001860	2479.35	7.904004	-166.069	2.466409	1.041400	0.005324	0.004056	4.054735	2479.35	0.004098	0.003325	1219.55	39285.2
278	2.000000	1.055328	7.36778e+06	-52539.1	955.818	-29749.3	0.000000	0.000000	7.056569	19.553	NaN	0.000000	0.001587	0.001727	28.0801	18.8079	0.001997	9417.57	11.9517	179.917	19.4298	1.055022	0.017984	0.017678	19.553	9417.57	0.016427	0.017236	1134.44	65538.4
278	2.000000	1.065338	7.36778e+06	-52539.1	955.818	-29749.3	0.000000	0.000000	7.067540	42.8969	NaN	0.000000	0.001571	0.001726	28.0811	28.9131	0.001785	16195.2	5.823337	179.811	42.6729	1.064966	0.027995	0.027623	42.8969	16195.2	0.026008	0.032875	1304.84	81606.7
278	2.000000	1.075282	7.36778e+06	-52539.1	955.817	-29749.3	0.000000	0.000000	7.078766	74.0871	NaN	0.000000	0.001591	0.001688	28.0823	38.1425	0.001711	22288.2	3.539663	178.362	72.3176	1.074999	0.037938	0.037655	74.0871	22288.2	0.035445	0.052787	1403.5	88630.3
278	2.000000	1.085272	7.36778e+06	-52539.1	955.817	-29749.3	0.000000	0.000000	7.090485	116.107	NaN	0.000000	0.001584	0.001714	28.0812	47.8306	0.001772	26998.9	3.936392	176.828	115.392	1.084919	0.047929	0.047576	116.107	26998.9	0.044703	0.076747	1512.85	89040.6
278	2.000000	1.095199	7.36778e+06	-52539.1	955.817	-29749.3	0.000000	0.000000	7.102136	158.02	NaN	0.000000	0.001560	0.001733	28.0802	58.8277	0.001892	31088.2	2.591865	177.092	152.843	1.094923	0.057856	0.057579	158.02	31088.2	0.054044	0.105320	1500.38	87521.1
278	2.000000	1.105276	7.36778e+06	-52539.1	955.818	-29749.3	0.000000	0.000000	7.114523	214.195	NaN	0.000000	0.001587	0.001719	28.0803	69.0234	0.001811	38115.6	6.522459	171.974	213.316	1.104918	0.067933	0.067574	214.195	38115.6	0.063718	0.139477	1535.7	93244.6
278	2.000000	1.115179	7.36778e+06	-52539.1	955.819	-29749.3	0.000000	0.000000	7.126885	273.99	NaN	0.000000	0.001557	0.001706	28.0804	78.8752	0.001840	42856.8	5.197487	172.19	269.265	1.114887	0.077836	0.077544	273.99	42856.8	0.073041	0.176678	1550.79	93154
278	2.000000	1.125355	7.36778e+06	-52539.1	955.817	-29749.3	0.000000	0.000000	7.139531	334.052	NaN	0.000000	0.001636	0.001633	28.0801	88.7717	0.001827	48587.9	7.305791	169.055	339.826	1.124930	0.088011	0.087587	334.052	48587.9	0.082855	0.220275	1516.52	94584.2
278	2.000000	1.135145	7.36778e+06	-52539.1	955.817	-29749.3	0.000000	0.000000	7.152671	415.493	NaN	0.000000	0.001549	0.001689	28.081	97.053	0.001888	51394.4	1.437959	175.066	411.716	1.134932	0.097801	0.097589	415.493	51394.4	0.091738	0.263590	1576.28	91458.5
278	2.000000	1.144678	7.36778e+06	-52539.1	955.818	-29749.3	0.000000	0.000000	7.165616	498.465	NaN	0.000000	0.001578	0.001689	28.0816	106.453	0.001716	62051.3	3.597586	-9.136569	491.997	1.144444	0.107335	0.107101	498.465	62051.3	0.101310	0.314305	1585.93	101123