Folder: unikorn_login/remote_trans/data/nanoindenter/0828-1/data/Data_2025-08-06,11h17m57s (part 61)

File: 2025-07-22_16-23-58_1_139.txt
2025-07-22, 16:23:58, 1
Index	Phase	Displacement	Time	Pos X	Pos Y	Pos Z	Rot A	Rot B	Piezo Z	Force A	Force B	Gripper	Voltage A	Voltage B	Temperature	Amplitude force	Amplitude pos	Stiffness	Phase shift	Phase excitation	Force A raw	Displacement raw	HMax	HMax raw	Real Force	Real Stiffness	Contact Depth	Area	Hardness	Reduced Mod.
[#]	[#]	[um]	[s]	[um]	[um]	[um]	[m°]	[m°]	[um]	[uN]	[uN]	[V]	[V]	[V]	[°C]	[uN]	[um]	[N/m]	[°]	[°]	[uN]	[um]	[um]	[um]	[uN]	[N/m]	[um]	[um^2]	[MPa]	[MPa]
139	1.000000	0.002059	7.3664e+06	-45589.1	955.818	-29772.4	0.000000	0.000000	6.002796	-0.025487	NaN	0.000000	0.001654	0.001609	28.129	0.066560	0.000977	68.1178	-5.499083	-169.293	-0.025892	0.000754	-1.057880	-1.059185	-0.025487	68.1178	-1.057600	-1.350708E+14	1.886901E-16	NaN
139	1.000000	0.042010	7.3664e+06	-45589.1	955.818	-29772.4	0.000000	0.000000	6.042748	-0.017712	NaN	0.000000	0.001649	0.001644	28.1268	0.137820	0.002093	65.8522	-53.2943	-163.594	-0.032799	0.040672	-1.017929	-1.019267	-0.017712	65.8522	-1.017727	-3.929822E+13	4.507147E-16	NaN
139	1.000000	0.082002	7.3664e+06	-45589.1	955.818	-29772.4	0.000000	0.000000	6.082742	0.040263	NaN	0.000000	0.001618	0.001646	28.1284	0.064976	0.001949	33.3428	11.3087	-163.839	-0.058846	0.080689	-0.977937	-0.979250	0.040263	33.3428	-0.978843	-1.177112E+13	-3.420516E-15	NaN
139	1.000000	0.122049	7.3664e+06	-45589.1	955.818	-29772.4	0.000000	0.000000	6.122786	-0.021010	NaN	0.000000	0.001591	0.001619	28.127	0.031865	0.002065	15.4323	140.38	-165.384	0.003627	0.120711	-0.937890	-0.939228	-0.021010	15.4323	-0.936869	-3.198133E+12	6.569564E-15	NaN
139	1.000000	0.162048	7.3664e+06	-45589.1	955.818	-29772.4	0.000000	0.000000	6.162786	-0.023996	NaN	0.000000	0.001647	0.001627	28.1295	0.115151	0.002046	56.2776	136.673	-166.241	-0.111534	0.160694	-0.897891	-0.899245	-0.023996	56.2776	-0.897571	-9.424261E+11	2.546221E-14	NaN
139	1.000000	0.202064	7.3664e+06	-45589.1	955.818	-29772.4	0.000000	0.000000	6.202798	-0.092068	NaN	0.000000	0.001681	0.001616	28.1289	0.031207	0.001994	15.6531	-6.534029	-169.6	-0.052919	0.200730	-0.857876	-0.859209	-0.092068	15.6531	-0.853464	-2.385856E+11	3.858914E-13	NaN
139	1.000000	0.242125	7.3664e+06	-45589.1	955.818	-29772.4	0.000000	0.000000	6.242864	0.007347	NaN	0.000000	0.001634	0.001645	28.1299	0.044277	0.002034	21.7644	51.6987	-166.784	-0.006168	0.240783	-0.817814	-0.819156	0.007347	21.7644	-0.818067	-7.906756E+10	-9.292376E-14	NaN
139	1.000000	0.282101	7.3664e+06	-45589.1	955.819	-29772.4	0.000000	0.000000	6.282838	-0.028235	NaN	0.000000	0.001687	0.001659	28.1294	0.054096	0.001856	29.1463	-148.101	-166.172	0.056471	0.280794	-0.777838	-0.779145	-0.028235	29.1463	-0.777112	-2.197774E+10	1.284727E-12	NaN
139	1.000000	0.322141	7.3664e+06	-45589.1	955.818	-29772.4	0.000000	0.000000	6.322881	0.042378	NaN	0.000000	0.001661	0.001597	28.1289	0.030729	0.001912	16.0756	-69.8959	-164.868	0.037819	0.320794	-0.737799	-0.739145	0.042378	16.0756	-0.739776	-6.823411E+9	-6.210747E-12	NaN
139	1.000000	0.362164	7.3664e+06	-45589.1	955.818	-29772.4	0.000000	0.000000	6.362904	0.037124	NaN	0.000000	0.001620	0.001604	28.1283	0.022569	0.001997	11.3016	-162.95	-167.361	0.093367	0.360822	-0.697775	-0.699117	0.037124	11.3016	-0.700238	-1.971449E+9	-1.883066E-11	NaN
139	1.000000	0.402139	7.3664e+06	-45589.1	955.819	-29772.4	0.000000	0.000000	6.402876	-0.042939	NaN	0.000000	0.001674	0.001631	28.1288	0.146765	0.002006	73.1626	176.511	-166.464	-0.064289	0.400807	-0.657800	-0.659132	-0.042939	73.1626	-0.657360	-5.108590E+8	8.405335E-11	NaN
139	1.000000	0.442175	7.3664e+06	-45589.1	955.819	-29772.4	0.000000	0.000000	6.442913	0.004792	NaN	0.000000	0.001591	0.001690	28.129	0.145642	0.002072	70.2808	44.8516	-165.836	-0.009099	0.440879	-0.617764	-0.619060	0.004792	70.2808	-0.617816	-1.464212E+8	-3.273005E-11	NaN
139	1.000000	0.482198	7.3664e+06	-45589.1	955.818	-29772.4	0.000000	0.000000	6.482935	-0.022232	NaN	0.000000	0.001635	0.001624	28.13	0.092742	0.001978	46.8954	175.705	-161.262	-0.061876	0.480894	-0.577741	-0.579046	-0.022232	46.8954	-0.577386	-4.061072E+7	5.474438E-10	NaN
139	1.000000	0.522211	7.3664e+06	-45589.1	955.818	-29772.4	0.000000	0.000000	6.522947	-0.069224	NaN	0.000000	0.001616	0.001661	28.1289	0.070653	0.001985	35.6003	86.9174	-166.178	-0.049678	0.520862	-0.537728	-0.539077	-0.069224	35.6003	-0.536269	-1.095484E+7	6.319015E-9	NaN
139	1.000000	0.562249	7.3664e+06	-45589.1	955.818	-29772.4	0.000000	0.000000	6.562986	-0.030727	NaN	0.000000	0.001593	0.001630	28.129	0.054458	0.001968	27.6748	56.0203	-164.667	-0.050844	0.560915	-0.497690	-0.499024	-0.030727	27.6748	-0.496858	-3.09862e+06	9.916215E-9	NaN
139	1.000000	0.602234	7.3664e+06	-45589.1	955.819	-29772.4	0.000000	0.000000	6.602972	-0.003206	NaN	0.000000	0.001627	0.001620	28.1281	0.059905	0.001915	31.2767	73.8868	-168.487	-0.058820	0.600952	-0.457705	-0.458987	-0.003206	31.2767	-0.457628	-874345	3.666930E-9	NaN
139	1.000000	0.642255	7.3664e+06	-45589.1	955.818	-29772.4	0.000000	0.000000	6.642993	-0.024407	NaN	0.000000	0.001621	0.001589	28.1293	0.082580	0.002006	41.1754	-35.8899	-165.303	-0.015503	0.640929	-0.417684	-0.419010	-0.024407	41.1754	-0.417239	-235097	1.038176E-7	NaN
139	1.000000	0.682269	7.3664e+06	-45589.1	955.818	-29772.4	0.000000	0.000000	6.683007	-0.030053	NaN	0.000000	0.001644	0.001617	28.1285	0.075067	0.001986	37.8035	135.238	-165.59	-0.023851	0.681002	-0.377670	-0.378937	-0.030053	37.8035	-0.377074	-62787	4.786430E-7	NaN
139	1.000000	0.722293	7.3664e+06	-45589.1	955.819	-29772.4	0.000000	0.000000	6.723032	0.009845	NaN	0.000000	0.001622	0.001614	28.131	0.090817	0.001973	46.0233	125.869	-165.222	-0.063433	0.720957	-0.337646	-0.338982	0.009845	46.0233	-0.337807	-16965.6	-5.803029E-7	NaN
139	1.000000	0.762310	7.3664e+06	-45589.1	955.818	-29772.4	0.000000	0.000000	6.763046	-0.049832	NaN	0.000000	0.001615	0.001605	28.13	0.048128	0.002016	23.8705	-24.7538	-169.981	-0.023752	0.760995	-0.297629	-0.298944	-0.049832	23.8705	-0.296063	-4111.15	1.212116E-5	NaN
139	1.000000	0.802313	7.3664e+06	-45589.1	955.818	-29772.4	0.000000	0.000000	6.803052	0.005297	NaN	0.000000	0.001626	0.001639	28.1311	0.100181	0.002053	48.7873	-59.5666	-165.988	-0.008632	0.801059	-0.257626	-0.258880	0.005297	48.7873	-0.257707	-1080.79	-4.900680E-6	NaN
139	1.000000	0.842351	7.3664e+06	-45589.1	955.818	-29772.4	0.000000	0.000000	6.843088	-0.033617	NaN	0.000000	0.001562	0.001657	28.1285	0.025434	0.001873	13.5778	-108.079	-165.34	-0.040223	0.841076	-0.217589	-0.218863	-0.033617	13.5778	-0.215732	-237.288	0.000142	NaN
139	1.000000	0.882367	7.3664e+06	-45589.1	955.818	-29772.4	0.000000	0.000000	6.883104	-0.016628	NaN	0.000000	0.001616	0.001605	28.1297	0.019124	0.002082	9.185705	-23.9691	-164.41	-0.060318	0.881049	-0.177572	-0.178890	-0.016628	9.185705	-0.176215	-52.581	0.000316	NaN
139	1.000000	0.922354	7.3664e+06	-45589.1	955.818	-29772.4	0.000000	0.000000	6.923090	-0.053446	NaN	0.000000	0.001625	0.001608	28.1286	0.051088	0.002027	25.1984	-173.599	-168.146	-0.029238	0.921090	-0.137585	-0.138849	-0.053446	25.1984	-0.135994	-9.936649	0.005379	NaN
139	1.000000	0.962409	7.3664e+06	-45589.1	955.818	-29772.4	0.000000	0.000000	6.963148	0.009134	NaN	0.000000	0.001622	0.001602	28.1297	0.067339	0.001943	34.6506	24.1292	-167.648	0.057326	0.961101	-0.097530	-0.098838	0.009134	34.6506	-0.097728	-1.625907	-0.005618	NaN
139	1.000000	1.002432	7.3664e+06	-45589.1	955.817	-29772.4	0.000000	0.000000	7.003170	-0.018426	NaN	0.000000	0.001642	0.001569	28.1298	0.004784	0.002013	2.376455	-162.878	-165.451	-0.044150	1.001080	-0.057507	-0.058859	-0.018426	2.376455	-0.051692	-0.102619	0.179557	NaN
139	2.000000	1.041883	7.3664e+06	-45589.1	955.817	-29772.4	0.000000	0.000000	7.043010	9.451785	NaN	0.000000	0.001723	0.001646	28.1306	2.141618	0.001838	1165.35	12.0328	-169.208	9.428405	1.041058	-0.018056	-0.018881	9.451785	1165.35	-0.024139	-0.016023	-589.905	NaN
139	2.000000	1.051972	7.3664e+06	-45589.1	955.818	-29772.4	0.000000	0.000000	7.053212	12.1936	NaN	0.000000	0.001682	0.001650	28.1296	2.725666	0.002148	1268.82	10.6651	-169.352	12.2564	1.051658	-0.007967	-0.008281	12.1936	1268.82	-0.015174	-0.009380	-1299.93	NaN
139	2.000000	1.061903	7.3664e+06	-45589.1	955.819	-29772.4	0.000000	0.000000	7.063184	13.1822	NaN	0.000000	0.001688	0.001628	28.1298	2.942548	0.002071	1420.61	8.820983	-167.607	13.2237	1.061629	0.001964	0.001690	13.1822	1420.61	-0.004995	-0.003414	-3861.59	NaN
139	2.000000	1.071898	7.3664e+06	-45589.1	955.819	-29772.4	0.000000	0.000000	7.073134	12.1025	NaN	0.000000	0.001603	0.001597	28.1285	3.518219	0.001941	1812.49	8.661894	-167.849	12.0103	1.071616	0.011959	0.011677	12.1025	1812.49	0.006951	0.005986	2021.93	21404
139	2.000000	1.081893	7.3664e+06	-45589.1	955.818	-29772.4	0.000000	0.000000	7.083588	23.2708	NaN	0.000000	0.001595	0.001643	28.1296	13.4202	0.001931	6951.34	6.079033	-171.799	22.8833	1.081541	0.021954	0.021602	23.2708	6951.34	0.019443	0.021675	1073.65	43138.7
139	2.000000	1.091874	7.3664e+06	-45589.1	955.819	-29772.4	0.000000	0.000000	7.094388	43.1972	NaN	0.000000	0.001636	0.001687	28.1295	26.4434	0.001989	13297.5	9.554916	179.165	42.8216	1.091580	0.031935	0.031641	43.1972	13297.5	0.029499	0.039711	1087.79	60966.2
139	2.000000	1.101854	7.3664e+06	-45589.1	955.819	-29772.4	0.000000	0.000000	7.105631	73.9026	NaN	0.000000	0.001661	0.001684	28.1313	34.7967	0.001856	18746.3	7.261324	177.094	73.5476	1.101530	0.041915	0.041591	73.9026	18746.3	0.038959	0.061365	1204.32	69140
139	2.000000	1.111825	7.3664e+06	-45589.1	955.819	-29772.4	0.000000	0.000000	7.116985	107.561	NaN	0.000000	0.001627	0.001672	28.1304	44.2462	0.001688	26213.7	4.753800	176.184	106.354	1.111575	0.051886	0.051636	107.561	26213.7	0.048808	0.088765	1211.75	80386.2
139	2.000000	1.121895	7.3664e+06	-45589.1	955.819	-29772.4	0.000000	0.000000	7.128836	150.893	NaN	0.000000	0.001626	0.001675	28.1316	54.8559	0.001780	30823.4	6.483389	173.03	152.165	1.121565	0.061956	0.061626	150.893	30823.4	0.058284	0.119728	1260.29	81386.9
139	2.000000	1.131844	7.3664e+06	-45589.1	955.819	-29772.4	0.000000	0.000000	7.140887	202.002	NaN	0.000000	0.001620	0.001680	28.1286	64.3022	0.001892	33979.9	10.0896	168.952	201.667	1.131438	0.071905	0.071499	202.002	33979.9	0.067447	0.153856	1312.93	79147.7
139	2.000000	1.140299	7.3664e+06	-45589.1	955.819	-29772.4	0.000000	0.000000	7.151155	246.135	NaN	0.000000	0.001646	0.001680	28.096	71.56	0.001847	38734.6	10.5705	-12.9434	243.643	1.139880	0.080359	0.079941	246.135	38734.6	0.075594	0.187583	1312.14	81710

File: 2025-07-22_16-23-58_1_140.txt
2025-07-22, 16:23:58, 1
Index	Phase	Displacement	Time	Pos X	Pos Y	Pos Z	Rot A	Rot B	Piezo Z	Force A	Force B	Gripper	Voltage A	Voltage B	Temperature	Amplitude force	Amplitude pos	Stiffness	Phase shift	Phase excitation	Force A raw	Displacement raw	HMax	HMax raw	Real Force	Real Stiffness	Contact Depth	Area	Hardness	Reduced Mod.
[#]	[#]	[um]	[s]	[um]	[um]	[um]	[m°]	[m°]	[um]	[uN]	[uN]	[V]	[V]	[V]	[°C]	[uN]	[um]	[N/m]	[°]	[°]	[uN]	[um]	[um]	[um]	[uN]	[N/m]	[um]	[um^2]	[MPa]	[MPa]
140	1.000000	0.002803	7.36641e+06	-45639.1	955.818	-29772.3	0.000000	0.000000	6.002793	-0.034790	NaN	0.000000	0.001604	0.001677	28.0963	0.095754	0.000952	100.625	0.775522	-163.091	-0.073279	0.001532	-0.990614	-0.991886	-0.034790	100.625	-0.990355	-1.682257E+13	2.068041E-15	NaN
140	1.000000	0.040754	7.36641e+06	-45639.1	955.818	-29772.3	0.000000	0.000000	6.040745	-0.013617	NaN	0.000000	0.001603	0.001689	28.0809	0.048754	0.001993	24.463	-47.0774	12.754	-0.003224	0.039448	-0.952664	-0.953970	-0.013617	24.463	-0.952246	-5.156080E+12	2.640930E-15	NaN
140	1.000000	0.078759	7.36641e+06	-45639.1	955.818	-29772.3	0.000000	0.000000	6.078750	-0.007702	NaN	0.000000	0.001593	0.001698	28.0982	0.134319	0.001859	72.2547	-95.0049	-167.267	-0.106127	0.077436	-0.914659	-0.915982	-0.007702	72.2547	-0.914579	-1.599586E+12	4.814867E-15	NaN
140	1.000000	0.116788	7.36641e+06	-45639.1	955.819	-29772.3	0.000000	0.000000	6.116779	-0.003850	NaN	0.000000	0.001640	0.001708	28.1307	0.037604	0.001966	19.1251	127.322	14.6726	0.014790	0.115461	-0.876630	-0.877956	-0.003850	19.1251	-0.876479	-4.887464E+11	7.876348E-15	NaN
140	1.000000	0.154816	7.36641e+06	-45639.1	955.818	-29772.3	0.000000	0.000000	6.154807	0.004352	NaN	0.000000	0.001619	0.001667	28.0944	0.075426	0.002007	37.5824	18.8232	-167.205	0.019545	0.153465	-0.838602	-0.839953	0.004352	37.5824	-0.838689	-1.504972E+11	-2.891463E-14	NaN
140	1.000000	0.192800	7.36641e+06	-45639.1	955.819	-29772.3	0.000000	0.000000	6.192791	-0.013213	NaN	0.000000	0.001591	0.001704	28.0822	0.056278	0.001873	30.0404	1.375160	14.0627	-0.042302	0.191470	-0.800617	-0.801948	-0.013213	30.0404	-0.800288	-4.536977E+10	2.912206E-13	NaN
140	1.000000	0.230844	7.36641e+06	-45639.1	955.818	-29772.3	0.000000	0.000000	6.230834	-0.026200	NaN	0.000000	0.001579	0.001648	28.0996	0.079083	0.001984	39.8592	-88.2616	-167.867	0.084889	0.229480	-0.762574	-0.763938	-0.026200	39.8592	-0.762081	-1.372793E+10	1.908535E-12	NaN
140	1.000000	0.268883	7.36641e+06	-45639.1	955.818	-29772.3	0.000000	0.000000	6.268873	-0.046051	NaN	0.000000	0.001557	0.001719	28.1312	0.053905	0.001964	27.4408	21.4805	11.7341	-0.070684	0.267499	-0.724534	-0.725918	-0.046051	27.4408	-0.723276	-4.065753E+9	1.132647E-11	NaN
140	1.000000	0.306863	7.36641e+06	-45639.1	955.818	-29772.3	0.000000	0.000000	6.306850	-0.080626	NaN	0.000000	0.001541	0.001700	28.0944	0.066254	0.002038	32.5077	-141.571	-166.739	-0.021521	0.305584	-0.686555	-0.687833	-0.080626	32.5077	-0.684695	-1.208938E+9	6.669146E-11	NaN
140	1.000000	0.344891	7.36641e+06	-45639.1	955.818	-29772.3	0.000000	0.000000	6.344882	-0.023063	NaN	0.000000	0.001600	0.001641	28.08	0.077587	0.002078	37.3336	79.0675	14.6881	0.041191	0.343537	-0.648526	-0.649880	-0.023063	37.3336	-0.648063	-3.809623E+8	6.053900E-11	NaN
140	1.000000	0.382908	7.36641e+06	-45639.1	955.818	-29772.3	0.000000	0.000000	6.382899	-0.017845	NaN	0.000000	0.001577	0.001683	28.0991	0.019010	0.001899	10.0109	106.27	-163.29	0.022305	0.381581	-0.610510	-0.611837	-0.017845	10.0109	-0.609173	-1.113603E+8	1.602490E-10	NaN
140	1.000000	0.420906	7.36641e+06	-45639.1	955.818	-29772.3	0.000000	0.000000	6.420895	-0.058969	NaN	0.000000	0.001584	0.001696	28.1299	0.115166	0.002037	56.5487	27.3147	16.3404	-0.020239	0.419539	-0.572511	-0.573878	-0.058969	56.5487	-0.571729	-3.392515E+7	1.738207E-9	NaN
140	1.000000	0.458919	7.36641e+06	-45639.1	955.818	-29772.3	0.000000	0.000000	6.458910	-0.009700	NaN	0.000000	0.001575	0.001716	28.093	0.042491	0.001956	21.7272	-101.243	-165.18	-0.023412	0.457596	-0.534498	-0.535822	-0.009700	21.7272	-0.534163	-1.024189E+7	9.471381E-10	NaN
140	1.000000	0.496961	7.36641e+06	-45639.1	955.818	-29772.3	0.000000	0.000000	6.496951	-0.019846	NaN	0.000000	0.001562	0.001648	28.0811	0.019074	0.002040	9.348198	-106.081	13.7534	-0.012407	0.495616	-0.496457	-0.497802	-0.019846	9.348198	-0.494865	-2.90635e+06	6.828387E-9	NaN
140	1.000000	0.534962	7.36641e+06	-45639.1	955.819	-29772.3	0.000000	0.000000	6.534953	0.000931	NaN	0.000000	0.001563	0.001640	28.1029	0.010996	0.001967	5.590422	66.7351	-164.577	0.072591	0.533645	-0.458456	-0.459773	0.000931	5.590422	-0.458580	-901710	-1.033007E-9	NaN
140	1.000000	0.572964	7.36641e+06	-45639.1	955.818	-29772.3	0.000000	0.000000	6.572956	0.013450	NaN	0.000000	0.001562	0.001619	28.1304	0.116073	0.001904	60.9562	-70.4336	12.7997	-0.039546	0.571637	-0.420454	-0.421781	0.013450	60.9562	-0.420619	-262541	-5.123132E-8	NaN
140	1.000000	0.610996	7.36641e+06	-45639.1	955.818	-29772.3	0.000000	0.000000	6.610985	-0.038703	NaN	0.000000	0.001486	0.001646	28.0934	0.049875	0.002011	24.8047	177.985	-165.964	-0.000872	0.609712	-0.382422	-0.383705	-0.038703	24.8047	-0.381252	-72085.6	5.369056E-7	NaN
140	1.000000	0.649013	7.36641e+06	-45639.1	955.818	-29772.3	0.000000	0.000000	6.649002	-0.071231	NaN	0.000000	0.001528	0.001683	28.0787	0.055032	0.002043	26.9413	-89.8111	13.8004	-0.021670	0.647657	-0.344404	-0.345761	-0.071231	26.9413	-0.342421	-19807.6	3.596126E-6	NaN
140	1.000000	0.687020	7.36641e+06	-45639.1	955.818	-29772.3	0.000000	0.000000	6.687012	0.017853	NaN	0.000000	0.001561	0.001668	28.1019	0.067586	0.002071	32.6413	-80.0389	-165.046	-0.020560	0.685729	-0.306398	-0.307688	0.017853	32.6413	-0.306808	-5939.81	-3.005631E-6	NaN
140	1.000000	0.725041	7.36641e+06	-45639.1	955.819	-29772.3	0.000000	0.000000	6.725030	-0.049606	NaN	0.000000	0.001557	0.001709	28.1285	0.054266	0.001929	28.1382	-134.743	15.3779	0.029362	0.723689	-0.268377	-0.269728	-0.049606	28.1382	-0.267055	-1502.18	3.302251E-5	NaN
140	1.000000	0.763078	7.36641e+06	-45639.1	955.819	-29772.3	0.000000	0.000000	6.763067	-0.050534	NaN	0.000000	0.001655	0.001708	28.0938	0.048201	0.001910	25.2315	-24.695	-167.71	-0.004647	0.761756	-0.230339	-0.231661	-0.050534	25.2315	-0.228837	-383.835	0.000132	NaN
140	1.000000	0.801073	7.36641e+06	-45639.1	955.818	-29772.3	0.000000	0.000000	6.801066	0.032405	NaN	0.000000	0.001586	0.001717	28.0806	0.081881	0.002005	40.8298	108.137	13.5593	-0.002059	0.799715	-0.192344	-0.193703	0.032405	40.8298	-0.192940	-100.696	-0.000322	NaN
140	1.000000	0.839072	7.36641e+06	-45639.1	955.819	-29772.3	0.000000	0.000000	6.839063	0.000804	NaN	0.000000	0.001558	0.001728	28.1039	0.075368	0.001940	38.8548	-35.8675	-166.202	0.001922	0.837799	-0.154346	-0.155619	0.000804	38.8548	-0.154361	-21.7306	-3.697584E-5	NaN
140	1.000000	0.877105	7.36641e+06	-45639.1	955.818	-29772.3	0.000000	0.000000	6.877094	-0.033299	NaN	0.000000	0.001621	0.001683	28.1276	0.091262	0.002000	45.6366	70.4503	13.2286	0.009720	0.875758	-0.116313	-0.117660	-0.033299	45.6366	-0.115766	-3.961557	0.008406	NaN
140	1.000000	0.915120	7.36641e+06	-45639.1	955.82	-29772.3	0.000000	0.000000	6.915109	-0.073719	NaN	0.000000	0.001581	0.001723	28.0911	0.120803	0.001936	62.3931	-54.3308	-162.294	-0.077038	0.913808	-0.078297	-0.079609	-0.073719	62.3931	-0.077411	-0.532581	0.138418	NaN
140	1.000000	0.953120	7.36641e+06	-45639.1	955.818	-29772.3	0.000000	0.000000	6.953111	-0.009900	NaN	0.000000	0.001454	0.001767	28.0796	0.044692	0.001999	22.3555	-174.285	13.1907	0.012769	0.951772	-0.040297	-0.041645	-0.009900	22.3555	-0.039965	-0.045112	0.219460	NaN
140	1.000000	0.991141	7.36641e+06	-45639.1	955.817	-29772.3	0.000000	0.000000	6.991132	-0.006254	NaN	0.000000	0.001520	0.001729	28.1037	0.077716	0.002017	38.5375	107.308	-166.704	-0.024315	0.989879	-0.002277	-0.003539	-0.006254	38.5375	-0.002155	-0.001546	4.044362	NaN
140	2.000000	1.008138	7.36641e+06	-45639.1	955.818	-29772.3	0.000000	0.000000	7.009101	23.637	NaN	0.000000	0.001588	0.001709	28.1291	15.7702	0.001750	9011.12	5.095470	5.493841	23.0449	1.007771	0.014720	0.014353	23.637	9011.12	0.012753	0.012404	1905.56	73920.9
140	2.000000	1.017649	7.36641e+06	-45639.1	955.818	-29772.3	0.000000	0.000000	7.019382	42.383	NaN	0.000000	0.001592	0.001681	28.0926	25.6892	0.001810	14190	5.362399	-178.756	42.2182	1.017305	0.024231	0.023888	42.383	14190	0.021991	0.025768	1644.82	80764.1
140	2.000000	1.027100	7.36641e+06	-45639.1	955.819	-29772.3	0.000000	0.000000	7.029880	67.8295	NaN	0.000000	0.001542	0.001698	28.0796	33.1934	0.001773	18725.2	4.270867	-0.019652	66.888	1.026719	0.033683	0.033301	67.8295	18725.2	0.030966	0.042769	1585.94	82724.5
140	2.000000	1.036487	7.36641e+06	-45639.1	955.819	-29772.3	0.000000	0.000000	7.040814	105.457	NaN	0.000000	0.001552	0.001691	28.1065	41.072	0.001725	23807.7	-0.645763	-177.527	101.972	1.036233	0.043070	0.042816	105.457	23807.7	0.039748	0.063377	1663.96	86402
140	2.000000	1.046023	7.36641e+06	-45639.1	955.819	-29772.3	0.000000	0.000000	7.052096	147.943	NaN	0.000000	0.001554	0.001657	28.1288	51.4891	0.001916	26879.2	4.461150	-3.342196	145.724	1.045722	0.052605	0.052305	147.943	26879.2	0.048477	0.087764	1685.7	82895.8
140	2.000000	1.055539	7.36641e+06	-45639.1	955.82	-29772.3	0.000000	0.000000	7.063503	193.94	NaN	0.000000	0.001541	0.001677	28.09	60.4185	0.001870	32314.5	5.276627	174.35	193.789	1.055239	0.062121	0.061822	193.94	32314.5	0.057620	0.117413	1651.78	86161.3
140	2.000000	1.064961	7.36641e+06	-45639.1	955.82	-29772.3	0.000000	0.000000	7.075052	245.685	NaN	0.000000	0.001558	0.001698	28.08	68.7124	0.001722	39897	2.602294	-5.336182	240.915	1.064710	0.071543	0.071292	245.685	39897	0.066925	0.151805	1618.43	93555.8
140	2.000000	1.074496	7.36641e+06	-45639.1	955.819	-29772.3	0.000000	0.000000	7.087289	311.424	NaN	0.000000	0.001564	0.001691	28.1056	77.8791	0.001805	43141.9	2.187313	175.113	310.413	1.074243	0.081079	0.080826	311.424	43141.9	0.075665	0.187891	1657.47	90932.6
140	2.000000	1.084004	7.36641e+06	-45639.1	955.821	-29772.3	0.000000	0.000000	7.099735	382.891	NaN	0.000000	0.001570	0.001736	28.1297	84.4477	0.001731	48779.6	-1.515983	-1.902288	379.949	1.083726	0.090586	0.090309	382.891	48779.6	0.084699	0.228969	1672.24	93137.1
140	2.000000	1.093591	7.36641e+06	-45639.1	955.82	-29772.3	0.000000	0.000000	7.112235	453.742	NaN	0.000000	0.001535	0.001761	28.0905	94.6384	0.001842	51365.1	5.817928	170.429	456.379	1.093163	0.100174	0.099745	453.742	51365.1	0.093548	0.272861	1662.91	89840.3
140	2.000000	1.099386	7.36641e+06	-45639.1	955.819	-29772.3	0.000000	0.000000	7.120140	505.084	NaN	0.000000	0.001516	0.001735	28.0908	100.663	0.001868	53889.5	3.294552	172.487	499.6	1.099133	0.105968	0.105716	505.084	53889.5	0.098939	0.301353	1676.05	89689.1