Folder: unikorn_login/remote_trans/data/nanoindenter/0828-1/data/Data_2025-08-06,11h17m57s (part 8)

File: 2025-07-22_16-23-58_1_14.txt
2025-07-22, 16:23:58, 1
Index	Phase	Displacement	Time	Pos X	Pos Y	Pos Z	Rot A	Rot B	Piezo Z	Force A	Force B	Gripper	Voltage A	Voltage B	Temperature	Amplitude force	Amplitude pos	Stiffness	Phase shift	Phase excitation	Force A raw	Displacement raw	HMax	HMax raw	Real Force	Real Stiffness	Contact Depth	Area	Hardness	Reduced Mod.
[#]	[#]	[um]	[s]	[um]	[um]	[um]	[m°]	[m°]	[um]	[uN]	[uN]	[V]	[V]	[V]	[°C]	[uN]	[um]	[N/m]	[°]	[°]	[uN]	[um]	[um]	[um]	[uN]	[N/m]	[um]	[um^2]	[MPa]	[MPa]
14	1.000000	0.001902	7.36518e+06	-39339.1	955.818	-29794.9	0.000000	0.000000	6.002739	-0.052748	NaN	0.000000	0.001607	0.001827	28.1311	0.086500	0.000951	90.9793	-150.105	178.455	-0.020947	0.000687	-1.008575	-1.009790	-0.052748	90.9793	-1.008140	-2.919797E+13	1.806554E-15	NaN
14	1.000000	0.039877	7.36518e+06	-39339.1	955.816	-29794.9	0.000000	0.000000	6.040714	-0.039639	NaN	0.000000	0.001487	0.001812	28.0917	0.109614	0.001989	55.1046	62.8682	-2.026538	-0.033698	0.038545	-0.970601	-0.971933	-0.039639	55.1046	-0.970061	-8.963736E+12	4.422158E-15	NaN
14	1.000000	0.077853	7.36518e+06	-39339.1	955.817	-29794.9	0.000000	0.000000	6.078694	0.056381	NaN	0.000000	0.001553	0.001824	28.0818	0.040536	0.002021	20.0537	80.2957	177.861	0.053890	0.076555	-0.932624	-0.933923	0.056381	20.0537	-0.934733	-2.992748E+12	-1.883914E-14	NaN
14	1.000000	0.115919	7.36518e+06	-39339.1	955.818	-29794.9	0.000000	0.000000	6.116757	-0.019764	NaN	0.000000	0.001551	0.001789	28.1092	0.066984	0.001963	34.1163	162.745	-0.941262	-0.016200	0.114544	-0.894558	-0.895933	-0.019764	34.1163	-0.894124	-8.465527E+11	2.334600E-14	NaN
14	1.000000	0.153901	7.36518e+06	-39339.1	955.818	-29794.9	0.000000	0.000000	6.154739	-0.026955	NaN	0.000000	0.001519	0.001816	28.1307	0.041872	0.001967	21.2911	-146.909	178.382	-0.072102	0.152599	-0.856576	-0.857879	-0.026955	21.2911	-0.855627	-2.552250E+11	1.056114E-13	NaN
14	1.000000	0.191908	7.36518e+06	-39339.1	955.818	-29794.9	0.000000	0.000000	6.192747	-0.002203	NaN	0.000000	0.001529	0.001780	28.0904	0.051385	0.001809	28.4092	67.5063	-7.963317	0.096272	0.190554	-0.818569	-0.819923	-0.002203	28.4092	-0.818511	-8.017158E+10	2.747856E-14	NaN
14	1.000000	0.229925	7.36518e+06	-39339.1	955.818	-29794.9	0.000000	0.000000	6.230764	-0.004657	NaN	0.000000	0.001500	0.001807	28.0796	0.034280	0.001968	17.4223	76.5005	175.206	-0.070095	0.228569	-0.780553	-0.781908	-0.004657	17.4223	-0.780352	-2.432291E+10	1.914760E-13	NaN
14	1.000000	0.267924	7.36518e+06	-39339.1	955.817	-29794.9	0.000000	0.000000	6.268765	0.053055	NaN	0.000000	0.001490	0.001798	28.1083	0.040035	0.002047	19.556	-110.021	-2.866038	0.036259	0.266568	-0.742554	-0.743910	0.053055	19.556	-0.744588	-7.934938E+9	-6.686261E-12	NaN
14	1.000000	0.305980	7.36518e+06	-39339.1	955.818	-29795	0.000000	0.000000	6.306817	-0.041059	NaN	0.000000	0.001512	0.001860	28.1297	0.112441	0.002028	55.4546	76.2993	173.804	0.006171	0.304668	-0.704498	-0.705809	-0.041059	55.4546	-0.703942	-2.214937E+9	1.853736E-11	NaN
14	1.000000	0.343985	7.36518e+06	-39339.1	955.818	-29795	0.000000	0.000000	6.344823	-0.016574	NaN	0.000000	0.001534	0.001861	28.0903	0.109145	0.002016	54.1402	-152.261	-2.106186	0.066587	0.342576	-0.666493	-0.667901	-0.016574	54.1402	-0.666263	-6.764514E+8	2.450114E-11	NaN
14	1.000000	0.381996	7.36518e+06	-39339.1	955.818	-29795	0.000000	0.000000	6.382832	-0.067164	NaN	0.000000	0.001505	0.001835	28.0817	0.212969	0.001945	109.473	68.9949	176.427	0.038927	0.380705	-0.628482	-0.629773	-0.067164	109.473	-0.628021	-2.022324E+8	3.321140E-10	NaN
14	1.000000	0.420035	7.36518e+06	-39339.1	955.818	-29795	0.000000	0.000000	6.420874	0.005073	NaN	0.000000	0.001546	0.001866	28.109	0.096440	0.001950	49.4565	58.0689	-1.731058	-0.008517	0.418678	-0.590442	-0.591800	0.005073	49.4565	-0.590519	-6.163457E+7	-8.230681E-11	NaN
14	1.000000	0.458011	7.36518e+06	-39339.1	955.819	-29795	0.000000	0.000000	6.458849	-0.034041	NaN	0.000000	0.001540	0.001876	28.1308	0.096180	0.001870	51.4394	89.621	-179.158	-0.045066	0.456717	-0.552466	-0.553761	-0.034041	51.4394	-0.551970	-1.808167E+7	1.882630E-9	NaN
14	1.000000	0.496050	7.36518e+06	-39339.1	955.818	-29795	0.000000	0.000000	6.496888	-0.006454	NaN	0.000000	0.001575	0.001822	28.0889	0.082783	0.002010	41.1767	158.673	-3.866456	0.086914	0.494682	-0.514428	-0.515795	-0.006454	41.1767	-0.514310	-5.4254e+06	1.189561E-9	NaN
14	1.000000	0.534045	7.36518e+06	-39339.1	955.818	-29795	0.000000	0.000000	6.534884	0.000164	NaN	0.000000	0.001550	0.001843	28.0824	0.076216	0.001937	39.3565	52.3149	178.252	0.022824	0.532758	-0.476432	-0.477720	0.000164	39.3565	-0.476436	-1.60551e+06	-1.022846E-10	NaN
14	1.000000	0.572082	7.36518e+06	-39339.1	955.818	-29795	0.000000	0.000000	6.572918	-0.059362	NaN	0.000000	0.001582	0.001830	28.1087	0.055628	0.001949	28.5412	22.9518	-2.409768	0.054149	0.570781	-0.438396	-0.439697	-0.059362	28.5412	-0.436836	-445340	1.332961E-7	NaN
14	1.000000	0.610076	7.36518e+06	-39339.1	955.818	-29795	0.000000	0.000000	6.610917	0.054541	NaN	0.000000	0.001536	0.001818	28.1306	0.059557	0.001898	31.3827	21.3318	-179.724	-0.002095	0.608761	-0.400402	-0.401716	0.054541	31.3827	-0.401705	-141354	-3.858501E-7	NaN
14	1.000000	0.648109	7.36518e+06	-39339.1	955.818	-29795	0.000000	0.000000	6.648948	0.006495	NaN	0.000000	0.001558	0.001788	28.0891	0.026930	0.002105	12.792	-179.768	-3.975081	-0.031950	0.646740	-0.362369	-0.363737	0.006495	12.792	-0.362750	-39045.6	-1.663413E-7	NaN
14	1.000000	0.686114	7.36518e+06	-39339.1	955.818	-29795	0.000000	0.000000	6.686951	-0.041476	NaN	0.000000	0.001584	0.001820	28.0828	0.049014	0.001923	25.4837	74.1185	174.973	-0.028919	0.684808	-0.324364	-0.325669	-0.041476	25.4837	-0.323143	-10348.1	4.008080E-6	NaN
14	1.000000	0.724118	7.36518e+06	-39339.1	955.818	-29795	0.000000	0.000000	6.724958	0.034333	NaN	0.000000	0.001532	0.001796	28.1096	0.106817	0.001969	54.2379	112.215	-4.224393	0.026813	0.722777	-0.286360	-0.287701	0.034333	54.2379	-0.286835	-2991.09	-1.147858E-5	NaN
14	1.000000	0.762156	7.36518e+06	-39339.1	955.819	-29795	0.000000	0.000000	6.762994	-0.010565	NaN	0.000000	0.001618	0.001788	28.129	0.108828	0.001996	54.5185	64.489	174.146	-0.010631	0.760809	-0.248322	-0.249669	-0.010565	54.5185	-0.248176	-770.437	1.371309E-5	NaN
14	1.000000	0.800157	7.36518e+06	-39339.1	955.819	-29795	0.000000	0.000000	6.800997	0.045083	NaN	0.000000	0.001570	0.001769	28.0882	0.031915	0.001969	16.2116	-20.0391	-1.898804	0.105666	0.798830	-0.210321	-0.211648	0.045083	16.2116	-0.212407	-209.762	-0.000215	NaN
14	1.000000	0.838200	7.36518e+06	-39339.1	955.817	-29795	0.000000	0.000000	6.839038	-0.024414	NaN	0.000000	0.001557	0.001806	28.0817	0.052237	0.001977	26.4171	145.201	175.372	-0.107055	0.836838	-0.172278	-0.173639	-0.024414	26.4171	-0.171584	-43.7604	0.000558	NaN
14	1.000000	0.876194	7.36518e+06	-39339.1	955.818	-29795	0.000000	0.000000	6.877031	-0.038164	NaN	0.000000	0.001516	0.001825	28.1116	0.150424	0.002015	74.648	-166.941	-4.947653	0.004330	0.874894	-0.134283	-0.135584	-0.038164	74.648	-0.133900	-9.062524	0.004211	NaN
14	1.000000	0.914210	7.36518e+06	-39339.1	955.819	-29795	0.000000	0.000000	6.915047	-0.046921	NaN	0.000000	0.001553	0.001803	28.1299	0.032801	0.001932	16.9796	-102.9	176.655	0.019310	0.912966	-0.096268	-0.097511	-0.046921	16.9796	-0.094195	-1.352190	0.034700	NaN
14	1.000000	0.952190	7.36518e+06	-39339.1	955.817	-29795	0.000000	0.000000	6.953033	0.088985	NaN	0.000000	0.001526	0.001866	28.0891	0.065481	0.001938	33.7877	100.186	-3.783529	-0.001252	0.950888	-0.058287	-0.059590	0.088985	33.7877	-0.060262	-0.183238	-0.485626	NaN
14	1.000000	0.990242	7.36518e+06	-39339.1	955.818	-29795	0.000000	0.000000	6.991079	-0.036015	NaN	0.000000	0.001560	0.001846	28.0825	0.041621	0.002029	20.5095	-67.0014	178.089	-0.038980	0.988982	-0.020235	-0.021496	-0.036015	20.5095	-0.018918	-0.011788	3.055367	NaN
14	2.000000	1.021293	7.36518e+06	-39339.1	955.819	-29795	0.000000	0.000000	7.022683	13.4312	NaN	0.000000	0.001548	0.001803	28.1114	12.2274	0.001679	7281.4	7.694060	-13.2468	12.3792	1.021063	0.010815	0.010586	13.4312	7281.4	0.009432	0.008557	1569.67	71917.5
14	2.000000	1.030804	7.36518e+06	-39339.1	955.819	-29795	0.000000	0.000000	7.033062	34.5491	NaN	0.000000	0.001576	0.001856	28.1277	22.2622	0.001702	13079.1	4.258740	166.677	34.6765	1.030339	0.020326	0.019861	34.5491	13079.1	0.018345	0.020008	1726.77	84479.4
14	2.000000	1.040181	7.36518e+06	-39339.1	955.819	-29795	0.000000	0.000000	7.043503	60.4364	NaN	0.000000	0.001604	0.001843	28.0874	30.6757	0.001653	18556	0.568404	-15.5643	56.5317	1.039864	0.029703	0.029386	60.4364	18556	0.027260	0.035256	1714.2	90289.7
14	2.000000	1.049697	7.36518e+06	-39339.1	955.819	-29795	0.000000	0.000000	7.054322	92.1564	NaN	0.000000	0.001593	0.001828	28.082	40.5526	0.001747	23218.9	3.390835	160.852	90.1898	1.049448	0.039219	0.038970	92.1564	23218.9	0.036242	0.054678	1685.43	90720.8
14	2.000000	1.059174	7.36518e+06	-39339.1	955.819	-29795	0.000000	0.000000	7.065671	137.694	NaN	0.000000	0.001569	0.001828	28.115	51.028	0.001906	26774.5	5.229307	-21.377	134.36	1.058900	0.048697	0.048422	137.694	26774.5	0.044840	0.077132	1785.16	88079.9
14	2.000000	1.068598	7.36518e+06	-39339.1	955.818	-29795	0.000000	0.000000	7.077262	190.417	NaN	0.000000	0.001541	0.001842	28.1285	60.3016	0.001740	34661.7	6.357869	154.834	185.567	1.068319	0.058120	0.057841	190.417	34661.7	0.054000	0.105178	1810.43	97647.5
14	2.000000	1.078081	7.36518e+06	-39339.1	955.819	-29795	0.000000	0.000000	7.089220	250.657	NaN	0.000000	0.001624	0.001885	28.0893	68.8871	0.001749	39385.8	4.321457	-24.0824	245.065	1.077811	0.067603	0.067334	250.657	39385.8	0.062830	0.136152	1841.01	97521.6
14	2.000000	1.087716	7.36518e+06	-39339.1	955.819	-29795	0.000000	0.000000	7.101307	310.315	NaN	0.000000	0.001625	0.001840	28.0805	80.8152	0.001815	44528	6.015926	153.153	310.522	1.087375	0.077239	0.076898	310.315	44528	0.072012	0.172368	1800.31	97989.2
14	2.000000	1.097124	7.36518e+06	-39339.1	955.818	-29795	0.000000	0.000000	7.113534	378.923	NaN	0.000000	0.001555	0.001797	28.1147	87.7525	0.001839	47727.3	8.770465	-29.3201	373.226	1.096808	0.086647	0.086331	378.923	47727.3	0.080692	0.210282	1801.97	95090.8
14	2.000000	1.106595	7.36518e+06	-39339.1	955.82	-29795	0.000000	0.000000	7.126230	457.414	NaN	0.000000	0.001580	0.001812	28.126	95.745	0.001817	52701.2	6.616993	151.222	453.123	1.106251	0.096118	0.095773	457.414	52701.2	0.089608	0.252873	1808.87	95750.8
14	2.000000	1.116093	7.36518e+06	-39339.1	955.82	-29795	0.000000	0.000000	7.138999	537.015	NaN	0.000000	0.001581	0.001797	28.0884	104.384	0.001693	61652.9	8.452887	-30.5748	533.508	1.115635	0.105615	0.105157	537.015	61652.9	0.099083	0.302133	1777.42	102477
14	2.000000	1.117643	7.36518e+06	-39339.1	955.818	-29795	0.000000	0.000000	7.140883	545.121	NaN	0.000000	0.001551	0.001785	28.0842	108.128	0.001769	61118.6	5.907732	151.113	544.569	1.117297	0.107166	0.106819	545.121	61118.6	0.100477	0.309724	1760.02	100337

File: 2025-07-22_16-23-58_1_15.txt
2025-07-22, 16:23:58, 1
Index	Phase	Displacement	Time	Pos X	Pos Y	Pos Z	Rot A	Rot B	Piezo Z	Force A	Force B	Gripper	Voltage A	Voltage B	Temperature	Amplitude force	Amplitude pos	Stiffness	Phase shift	Phase excitation	Force A raw	Displacement raw	HMax	HMax raw	Real Force	Real Stiffness	Contact Depth	Area	Hardness	Reduced Mod.
[#]	[#]	[um]	[s]	[um]	[um]	[um]	[m°]	[m°]	[um]	[uN]	[uN]	[V]	[V]	[V]	[°C]	[uN]	[um]	[N/m]	[°]	[°]	[uN]	[um]	[um]	[um]	[uN]	[N/m]	[um]	[um^2]	[MPa]	[MPa]
15	1.000000	0.002572	7.36519e+06	-39389.1	955.818	-29794.7	0.000000	0.000000	6.002807	-0.049188	NaN	0.000000	0.001604	0.001746	28.115	0.123168	0.000909	135.453	-115.66	-166.514	0.010754	0.001284	-1.080593	-1.081881	-0.049188	135.453	-1.080321	-2.727875E+14	1.803172E-16	NaN
15	1.000000	0.042536	7.36519e+06	-39389.1	955.818	-29794.7	0.000000	0.000000	6.042772	-0.017528	NaN	0.000000	0.001543	0.001767	28.1164	0.074116	0.001913	38.7382	-57.14	-166.586	-0.037064	0.041238	-1.040629	-1.041927	-0.017528	38.7382	-1.040290	-7.904333E+13	2.217506E-16	NaN
15	1.000000	0.082534	7.36519e+06	-39389.1	955.818	-29794.7	0.000000	0.000000	6.082769	-0.030315	NaN	0.000000	0.001600	0.001727	28.1155	0.030502	0.001891	16.1319	112.251	-166.108	-0.006897	0.081221	-1.000632	-1.001944	-0.030315	16.1319	-0.999222	-2.214610E+13	1.368850E-15	NaN
15	1.000000	0.122539	7.36519e+06	-39389.1	955.818	-29794.7	0.000000	0.000000	6.122774	-0.027140	NaN	0.000000	0.001578	0.001751	28.1177	0.033480	0.002039	16.4216	-44.1148	-168.177	-0.078687	0.121257	-0.960627	-0.961908	-0.027140	16.4216	-0.959387	-6.435831E+12	4.217026E-15	NaN
15	1.000000	0.162581	7.36519e+06	-39389.1	955.819	-29794.7	0.000000	0.000000	6.162813	-0.110350	NaN	0.000000	0.001608	0.001774	28.1175	0.163060	0.001958	83.2795	140.248	-165.74	-0.084794	0.161240	-0.920584	-0.921925	-0.110350	83.2795	-0.919591	-1.869293E+12	5.903297E-14	NaN
15	1.000000	0.202593	7.36519e+06	-39389.1	955.818	-29794.7	0.000000	0.000000	6.202828	-0.047105	NaN	0.000000	0.001630	0.001761	28.1173	0.057918	0.002001	28.9442	90.7875	-166.374	0.005636	0.201266	-0.880572	-0.881899	-0.047105	28.9442	-0.879351	-5.344838E+11	8.813105E-14	NaN
15	1.000000	0.242613	7.36519e+06	-39389.1	955.819	-29794.7	0.000000	0.000000	6.242844	-0.123997	NaN	0.000000	0.001624	0.001721	28.1164	0.043267	0.001952	22.163	-174.375	-164.296	-0.123714	0.241254	-0.840553	-0.841912	-0.123997	22.163	-0.836357	-1.399358E+11	8.860962E-13	NaN
15	1.000000	0.282640	7.36519e+06	-39389.1	955.818	-29794.7	0.000000	0.000000	6.282874	-0.066784	NaN	0.000000	0.001539	0.001774	28.116	0.092389	0.002002	46.147	109.65	-170.016	-0.029194	0.281338	-0.800525	-0.801827	-0.066784	46.147	-0.799440	-4.418341E+10	1.511519E-12	NaN
15	1.000000	0.322650	7.36519e+06	-39389.1	955.817	-29794.7	0.000000	0.000000	6.322884	-0.070415	NaN	0.000000	0.001611	0.001719	28.116	0.039724	0.002090	19.0033	-176.799	-166.064	-0.084446	0.321283	-0.760515	-0.761883	-0.070415	19.0033	-0.757736	-1.198127E+10	5.877124E-12	NaN
15	1.000000	0.362661	7.36519e+06	-39389.1	955.818	-29794.7	0.000000	0.000000	6.362897	-0.012649	NaN	0.000000	0.001627	0.001741	28.1171	0.033944	0.002155	15.7489	-62.4322	-164.942	-0.003780	0.361320	-0.720504	-0.721845	-0.012649	15.7489	-0.719902	-3.657081E+9	3.458799E-12	NaN
15	1.000000	0.402691	7.36519e+06	-39389.1	955.819	-29794.7	0.000000	0.000000	6.402924	-0.092928	NaN	0.000000	0.001595	0.001719	28.1171	0.045194	0.002100	21.5176	-118.241	-169.313	-0.016474	0.401388	-0.680474	-0.681778	-0.092928	21.5176	-0.677235	-9.558426E+8	9.722086E-11	NaN
15	1.000000	0.442675	7.36519e+06	-39389.1	955.818	-29794.7	0.000000	0.000000	6.442911	-0.026294	NaN	0.000000	0.001615	0.001747	28.1185	0.062793	0.002020	31.0896	-38.9882	-167.946	0.018272	0.441348	-0.640490	-0.641817	-0.026294	31.0896	-0.639856	-2.939739E+8	8.944402E-11	NaN
15	1.000000	0.482714	7.36519e+06	-39389.1	955.818	-29794.7	0.000000	0.000000	6.482948	-0.045762	NaN	0.000000	0.001574	0.001776	28.1173	0.066199	0.002036	32.5154	128.214	-166.17	-0.033431	0.481423	-0.600451	-0.601742	-0.045762	32.5154	-0.599396	-8.168471E+7	5.602261E-10	NaN
15	1.000000	0.522708	7.36519e+06	-39389.1	955.819	-29794.7	0.000000	0.000000	6.522943	-0.022392	NaN	0.000000	0.001594	0.001710	28.1173	0.082478	0.001873	44.0424	114.695	-166.438	-0.045258	0.521385	-0.560457	-0.561780	-0.022392	44.0424	-0.560076	-2.341158E+7	9.564399E-10	NaN
15	1.000000	0.562766	7.36519e+06	-39389.1	955.818	-29794.7	0.000000	0.000000	6.563002	-0.000989	NaN	0.000000	0.001583	0.001766	28.1166	0.086224	0.002032	42.4418	3.135269	-166.347	0.021492	0.561421	-0.520399	-0.521744	-0.000989	42.4418	-0.520382	-6.59037e+06	1.500640E-10	NaN
15	1.000000	0.602766	7.36519e+06	-39389.1	955.818	-29794.7	0.000000	0.000000	6.602998	-0.099530	NaN	0.000000	0.001613	0.001761	28.1177	0.042618	0.001912	22.288	146.898	-164.539	-0.042695	0.601442	-0.480399	-0.481724	-0.099530	22.288	-0.477050	-1.63765e+06	6.077608E-8	NaN
15	1.000000	0.642752	7.36519e+06	-39389.1	955.818	-29794.7	0.000000	0.000000	6.642986	-0.062186	NaN	0.000000	0.001582	0.001782	28.1169	0.079158	0.002194	36.0845	-117.465	-165.958	-0.102135	0.641485	-0.440414	-0.441680	-0.062186	36.0845	-0.439121	-479685	1.296390E-7	NaN
15	1.000000	0.682829	7.36519e+06	-39389.1	955.817	-29794.7	0.000000	0.000000	6.683062	-0.093302	NaN	0.000000	0.001601	0.001726	28.1186	0.088485	0.002049	43.1895	41.2861	-168.918	-0.052443	0.681451	-0.400336	-0.401714	-0.093302	43.1895	-0.398715	-128136	7.281441E-7	NaN
15	1.000000	0.722788	7.36519e+06	-39389.1	955.819	-29794.7	0.000000	0.000000	6.723023	-0.056290	NaN	0.000000	0.001682	0.001783	28.1182	0.044159	0.001923	22.9674	-54.4084	-165.89	-0.080253	0.721469	-0.360377	-0.361696	-0.056290	22.9674	-0.358539	-33940.3	1.658509E-6	NaN
15	1.000000	0.762812	7.36519e+06	-39389.1	955.819	-29794.7	0.000000	0.000000	6.763045	-0.082485	NaN	0.000000	0.001681	0.001760	28.1198	0.041420	0.001891	21.9073	-54.3379	-170.587	-0.076300	0.761474	-0.320353	-0.321691	-0.082485	21.9073	-0.317529	-8555.51	9.641133E-6	NaN
15	1.000000	0.802846	7.36519e+06	-39389.1	955.819	-29794.7	0.000000	0.000000	6.803081	-0.051338	NaN	0.000000	0.001605	0.001751	28.1176	0.098426	0.001955	50.3462	-141.867	-166.775	-0.112184	0.801490	-0.280319	-0.281676	-0.051338	50.3462	-0.279554	-2324.04	2.208975E-5	NaN
15	1.000000	0.842862	7.36519e+06	-39389.1	955.819	-29794.7	0.000000	0.000000	6.843094	-0.100034	NaN	0.000000	0.001633	0.001773	28.1189	0.066335	0.002033	32.6227	-160.247	-168.52	-0.050055	0.841527	-0.240303	-0.241638	-0.100034	32.6227	-0.238003	-534.977	0.000187	NaN
15	1.000000	0.882887	7.36519e+06	-39389.1	955.817	-29794.7	0.000000	0.000000	6.883120	-0.087785	NaN	0.000000	0.001637	0.001748	28.1181	0.054240	0.001963	27.6339	-145.606	-164.054	-0.068803	0.881528	-0.200278	-0.201637	-0.087785	27.6339	-0.197896	-121.634	0.000722	NaN
15	1.000000	0.922887	7.36519e+06	-39389.1	955.818	-29794.7	0.000000	0.000000	6.923120	-0.090958	NaN	0.000000	0.001629	0.001735	28.1195	0.092258	0.001924	47.9522	-157.236	-163.309	-0.189168	0.921551	-0.160278	-0.161614	-0.090958	47.9522	-0.158855	-26.1589	0.003477	NaN
15	1.000000	0.962905	7.36519e+06	-39389.1	955.818	-29794.7	0.000000	0.000000	6.963138	-0.088353	NaN	0.000000	0.001623	0.001750	28.1201	0.054974	0.002027	27.1202	-164.098	-162.143	0.002713	0.961598	-0.120260	-0.121567	-0.088353	27.1202	-0.117817	-4.363362	0.020249	NaN
15	1.000000	1.002919	7.36519e+06	-39389.1	955.82	-29794.7	0.000000	0.000000	7.003154	-0.049461	NaN	0.000000	0.001564	0.001765	28.1204	0.045362	0.001982	22.89	-49.6331	-169.287	-0.002691	1.001616	-0.080246	-0.081549	-0.049461	22.89	-0.078626	-0.571686	0.086518	NaN
15	1.000000	1.042949	7.36519e+06	-39389.1	955.819	-29794.7	0.000000	0.000000	7.043184	-0.058288	NaN	0.000000	0.001571	0.001749	28.1214	0.063281	0.002000	31.6336	139.642	-166.825	-0.066651	1.041598	-0.040216	-0.041567	-0.058288	31.6336	-0.038834	-0.041689	1.398174	NaN
15	1.000000	1.082933	7.36519e+06	-39389.1	955.821	-29794.7	0.000000	0.000000	7.083252	2.003896	NaN	0.000000	0.001567	0.001749	28.1202	1.210810	0.002049	590.901	17.7818	-168.047	1.700891	1.081623	-0.000233	-0.001542	2.003896	590.901	-0.002776	-0.001970	-1017.23	NaN
15	2.000000	1.099409	7.36519e+06	-39389.1	955.82	-29794.7	0.000000	0.000000	7.100705	25.785	NaN	0.000000	0.001562	0.001751	28.1194	15.6316	0.001681	9296.36	7.655525	179.271	24.3323	1.099074	0.016244	0.015908	25.785	9296.36	0.014164	0.014186	1817.63	71310.7
15	2.000000	1.109392	7.36519e+06	-39389.1	955.82	-29794.7	0.000000	0.000000	7.111996	57.5947	NaN	0.000000	0.001539	0.001773	28.1214	23.7002	0.001622	14607.3	2.625693	-178.299	56.0091	1.109034	0.026227	0.025869	57.5947	14607.3	0.023270	0.027943	2061.13	79837
15	2.000000	1.119395	7.36519e+06	-39389.1	955.82	-29794.7	0.000000	0.000000	7.123790	101.205	NaN	0.000000	0.001586	0.001734	28.1201	31.9877	0.001856	17232.1	2.533478	-177.796	100.283	1.119024	0.036230	0.035859	101.205	17232.1	0.031825	0.044611	2268.59	74539.9
15	2.000000	1.129385	7.36519e+06	-39389.1	955.82	-29794.7	0.000000	0.000000	7.135853	151.636	NaN	0.000000	0.001573	0.001772	28.1224	40.8075	0.001805	22613.3	3.800678	177.867	150.573	1.128955	0.046220	0.045790	151.636	22613.3	0.041190	0.067141	2258.48	79734
15	2.000000	1.139285	7.36519e+06	-39389.1	955.822	-29794.7	0.000000	0.000000	7.147755	200.382	NaN	0.000000	0.001582	0.001760	28.1211	49.2481	0.001818	27091.8	2.644360	177.074	197.112	1.139057	0.056119	0.055892	200.382	27091.8	0.050572	0.094190	2127.43	80651.1
15	2.000000	1.149371	7.36519e+06	-39389.1	955.821	-29794.7	0.000000	0.000000	7.160309	260.434	NaN	0.000000	0.001533	0.001769	28.1223	59.5793	0.001755	33944.4	3.462651	174.865	261.711	1.148960	0.066205	0.065794	260.434	33944.4	0.060451	0.127431	2043.73	86876.8
15	2.000000	1.159331	7.36519e+06	-39389.1	955.821	-29794.7	0.000000	0.000000	7.173304	334.282	NaN	0.000000	0.001598	0.001798	28.1201	67.3532	0.001864	36135.5	2.070511	175.682	334.586	1.159002	0.076166	0.075837	334.282	36135.5	0.069228	0.160961	2076.79	82290.1
15	2.000000	1.169265	7.36519e+06	-39389.1	955.823	-29794.7	0.000000	0.000000	7.186482	413.215	NaN	0.000000	0.001598	0.001754	28.1214	75.9998	0.001822	41716.2	1.605683	175.229	409.2	1.168994	0.086100	0.085829	413.215	41716.2	0.078671	0.201136	2054.4	84983.1
15	2.000000	1.179187	7.36519e+06	-39389.1	955.822	-29794.7	0.000000	0.000000	7.199807	496.012	NaN	0.000000	0.001570	0.001808	28.1211	85.0097	0.001854	45851.5	5.859104	170.383	489.64	1.178984	0.096022	0.095819	496.012	45851.5	0.087909	0.244473	2028.9	84724.9
15	2.000000	1.189232	7.36519e+06	-39389.1	955.822	-29794.7	0.000000	0.000000	7.213383	581.963	NaN	0.000000	0.001544	0.001770	28.1234	96.1787	0.001895	50741.9	5.835247	169.775	577.571	1.188961	0.106066	0.105796	581.963	50741.9	0.097465	0.293430	1983.31	85583
15	2.000000	1.190249	7.36519e+06	-39389.1	955.822	-29794.7	0.000000	0.000000	7.215058	597.962	NaN	0.000000	0.001544	0.001788	28.083	94.8348	0.001777	53378	1.333504	174.244	594.699	1.189847	0.107084	0.106682	597.962	53378	0.098682	0.299968	1993.42	89042.7