Folder: unikorn_login/remote_trans/data/nanoindenter/0828-1/data/Data_2025-08-06,11h17m57s (part 26)

File: 2025-07-22_16-23-58_1_50.txt
2025-07-22, 16:23:58, 1
Index	Phase	Displacement	Time	Pos X	Pos Y	Pos Z	Rot A	Rot B	Piezo Z	Force A	Force B	Gripper	Voltage A	Voltage B	Temperature	Amplitude force	Amplitude pos	Stiffness	Phase shift	Phase excitation	Force A raw	Displacement raw	HMax	HMax raw	Real Force	Real Stiffness	Contact Depth	Area	Hardness	Reduced Mod.
[#]	[#]	[um]	[s]	[um]	[um]	[um]	[m°]	[m°]	[um]	[uN]	[uN]	[V]	[V]	[V]	[°C]	[uN]	[um]	[N/m]	[°]	[°]	[uN]	[um]	[um]	[um]	[uN]	[N/m]	[um]	[um^2]	[MPa]	[MPa]
50	1.000000	0.001581	7.36553e+06	-41139.1	955.818	-29787.9	0.000000	0.000000	6.002789	0.012854	NaN	0.000000	0.001607	0.001662	28.1216	0.014440	0.000946	15.2608	76.3658	-172.548	-0.072444	0.000333	-1.119787	-1.121035	0.012854	15.2608	-1.120418	-9.420761E+14	-1.364431E-17	NaN
50	1.000000	0.043567	7.36553e+06	-41139.1	955.817	-29787.9	0.000000	0.000000	6.044773	-0.036396	NaN	0.000000	0.001605	0.001719	28.1233	0.100685	0.001928	52.2286	-24.3304	15.8903	-0.007442	0.042142	-1.077801	-1.079226	-0.036396	52.2286	-1.077278	-2.482918E+14	1.465843E-16	NaN
50	1.000000	0.085554	7.36553e+06	-41139.1	955.818	-29787.9	0.000000	0.000000	6.086757	-0.081003	NaN	0.000000	0.001642	0.001705	28.0853	0.027127	0.002055	13.2035	62.235	-166.07	-0.029098	0.084237	-1.035815	-1.037131	-0.081003	13.2035	-1.031213	-5.967618E+13	1.357373E-15	NaN
50	1.000000	0.127587	7.36553e+06	-41139.1	955.819	-29787.9	0.000000	0.000000	6.128789	-0.095573	NaN	0.000000	0.001597	0.001696	28.0851	0.092235	0.002074	44.4693	-26.3829	12.4886	-0.087145	0.126214	-0.993782	-0.995154	-0.095573	44.4693	-0.992170	-1.779642E+13	5.370369E-15	NaN
50	1.000000	0.169581	7.36553e+06	-41139.1	955.818	-29787.9	0.000000	0.000000	6.170786	-0.043006	NaN	0.000000	0.001657	0.001686	28.1195	0.071646	0.001882	38.0663	44.4321	-167.762	-0.013544	0.168255	-0.951787	-0.953114	-0.043006	38.0663	-0.950940	-4.951130E+12	8.686095E-15	NaN
50	1.000000	0.211610	7.36553e+06	-41139.1	955.818	-29787.9	0.000000	0.000000	6.212815	-0.040364	NaN	0.000000	0.001655	0.001674	28.125	0.146803	0.001956	75.0554	-128.807	10.2693	-0.053558	0.210268	-0.909758	-0.911100	-0.040364	75.0554	-0.909355	-1.359724E+12	2.968513E-14	NaN
50	1.000000	0.253645	7.36553e+06	-41139.1	955.818	-29787.9	0.000000	0.000000	6.254851	-0.038953	NaN	0.000000	0.001628	0.001684	28.0857	0.044310	0.002044	21.6742	-153.572	-167.35	-0.071421	0.252316	-0.867723	-0.869052	-0.038953	21.6742	-0.866375	-3.567746E+11	1.091797E-13	NaN
50	1.000000	0.295669	7.36553e+06	-41139.1	955.819	-29787.9	0.000000	0.000000	6.296872	-0.093450	NaN	0.000000	0.001569	0.001767	28.0858	0.059078	0.001988	29.7198	-50.2456	12.0931	-0.078131	0.294286	-0.825699	-0.827083	-0.093450	29.7198	-0.823341	-9.321959E+10	1.002467E-12	NaN
50	1.000000	0.337679	7.36554e+06	-41139.1	955.818	-29787.9	0.000000	0.000000	6.338883	-0.054192	NaN	0.000000	0.001666	0.001753	28.1193	0.009509	0.002083	4.566349	-177.963	-164.675	-0.049460	0.336369	-0.783689	-0.784999	-0.054192	4.566349	-0.774789	-2.043647E+10	2.651740E-12	NaN
50	1.000000	0.379682	7.36554e+06	-41139.1	955.819	-29787.9	0.000000	0.000000	6.380886	-0.066137	NaN	0.000000	0.001589	0.001746	28.1227	0.064172	0.002121	30.2601	-129.668	14.9932	0.017143	0.378313	-0.741686	-0.743056	-0.066137	30.2601	-0.740047	-6.881681E+9	9.610624E-12	NaN
50	1.000000	0.421727	7.36554e+06	-41139.1	955.818	-29787.9	0.000000	0.000000	6.422928	-0.148545	NaN	0.000000	0.001633	0.001753	28.0829	0.052703	0.001901	27.7171	4.406338	-164.976	-0.039953	0.420389	-0.699641	-0.700979	-0.148545	27.7171	-0.695622	-1.705026E+9	8.712157E-11	NaN
50	1.000000	0.463716	7.36554e+06	-41139.1	955.818	-29787.9	0.000000	0.000000	6.464921	-0.036343	NaN	0.000000	0.001634	0.001741	28.0834	0.040007	0.002012	19.88	2.347549	12.101	-0.041924	0.462371	-0.657652	-0.658997	-0.036343	19.88	-0.656281	-4.937637E+8	7.360372E-11	NaN
50	1.000000	0.505721	7.36554e+06	-41139.1	955.818	-29787.9	0.000000	0.000000	6.506928	0.007107	NaN	0.000000	0.001683	0.001754	28.1186	0.116074	0.001824	63.6206	-21.2416	-167.462	-0.006812	0.504385	-0.615647	-0.616983	0.007107	63.6206	-0.615731	-1.370689E+8	-5.185264E-11	NaN
50	1.000000	0.547771	7.36554e+06	-41139.1	955.818	-29787.9	0.000000	0.000000	6.548975	-0.070907	NaN	0.000000	0.001655	0.001765	28.1251	0.072987	0.001966	37.1301	-168.706	15.6481	-0.089498	0.546409	-0.573597	-0.574959	-0.070907	37.1301	-0.572165	-3.439879E+7	2.061325E-9	NaN
50	1.000000	0.589790	7.36554e+06	-41139.1	955.817	-29787.9	0.000000	0.000000	6.590996	-0.026829	NaN	0.000000	0.001691	0.001782	28.0854	0.036674	0.002072	17.6979	10.1795	-167.144	-0.132984	0.588511	-0.531578	-0.532857	-0.026829	17.6979	-0.530441	-9.09279e+06	2.950560E-9	NaN
50	1.000000	0.631803	7.36554e+06	-41139.1	955.818	-29787.9	0.000000	0.000000	6.633008	-0.052309	NaN	0.000000	0.001608	0.001770	28.083	0.063520	0.001966	32.3083	-95.8256	16.0943	-0.012589	0.630408	-0.489565	-0.490960	-0.052309	32.3083	-0.488351	-2.35691e+06	2.219392E-8	NaN
50	1.000000	0.673832	7.36554e+06	-41139.1	955.818	-29787.9	0.000000	0.000000	6.675037	-0.042503	NaN	0.000000	0.001666	0.001745	28.1162	0.040335	0.002028	19.8899	-15.8766	-166.634	-0.043845	0.672454	-0.447536	-0.448914	-0.042503	19.8899	-0.445933	-598475	7.101815E-8	NaN
50	1.000000	0.715846	7.36554e+06	-41139.1	955.819	-29787.9	0.000000	0.000000	6.717052	-0.034183	NaN	0.000000	0.001673	0.001672	28.125	0.042980	0.001946	22.0821	-52.4298	11.6028	-0.081173	0.714484	-0.405522	-0.406885	-0.034183	22.0821	-0.404361	-154222	2.216459E-7	NaN
50	1.000000	0.757848	7.36554e+06	-41139.1	955.819	-29787.9	0.000000	0.000000	6.759050	-0.133851	NaN	0.000000	0.001647	0.001723	28.0852	0.037643	0.001985	18.9619	-58.9062	-168.485	-0.129859	0.756541	-0.363520	-0.364827	-0.133851	18.9619	-0.358226	-33588.4	3.985045E-6	NaN
50	1.000000	0.799876	7.36554e+06	-41139.1	955.817	-29787.9	0.000000	0.000000	6.801081	-0.057579	NaN	0.000000	0.001616	0.001731	28.0832	0.088926	0.001986	44.7828	62.4998	14.1538	-0.084391	0.798455	-0.321492	-0.322913	-0.057579	44.7828	-0.320528	-9471.18	6.079342E-6	NaN
50	1.000000	0.841886	7.36554e+06	-41139.1	955.819	-29787.9	0.000000	0.000000	6.843092	-0.028157	NaN	0.000000	0.001636	0.001749	28.1176	0.045862	0.002049	22.3778	-30.487	-165.081	-0.020951	0.840555	-0.279482	-0.280814	-0.028157	22.3778	-0.278538	-2243.42	1.255085E-5	NaN
50	1.000000	0.883894	7.36554e+06	-41139.1	955.818	-29787.9	0.000000	0.000000	6.885099	-0.046379	NaN	0.000000	0.001671	0.001701	28.125	0.081240	0.002026	40.0889	7.014755	12.3759	-0.099431	0.882499	-0.237474	-0.238869	-0.046379	40.0889	-0.236606	-508.685	9.117469E-5	NaN
50	1.000000	0.925881	7.36554e+06	-41139.1	955.819	-29787.9	0.000000	0.000000	6.927082	-0.139258	NaN	0.000000	0.001639	0.001704	28.0866	0.067201	0.002076	32.377	166.583	-163.086	-0.176427	0.924616	-0.195487	-0.196752	-0.139258	32.377	-0.192261	-98.1131	0.001419	NaN
50	1.000000	0.967936	7.36554e+06	-41139.1	955.819	-29787.9	0.000000	0.000000	6.969142	-0.018354	NaN	0.000000	0.001670	0.001712	28.0817	0.057231	0.001996	28.6759	-87.5637	12.3039	-0.044843	0.966613	-0.153432	-0.154755	-0.018354	28.6759	-0.152952	-20.4941	0.000896	NaN
50	1.000000	1.009944	7.36554e+06	-41139.1	955.818	-29787.9	0.000000	0.000000	7.011152	0.024606	NaN	0.000000	0.001653	0.001762	28.1153	0.018517	0.002082	8.892504	-59.7108	-166.419	-0.068851	1.008693	-0.111424	-0.112675	0.024606	8.892504	-0.113499	-3.556877	-0.006918	NaN
50	1.000000	1.051960	7.36554e+06	-41139.1	955.819	-29787.9	0.000000	0.000000	7.053161	-0.140865	NaN	0.000000	0.001757	0.001761	28.1257	0.022696	0.002011	11.2844	-119.619	17.675	-0.017008	1.050587	-0.069408	-0.070782	-0.140865	11.2844	-0.060046	-0.180639	0.779813	NaN
50	1.000000	1.093996	7.36554e+06	-41139.1	955.819	-29787.9	0.000000	0.000000	7.095202	-0.009861	NaN	0.000000	0.001710	0.001729	28.0875	0.053308	0.001926	27.6815	3.707661	-169.559	-0.110332	1.092655	-0.027373	-0.028713	-0.009861	27.6815	-0.027105	-0.019179	0.514172	NaN
50	2.000000	1.133007	7.36554e+06	-41139.1	955.819	-29787.9	0.000000	0.000000	7.134751	13.0543	NaN	0.000000	0.001690	0.001712	28.0841	11.2956	0.001568	7202.55	5.688387	7.275575	12.1641	1.132639	0.011639	0.011271	13.0543	7202.55	0.010280	0.009494	1374.98	67535.1
50	2.000000	1.143401	7.36554e+06	-41139.1	955.819	-29787.9	0.000000	0.000000	7.145934	32.2646	NaN	0.000000	0.001696	0.001756	28.114	24.2091	0.001762	13737.2	5.156605	-176.864	32.9012	1.143080	0.022033	0.021712	32.2646	13737.2	0.020272	0.022971	1404.59	82810
50	2.000000	1.153890	7.36554e+06	-41139.1	955.817	-29787.9	0.000000	0.000000	7.158104	73.1705	NaN	0.000000	0.001628	0.001766	28.1247	34.7464	0.001752	19834.3	4.904901	-1.516106	71.6334	1.153508	0.032521	0.032139	73.1705	19834.3	0.029755	0.040237	1818.5	90339.9
50	2.000000	1.164281	7.36554e+06	-41139.1	955.818	-29787.9	0.000000	0.000000	7.171149	137.743	NaN	0.000000	0.001639	0.001724	28.0866	45.7242	0.001815	25192.6	5.476926	176.521	133.495	1.164022	0.042913	0.042654	137.743	25192.6	0.038812	0.060994	2258.29	93196.7
50	2.000000	1.174768	7.36554e+06	-41139.1	955.819	-29787.9	0.000000	0.000000	7.184818	215.182	NaN	0.000000	0.001654	0.001736	28.0825	54.5122	0.001786	30514.4	2.895373	-2.641902	209.278	1.174403	0.053400	0.053035	215.182	30514.4	0.048111	0.086665	2482.93	94701.6
50	2.000000	1.185338	7.36554e+06	-41139.1	955.818	-29787.9	0.000000	0.000000	7.199217	308.35	NaN	0.000000	0.001714	0.001736	28.1155	67.457	0.001701	39667.1	8.834860	170.262	307.841	1.184975	0.063970	0.063607	308.35	39667.1	0.058140	0.119222	2586.35	104960
50	2.000000	1.195790	7.36554e+06	-41139.1	955.819	-29787.9	0.000000	0.000000	7.213127	392.504	NaN	0.000000	0.001723	0.001777	28.1268	77.5515	0.001760	44071.8	6.054877	-9.525242	386.314	1.195560	0.074422	0.074192	392.504	44071.8	0.067742	0.155025	2531.87	102267
50	2.000000	1.206271	7.36554e+06	-41139.1	955.818	-29787.9	0.000000	0.000000	7.228372	508.421	NaN	0.000000	0.001716	0.001765	28.0887	86.8348	0.001717	50564.7	6.878474	169.287	505.477	1.205956	0.084903	0.084588	508.421	50564.7	0.077362	0.195317	2603.05	104532
50	2.000000	1.216760	7.36554e+06	-41139.1	955.819	-29787.9	0.000000	0.000000	7.243394	618.716	NaN	0.000000	0.001658	0.001769	28.0814	95.8383	0.001762	54391.3	1.537828	-5.925211	612.69	1.216405	0.095392	0.095036	618.716	54391.3	0.086860	0.239356	2584.91	101573
50	2.000000	1.227229	7.36554e+06	-41139.1	955.819	-29787.9	0.000000	0.000000	7.259660	759.792	NaN	0.000000	0.001689	0.001716	28.1126	106.119	0.001803	58853.8	3.732303	172.06	756.251	1.226848	0.105860	0.105480	759.792	58853.8	0.096178	0.286595	2651.1	100441
50	2.000000	1.230740	7.36554e+06	-41139.1	955.819	-29787.9	0.000000	0.000000	7.264272	786.563	NaN	0.000000	0.001691	0.001717	28.0815	109.175	0.001764	61874.7	1.966663	-7.032797	780.683	1.230357	0.109371	0.108989	786.563	61874.7	0.099837	0.306231	2568.52	102155

File: 2025-07-22_16-23-58_1_51.txt
2025-07-22, 16:23:58, 1
Index	Phase	Displacement	Time	Pos X	Pos Y	Pos Z	Rot A	Rot B	Piezo Z	Force A	Force B	Gripper	Voltage A	Voltage B	Temperature	Amplitude force	Amplitude pos	Stiffness	Phase shift	Phase excitation	Force A raw	Displacement raw	HMax	HMax raw	Real Force	Real Stiffness	Contact Depth	Area	Hardness	Reduced Mod.
[#]	[#]	[um]	[s]	[um]	[um]	[um]	[m°]	[m°]	[um]	[uN]	[uN]	[V]	[V]	[V]	[°C]	[uN]	[um]	[N/m]	[°]	[°]	[uN]	[um]	[um]	[um]	[uN]	[N/m]	[um]	[um^2]	[MPa]	[MPa]
51	1.000000	0.002273	7.36554e+06	-41189.1	955.818	-29787.7	0.000000	0.000000	6.002776	-0.023102	NaN	0.000000	0.001729	0.001663	28.1095	0.005389	0.000892	6.039878	-153.702	-168.109	0.022252	0.001075	-1.167475	-1.168673	-0.023102	6.039878	-1.164606	-3.686442E+15	6.266749E-18	NaN
51	1.000000	0.046263	7.36554e+06	-41189.1	955.819	-29787.7	0.000000	0.000000	6.046768	0.011223	NaN	0.000000	0.001659	0.001678	28.0887	0.025342	0.001964	12.905	152.299	-164.9	-0.032690	0.044980	-1.123485	-1.124768	0.011223	12.905	-1.124137	-1.056753E+15	-1.061983E-17	NaN
51	1.000000	0.090246	7.36554e+06	-41189.1	955.818	-29787.7	0.000000	0.000000	6.090749	-0.015314	NaN	0.000000	0.001690	0.001706	28.1076	0.090058	0.002052	43.8937	123.751	-165.22	0.031937	0.089016	-1.079502	-1.080732	-0.015314	43.8937	-1.079240	-2.638241E+14	5.804527E-17	NaN
51	1.000000	0.134292	7.36554e+06	-41189.1	955.818	-29787.7	0.000000	0.000000	6.134796	0.002618	NaN	0.000000	0.001620	0.001714	28.0884	0.075569	0.002017	37.4598	-78.1308	-164.297	-0.050373	0.132910	-1.035456	-1.036838	0.002618	37.4598	-1.035508	-6.816547E+13	-3.841218E-17	NaN
51	1.000000	0.178292	7.36554e+06	-41189.1	955.819	-29787.7	0.000000	0.000000	6.178797	0.012734	NaN	0.000000	0.001643	0.001685	28.1079	0.090878	0.002141	42.4553	-79.7946	-165.044	-0.005964	0.176992	-0.991456	-0.992756	0.012734	42.4553	-0.991680	-1.752847E+13	-7.264668E-16	NaN
51	1.000000	0.222315	7.36554e+06	-41189.1	955.818	-29787.7	0.000000	0.000000	6.222814	-0.114314	NaN	0.000000	0.001659	0.001687	28.0903	0.026728	0.002055	13.0041	-143.639	-166.361	-0.082971	0.221053	-0.947433	-0.948694	-0.114314	13.0041	-0.940840	-3.618011E+12	3.159588E-14	NaN
51	1.000000	0.266332	7.36554e+06	-41189.1	955.819	-29787.7	0.000000	0.000000	6.266836	-0.010084	NaN	0.000000	0.001659	0.001702	28.1075	0.109184	0.002009	54.3451	-153.453	-168.723	-0.031927	0.265031	-0.903415	-0.904716	-0.010084	54.3451	-0.903276	-1.125464E+12	8.959546E-15	NaN
51	1.000000	0.310354	7.36554e+06	-41189.1	955.819	-29787.7	0.000000	0.000000	6.310856	-0.057221	NaN	0.000000	0.001652	0.001708	28.0896	0.023000	0.001931	11.9107	149.717	-168.748	-0.084740	0.309052	-0.859394	-0.860696	-0.057221	11.9107	-0.855791	-2.565324E+11	2.230548E-13	NaN
51	1.000000	0.354380	7.36554e+06	-41189.1	955.819	-29787.7	0.000000	0.000000	6.354885	0.002925	NaN	0.000000	0.001585	0.001704	28.1048	0.083278	0.002261	36.8358	94.0423	-161.853	-0.036400	0.353103	-0.815367	-0.816645	0.002925	36.8358	-0.815427	-7.280958E+10	-4.016754E-14	NaN
51	1.000000	0.398408	7.36555e+06	-41189.1	955.818	-29787.7	0.000000	0.000000	6.398912	-0.026015	NaN	0.000000	0.001675	0.001689	28.0906	0.105231	0.001928	54.5687	165.63	-164.373	0.043397	0.397058	-0.771339	-0.772690	-0.026015	54.5687	-0.770982	-1.814069E+10	1.434064E-12	NaN
51	1.000000	0.442407	7.36555e+06	-41189.1	955.818	-29787.7	0.000000	0.000000	6.442911	0.011563	NaN	0.000000	0.001691	0.001678	28.1062	0.136342	0.002007	67.9259	-175.285	-167.481	-0.040575	0.441068	-0.727341	-0.728680	0.011563	67.9259	-0.727469	-4.637730E+9	-2.493216E-12	NaN
51	1.000000	0.486417	7.36555e+06	-41189.1	955.819	-29787.7	0.000000	0.000000	6.486922	0.018626	NaN	0.000000	0.001654	0.001711	28.0923	0.099149	0.002070	47.8872	153.569	-160.024	-0.043163	0.485129	-0.683330	-0.684619	0.018626	47.8872	-0.683622	-1.168785E+9	-1.593601E-11	NaN
51	1.000000	0.530442	7.36555e+06	-41189.1	955.819	-29787.7	0.000000	0.000000	6.530945	-0.019755	NaN	0.000000	0.001631	0.001735	28.1059	0.080521	0.002073	38.8393	-89.61	-160.476	-0.016100	0.529152	-0.639306	-0.640595	-0.019755	38.8393	-0.638924	-2.854494E+8	6.920710E-11	NaN
51	1.000000	0.574473	7.36555e+06	-41189.1	955.818	-29787.7	0.000000	0.000000	6.574975	-0.051966	NaN	0.000000	0.001634	0.001702	28.0912	0.074889	0.002005	37.3434	-6.474179	-165.761	0.005077	0.573119	-0.595275	-0.596629	-0.051966	37.3434	-0.594231	-6.934115E+7	7.494184E-10	NaN
51	1.000000	0.618474	7.36555e+06	-41189.1	955.818	-29787.7	0.000000	0.000000	6.618979	0.010161	NaN	0.000000	0.001670	0.001703	28.1033	0.072551	0.002057	35.2631	-56.3988	-162.894	-0.017957	0.617209	-0.551274	-0.552539	0.010161	35.2631	-0.551490	-1.780703E+7	-5.706276E-10	NaN
51	1.000000	0.662511	7.36555e+06	-41189.1	955.819	-29787.7	0.000000	0.000000	6.663014	-0.042587	NaN	0.000000	0.001647	0.001694	28.0916	0.007887	0.001954	4.035799	-126.353	-165.395	-0.097808	0.661190	-0.507237	-0.508558	-0.042587	4.035799	-0.499322	-3.35401e+06	1.269748E-8	NaN
51	1.000000	0.706503	7.36555e+06	-41189.1	955.818	-29787.7	0.000000	0.000000	6.707009	0.043672	NaN	0.000000	0.001637	0.001722	28.1043	0.087827	0.002041	43.023	43.0696	-164.49	-0.002291	0.705198	-0.463245	-0.464550	0.043672	43.023	-0.464006	-1.07472e+06	-4.063547E-8	NaN
51	1.000000	0.750522	7.36555e+06	-41189.1	955.818	-29787.7	0.000000	0.000000	6.751025	-0.037612	NaN	0.000000	0.001633	0.001654	28.0935	0.075736	0.002045	37.0436	-91.8366	-165.27	-0.065385	0.749236	-0.419225	-0.420512	-0.037612	37.0436	-0.418464	-244693	1.537105E-7	NaN
51	1.000000	0.794580	7.36555e+06	-41189.1	955.818	-29787.7	0.000000	0.000000	6.795085	0.010369	NaN	0.000000	0.001644	0.001716	28.1051	0.089365	0.001946	45.9222	71.2157	-166.056	0.010494	0.793263	-0.375167	-0.376485	0.010369	45.9222	-0.375337	-59280.3	-1.749133E-7	NaN
51	1.000000	0.838572	7.36555e+06	-41189.1	955.818	-29787.7	0.000000	0.000000	6.839079	0.057646	NaN	0.000000	0.001662	0.001718	28.0915	0.129213	0.001870	69.0954	-159.615	-163.987	-0.000633	0.837250	-0.331175	-0.332497	0.057646	69.0954	-0.331801	-13861.6	-4.158678E-6	NaN
51	1.000000	0.882570	7.36555e+06	-41189.1	955.819	-29787.7	0.000000	0.000000	6.883076	0.034799	NaN	0.000000	0.001684	0.001715	28.1034	0.085924	0.001982	43.3565	-34.6342	-164.007	-0.003722	0.881296	-0.287178	-0.288451	0.034799	43.3565	-0.287780	-3090.39	-1.126051E-5	NaN
51	1.000000	0.926626	7.36555e+06	-41189.1	955.818	-29787.7	0.000000	0.000000	6.927126	-0.085000	NaN	0.000000	0.001666	0.001731	28.0915	0.165251	0.002071	79.79	-115.086	-168.389	-0.037617	0.925328	-0.243122	-0.244420	-0.085000	79.79	-0.242323	-624.878	0.000136	NaN
51	1.000000	0.970635	7.36555e+06	-41189.1	955.818	-29787.7	0.000000	0.000000	6.971138	-0.027938	NaN	0.000000	0.001643	0.001684	28.1033	0.047710	0.001918	24.8728	151.606	-164.494	-0.028086	0.969358	-0.199113	-0.200390	-0.027938	24.8728	-0.198271	-123.379	0.000226	NaN
51	1.000000	1.014645	7.36555e+06	-41189.1	955.818	-29787.7	0.000000	0.000000	7.015149	-0.001627	NaN	0.000000	0.001616	0.001731	28.0937	0.045226	0.001988	22.7554	-134.162	-164.439	-0.053305	1.013362	-0.155103	-0.156385	-0.001627	22.7554	-0.155049	-22.3597	7.278341E-5	NaN
51	1.000000	1.058708	7.36555e+06	-41189.1	955.818	-29787.7	0.000000	0.000000	7.059212	0.013292	NaN	0.000000	0.001609	0.001721	28.1041	0.063800	0.002032	31.3959	-146.543	-164.43	0.026572	1.057362	-0.111040	-0.112385	0.013292	31.3959	-0.111358	-3.209287	-0.004142	NaN
51	1.000000	1.102692	7.36555e+06	-41189.1	955.819	-29787.7	0.000000	0.000000	7.103197	0.007306	NaN	0.000000	0.001607	0.001735	28.0935	0.074261	0.002137	34.7581	98.731	-161.867	-0.039292	1.101390	-0.067055	-0.068357	0.007306	34.7581	-0.067213	-0.286744	-0.025478	NaN
51	1.000000	1.146722	7.36555e+06	-41189.1	955.818	-29787.7	0.000000	0.000000	7.147226	-0.005476	NaN	0.000000	0.001634	0.001700	28.1018	0.127307	0.001913	66.5439	-15.3461	-164.077	0.052360	1.145398	-0.023026	-0.024349	-0.005476	66.5439	-0.022964	-0.014945	0.366406	NaN
51	2.000000	1.182333	7.36555e+06	-41189.1	955.818	-29787.7	0.000000	0.000000	7.183264	10.4034	NaN	0.000000	0.001601	0.001697	28.0928	10.7353	0.001694	6338.13	6.784455	-172.504	10.4943	1.181947	0.012585	0.012199	10.4034	6338.13	0.011354	0.010725	970.007	55915.7
51	2.000000	1.193186	7.36555e+06	-41189.1	955.818	-29787.7	0.000000	0.000000	7.194990	31.6196	NaN	0.000000	0.001608	0.001671	28.1008	21.1197	0.001669	12653.9	3.870020	-176.036	30.3593	1.192921	0.023438	0.023173	31.6196	12653.9	0.021564	0.025060	1261.77	73031.4
51	2.000000	1.204168	7.36555e+06	-41189.1	955.818	-29787.7	0.000000	0.000000	7.207017	57.0698	NaN	0.000000	0.001560	0.001709	28.0955	32.2596	0.001883	17131.3	6.089171	-179.106	55.3904	1.203854	0.034420	0.034107	57.0698	17131.3	0.031921	0.044820	1273.3	73931.1
51	2.000000	1.215151	7.36555e+06	-41189.1	955.817	-29787.7	0.000000	0.000000	7.219528	94.2433	NaN	0.000000	0.001619	0.001720	28.1017	43.0464	0.001877	22927.9	5.609790	177.635	93.2872	1.214978	0.045403	0.045230	94.2433	22927.9	0.042320	0.070162	1343.22	79083.5
51	2.000000	1.226108	7.36555e+06	-41189.1	955.818	-29787.7	0.000000	0.000000	7.232501	143.274	NaN	0.000000	0.001627	0.001667	28.097	52.3496	0.001752	29872.7	4.535975	175.9	139.325	1.225740	0.056361	0.055993	143.274	29872.7	0.052763	0.101146	1416.51	85817.2
51	2.000000	1.237123	7.36555e+06	-41189.1	955.818	-29787.7	0.000000	0.000000	7.246027	204.409	NaN	0.000000	0.001644	0.001715	28.1004	62.8125	0.001832	34287.1	6.968621	173.202	201.541	1.236824	0.067375	0.067077	204.409	34287.1	0.062904	0.136425	1498.32	84811.7
51	2.000000	1.248160	7.36555e+06	-41189.1	955.818	-29787.7	0.000000	0.000000	7.260074	277.62	NaN	0.000000	0.001665	0.001709	28.096	74.4114	0.001805	41234.5	8.462481	170.298	277.608	1.247713	0.078412	0.077965	277.62	41234.5	0.073363	0.178035	1559.35	89285.4
51	2.000000	1.259077	7.36555e+06	-41189.1	955.818	-29787.7	0.000000	0.000000	7.274284	357.758	NaN	0.000000	0.001643	0.001648	28.0984	84.1492	0.001837	45815.4	3.263740	174.798	353.21	1.258699	0.089329	0.088951	357.758	45815.4	0.083472	0.223169	1603.08	88606.9
51	2.000000	1.270079	7.36555e+06	-41189.1	955.819	-29787.7	0.000000	0.000000	7.288512	436.245	NaN	0.000000	0.001617	0.001711	28.0963	94.522	0.001836	51485.7	5.753769	171.278	434.573	1.269803	0.100331	0.100055	436.245	51485.7	0.093977	0.275076	1585.91	89687.8
51	2.000000	1.278255	7.36555e+06	-41189.1	955.818	-29787.7	0.000000	0.000000	7.299412	502.527	NaN	0.000000	0.001604	0.001696	28.0964	103.573	0.001773	58415.6	6.415142	169.819	511.18	1.277915	0.108508	0.108168	502.527	58415.6	0.102056	0.318433	1578.13	94578.7