Folder: unikorn_login/remote_trans/data/nanoindenter/0828-1/data/Data_2025-08-06,11h17m57s (part 169)

File: 2025-07-22_16-23-58_1_355.txt
2025-07-22, 16:23:58, 1
Index	Phase	Displacement	Time	Pos X	Pos Y	Pos Z	Rot A	Rot B	Piezo Z	Force A	Force B	Gripper	Voltage A	Voltage B	Temperature	Amplitude force	Amplitude pos	Stiffness	Phase shift	Phase excitation	Force A raw	Displacement raw	HMax	HMax raw	Real Force	Real Stiffness	Contact Depth	Area	Hardness	Reduced Mod.
[#]	[#]	[um]	[s]	[um]	[um]	[um]	[m°]	[m°]	[um]	[uN]	[uN]	[V]	[V]	[V]	[°C]	[uN]	[um]	[N/m]	[°]	[°]	[uN]	[um]	[um]	[um]	[uN]	[N/m]	[um]	[um^2]	[MPa]	[MPa]
355	1.000000	0.002324	7.36853e+06	-56389.1	955.818	-29739.3	0.000000	0.000000	6.002796	0.035165	NaN	0.000000	0.001526	0.001722	28.0817	0.046361	0.001070	43.3304	-158.338	-169.357	0.016769	0.001067	-1.137846	-1.139103	0.035165	43.3304	-1.138455	-1.644441E+15	-2.138437E-17	NaN
355	1.000000	0.044297	7.36853e+06	-56389.1	955.819	-29739.3	0.000000	0.000000	6.044768	0.019300	NaN	0.000000	0.001479	0.001711	28.0809	0.112481	0.002054	54.7508	14.1443	17.6825	-0.010989	0.042895	-1.095874	-1.097275	0.019300	54.7508	-1.096138	-4.448595E+14	-4.338354E-17	NaN
355	1.000000	0.086257	7.36853e+06	-56389.1	955.818	-29739.3	0.000000	0.000000	6.086729	0.035009	NaN	0.000000	0.001544	0.001699	28.0804	0.079163	0.001941	40.7892	-66.7276	-163.866	0.016575	0.084965	-1.053913	-1.055206	0.035009	40.7892	-1.054557	-1.229321E+14	-2.847845E-16	NaN
355	1.000000	0.128314	7.36853e+06	-56389.1	955.818	-29739.3	0.000000	0.000000	6.128785	0.013415	NaN	0.000000	0.001505	0.001689	28.0801	0.058387	0.002030	28.7689	116.375	17.0028	0.034820	0.126916	-1.011856	-1.013254	0.013415	28.7689	-1.012206	-3.311880E+13	-4.050521E-16	NaN
355	1.000000	0.170330	7.36853e+06	-56389.1	955.818	-29739.3	0.000000	0.000000	6.170801	-0.001915	NaN	0.000000	0.001585	0.001741	28.0801	0.061302	0.001936	31.6645	85.9255	-165.249	0.097893	0.169010	-0.969840	-0.971160	-0.001915	31.6645	-0.969795	-8.889919E+12	2.154555E-16	NaN
355	1.000000	0.212369	7.36853e+06	-56389.1	955.818	-29739.3	0.000000	0.000000	6.212839	0.001462	NaN	0.000000	0.001558	0.001736	28.081	0.083377	0.001997	41.7614	-90.8176	13.3926	-0.018549	0.210959	-0.927802	-0.929211	0.001462	41.7614	-0.927828	-2.414787E+12	-6.053130E-16	NaN
355	1.000000	0.254334	7.36853e+06	-56389.1	955.818	-29739.3	0.000000	0.000000	6.254808	0.061391	NaN	0.000000	0.001616	0.001664	28.0813	0.057320	0.002233	25.6695	-102.264	-162.086	0.155512	0.253063	-0.885836	-0.887107	0.061391	25.6695	-0.887629	-6.916208E+11	-8.876449E-14	NaN
355	1.000000	0.296366	7.36853e+06	-56389.1	955.818	-29739.3	0.000000	0.000000	6.296840	0.078778	NaN	0.000000	0.001543	0.001678	28.0814	0.074565	0.001971	37.8313	12.7651	13.9021	-0.008071	0.295010	-0.843804	-0.845160	0.078778	37.8313	-0.845366	-1.853423E+11	-4.250430E-13	NaN
355	1.000000	0.338377	7.36853e+06	-56389.1	955.818	-29739.3	0.000000	0.000000	6.338848	0.026195	NaN	0.000000	0.001550	0.001688	28.0804	0.021847	0.001961	11.138	-86.0193	-164.096	-0.007378	0.337108	-0.801794	-0.803062	0.026195	11.138	-0.803557	-5.025148E+10	-5.212795E-13	NaN
355	1.000000	0.380386	7.36853e+06	-56389.1	955.818	-29739.3	0.000000	0.000000	6.380858	0.022090	NaN	0.000000	0.001512	0.001679	28.0802	0.024312	0.001980	12.2807	-78.5738	13.9522	0.061066	0.379038	-0.759784	-0.761132	0.022090	12.2807	-0.761133	-1.332648E+10	-1.657636E-12	NaN
355	1.000000	0.422455	7.36853e+06	-56389.1	955.819	-29739.3	0.000000	0.000000	6.422929	0.069752	NaN	0.000000	0.001559	0.001698	28.08	0.122950	0.002075	59.2644	160.036	-165.116	0.054000	0.421079	-0.717715	-0.719091	0.069752	59.2644	-0.718598	-3.510343E+9	-1.987052E-11	NaN
355	1.000000	0.464468	7.36853e+06	-56389.1	955.818	-29739.3	0.000000	0.000000	6.464939	-0.001701	NaN	0.000000	0.001540	0.001688	28.0814	0.072519	0.002001	36.2435	144.851	14.9108	0.031685	0.463056	-0.675702	-0.677115	-0.001701	36.2435	-0.675667	-9.097848E+8	1.870186E-12	NaN
355	1.000000	0.506477	7.36853e+06	-56389.1	955.818	-29739.3	0.000000	0.000000	6.506947	-0.006222	NaN	0.000000	0.001532	0.001676	28.0814	0.110641	0.001931	57.2862	20.6643	-163.877	-0.021064	0.505135	-0.633693	-0.635036	-0.006222	57.2862	-0.633612	-2.413337E+8	2.578372E-11	NaN
355	1.000000	0.548493	7.36853e+06	-56389.1	955.819	-29739.3	0.000000	0.000000	6.548969	0.128609	NaN	0.000000	0.001521	0.001704	28.0815	0.033004	0.002029	16.2666	121.154	19.1712	0.127569	0.547136	-0.591677	-0.593034	0.128609	16.2666	-0.597607	-7.717885E+7	-1.666381E-9	NaN
355	1.000000	0.590529	7.36853e+06	-56389.1	955.817	-29739.3	0.000000	0.000000	6.591002	0.048637	NaN	0.000000	0.001541	0.001692	28.0807	0.121446	0.002066	58.7777	-27.5099	-162.668	0.035305	0.589229	-0.549641	-0.550941	0.048637	58.7777	-0.550262	-1.712294E+7	-2.840453E-9	NaN
355	1.000000	0.632508	7.36853e+06	-56389.1	955.819	-29739.3	0.000000	0.000000	6.632977	-0.023933	NaN	0.000000	0.001556	0.001700	28.0803	0.015152	0.001936	7.826600	-126.899	16.86	-0.001541	0.631128	-0.507663	-0.509042	-0.023933	7.826600	-0.505369	-4.07277e+06	5.876317E-9	NaN
355	1.000000	0.674556	7.36854e+06	-56389.1	955.819	-29739.3	0.000000	0.000000	6.675026	-0.007472	NaN	0.000000	0.001514	0.001704	28.08	0.026389	0.002027	13.0213	-44.6431	-170.349	0.012423	0.673245	-0.465614	-0.466925	-0.007472	13.0213	-0.465184	-1.11643e+06	6.692379E-9	NaN
355	1.000000	0.716541	7.36854e+06	-56389.1	955.819	-29739.3	0.000000	0.000000	6.717012	0.011783	NaN	0.000000	0.001520	0.001752	28.0798	0.099042	0.002017	49.1107	-124.845	17.399	0.011657	0.715154	-0.423629	-0.425016	0.011783	49.1107	-0.423809	-291350	-4.044160E-8	NaN
355	1.000000	0.758594	7.36854e+06	-56389.1	955.818	-29739.3	0.000000	0.000000	6.759066	0.041789	NaN	0.000000	0.001536	0.001775	28.0812	0.089288	0.001995	44.7539	61.1406	-162.383	0.064850	0.757200	-0.381577	-0.382970	0.041789	44.7539	-0.382277	-74568.2	-5.604193E-7	NaN
355	1.000000	0.800602	7.36854e+06	-56389.1	955.818	-29739.3	0.000000	0.000000	6.801072	-0.027741	NaN	0.000000	0.001497	0.001733	28.081	0.009059	0.001989	4.554756	113.326	13.253	-0.110839	0.799228	-0.339568	-0.340942	-0.027741	4.554756	-0.335000	-15437.8	1.796958E-6	NaN
355	1.000000	0.842606	7.36854e+06	-56389.1	955.817	-29739.3	0.000000	0.000000	6.843081	0.096548	NaN	0.000000	0.001472	0.001757	28.081	0.088200	0.001916	46.0225	165.578	-165.685	0.076741	0.841362	-0.297564	-0.298808	0.096548	46.0225	-0.299137	-4568.63	-2.113291E-5	NaN
355	1.000000	0.884618	7.36854e+06	-56389.1	955.818	-29739.3	0.000000	0.000000	6.885089	0.004018	NaN	0.000000	0.001496	0.001710	28.0798	0.075553	0.001954	38.6655	-141.566	16.0931	0.048691	0.883266	-0.255552	-0.256904	0.004018	38.6655	-0.255630	-1004.18	-4.000858E-6	NaN
355	1.000000	0.926662	7.36854e+06	-56389.1	955.818	-29739.3	0.000000	0.000000	6.927134	0.022015	NaN	0.000000	0.001479	0.001678	28.0799	0.040678	0.002058	19.7627	128.632	-163.342	-0.050433	0.925358	-0.213508	-0.214813	0.022015	19.7627	-0.214343	-225.398	-9.767367E-5	NaN
355	1.000000	0.968665	7.36854e+06	-56389.1	955.818	-29739.3	0.000000	0.000000	6.969138	0.053736	NaN	0.000000	0.001514	0.001708	28.0799	0.058181	0.001922	30.2701	132.731	14.8143	-0.011149	0.967304	-0.171505	-0.172866	0.053736	30.2701	-0.172837	-45.9968	-0.001168	NaN
355	1.000000	1.010668	7.36854e+06	-56389.1	955.82	-29739.3	0.000000	0.000000	7.011140	0.018273	NaN	0.000000	0.001471	0.001696	28.0814	0.103621	0.002001	51.7932	-141.011	-163.957	0.021233	1.009370	-0.129502	-0.130800	0.018273	51.7932	-0.129767	-7.541836	-0.002423	NaN
355	1.000000	1.052696	7.36854e+06	-56389.1	955.819	-29739.3	0.000000	0.000000	7.053166	-0.028665	NaN	0.000000	0.001535	0.001712	28.081	0.013284	0.001879	7.071329	-82.7677	17.4591	0.001414	1.051353	-0.087474	-0.088817	-0.028665	7.071329	-0.084434	-0.796067	0.036009	NaN
355	1.000000	1.094712	7.36854e+06	-56389.1	955.82	-29739.3	0.000000	0.000000	7.095185	0.042435	NaN	0.000000	0.001530	0.001697	28.0809	0.120730	0.002043	59.0937	-46.5192	-160.843	0.085679	1.093423	-0.045458	-0.046747	0.042435	59.0937	-0.045996	-0.068937	-0.615568	NaN
355	1.000000	1.136726	7.36854e+06	-56389.1	955.82	-29739.3	0.000000	0.000000	7.137203	0.141310	NaN	0.000000	0.001489	0.001737	28.0807	0.097194	0.002080	46.733	68.4268	16.6518	0.154161	1.135389	-0.003444	-0.004781	0.141310	46.733	-0.005712	-0.003860	-36.6127	NaN
355	2.000000	1.157307	7.36854e+06	-56389.1	955.819	-29739.3	0.000000	0.000000	7.158620	20.4686	NaN	0.000000	0.001523	0.001690	28.0801	16.4677	0.001678	9811.4	10.8647	-178.645	19.8816	1.156972	0.017137	0.016802	20.4686	9811.4	0.015572	0.016056	1274.81	70742.9
355	2.000000	1.167750	7.36854e+06	-56389.1	955.819	-29739.3	0.000000	0.000000	7.169859	39.8122	NaN	0.000000	0.001561	0.001739	28.0802	27.3729	0.001873	14610.8	6.955191	1.099349	37.3716	1.167413	0.027580	0.027243	39.8122	14610.8	0.025536	0.031998	1244.21	74625.4
355	2.000000	1.178272	7.36854e+06	-56389.1	955.819	-29739.3	0.000000	0.000000	7.181659	70.8832	NaN	0.000000	0.001531	0.001686	28.0803	35.9445	0.001736	20701.3	5.355522	179.363	72.3917	1.177953	0.038102	0.037783	70.8832	20701.3	0.035534	0.052996	1337.51	82157.9
355	2.000000	1.188680	7.36854e+06	-56389.1	955.818	-29739.3	0.000000	0.000000	7.193142	97.0048	NaN	0.000000	0.001531	0.001670	28.0815	46.2478	0.001761	26259.3	2.163893	-0.089465	93.8637	1.188480	0.048510	0.048310	97.0048	26259.3	0.045740	0.079701	1217.11	84981.5
355	2.000000	1.199275	7.36854e+06	-56389.1	955.819	-29739.3	0.000000	0.000000	7.205696	144.628	NaN	0.000000	0.001583	0.001684	28.0816	57.2897	0.001774	32300	2.949521	177.567	146.327	1.199034	0.059105	0.058864	144.628	32300	0.055747	0.111001	1302.95	88575.3
355	2.000000	1.209825	7.36854e+06	-56389.1	955.82	-29739.3	0.000000	0.000000	7.218118	190.145	NaN	0.000000	0.001539	0.001665	28.0814	68.146	0.001854	36746.4	3.629163	-4.274615	194.333	1.209682	0.069655	0.069512	190.145	36746.4	0.065774	0.147323	1290.67	87468.9
355	2.000000	1.220079	7.36854e+06	-56389.1	955.819	-29739.3	0.000000	0.000000	7.231265	260.432	NaN	0.000000	0.001545	0.001685	28.0803	77.338	0.001810	42721.9	4.296756	174.095	253.938	1.219902	0.079909	0.079732	260.432	42721.9	0.075337	0.186475	1396.61	90388.8
355	2.000000	1.230673	7.36854e+06	-56389.1	955.819	-29739.3	0.000000	0.000000	7.244803	332.004	NaN	0.000000	0.001547	0.001653	28.0802	85.3187	0.001623	52582.7	3.622759	-6.241771	328.9	1.230291	0.090503	0.090121	332.004	52582.7	0.085767	0.234075	1418.36	99297.5
355	2.000000	1.241089	7.36854e+06	-56389.1	955.819	-29739.3	0.000000	0.000000	7.258148	403.2	NaN	0.000000	0.001534	0.001689	28.0804	97.1901	0.001892	51379.2	6.842986	170.087	399.211	1.240744	0.100918	0.100574	403.2	51379.2	0.095033	0.280576	1437.05	88620.9
355	2.000000	1.248662	7.36854e+06	-56389.1	955.821	-29739.3	0.000000	0.000000	7.268126	461.658	NaN	0.000000	0.001543	0.001690	28.0805	103.009	0.001827	56376	6.625333	-9.987013	456.888	1.248225	0.108492	0.108055	461.658	56376	0.102350	0.320070	1442.36	91042.6

File: 2025-07-22_16-23-58_1_356.txt
2025-07-22, 16:23:58, 1
Index	Phase	Displacement	Time	Pos X	Pos Y	Pos Z	Rot A	Rot B	Piezo Z	Force A	Force B	Gripper	Voltage A	Voltage B	Temperature	Amplitude force	Amplitude pos	Stiffness	Phase shift	Phase excitation	Force A raw	Displacement raw	HMax	HMax raw	Real Force	Real Stiffness	Contact Depth	Area	Hardness	Reduced Mod.
[#]	[#]	[um]	[s]	[um]	[um]	[um]	[m°]	[m°]	[um]	[uN]	[uN]	[V]	[V]	[V]	[°C]	[uN]	[um]	[N/m]	[°]	[°]	[uN]	[um]	[um]	[um]	[uN]	[N/m]	[um]	[um^2]	[MPa]	[MPa]
356	1.000000	0.002296	7.36854e+06	-56439.1	955.818	-29739.3	0.000000	0.000000	6.002788	-0.024794	NaN	0.000000	0.001590	0.001770	28.0792	0.103375	0.000924	111.848	-164.069	-161.843	-0.065314	0.001018	-1.032261	-1.033539	-0.024794	111.848	-1.032095	-6.132789E+13	4.042857E-16	NaN
356	1.000000	0.042284	7.36854e+06	-56439.1	955.818	-29739.3	0.000000	0.000000	6.042777	-0.007182	NaN	0.000000	0.001629	0.001718	28.0792	0.074080	0.002003	36.9913	-152.733	-164.073	0.010696	0.040975	-0.992273	-0.993582	-0.007182	36.9913	-0.992127	-1.777301E+13	4.040913E-16	NaN
356	1.000000	0.082280	7.36854e+06	-56439.1	955.819	-29739.3	0.000000	0.000000	6.082772	-0.028587	NaN	0.000000	0.001547	0.001701	28.0796	0.177943	0.001907	93.3026	174.231	-167.319	0.057953	0.081012	-0.952276	-0.953545	-0.028587	93.3026	-0.952047	-5.124237E+12	5.578726E-15	NaN
356	1.000000	0.122287	7.36854e+06	-56439.1	955.818	-29739.3	0.000000	0.000000	6.122778	-0.064033	NaN	0.000000	0.001510	0.001701	28.0795	0.022263	0.002140	10.4038	26.4689	-163.794	-0.102564	0.120975	-0.912269	-0.913582	-0.064033	10.4038	-0.907653	-1.289622E+12	4.965284E-14	NaN
356	1.000000	0.162308	7.36854e+06	-56439.1	955.819	-29739.3	0.000000	0.000000	6.162797	-0.104978	NaN	0.000000	0.001564	0.001746	28.0805	0.069046	0.001996	34.5953	-149.974	-165.879	-0.029728	0.160994	-0.872249	-0.873563	-0.104978	34.5953	-0.869973	-3.990970E+11	2.630399E-13	NaN
356	1.000000	0.202315	7.36854e+06	-56439.1	955.818	-29739.3	0.000000	0.000000	6.202807	-0.027614	NaN	0.000000	0.001553	0.001709	28.0806	0.018010	0.001933	9.318594	-164.355	-163.804	-0.057985	0.201031	-0.832242	-0.833526	-0.027614	9.318594	-0.830019	-1.148270E+11	2.404830E-13	NaN
356	1.000000	0.242360	7.36854e+06	-56439.1	955.818	-29739.3	0.000000	0.000000	6.242850	-0.091256	NaN	0.000000	0.001508	0.001671	28.0808	0.031038	0.001984	15.6418	22.4486	-165.854	-0.087684	0.240987	-0.792196	-0.793569	-0.091256	15.6418	-0.787821	-3.072447E+10	2.970142E-12	NaN
356	1.000000	0.282370	7.36854e+06	-56439.1	955.818	-29739.3	0.000000	0.000000	6.282861	-0.044199	NaN	0.000000	0.001603	0.001773	28.0795	0.112274	0.001998	56.1872	-141.937	-160.918	0.046321	0.281038	-0.752187	-0.753519	-0.044199	56.1872	-0.751597	-9.884597E+9	4.471508E-12	NaN
356	1.000000	0.322375	7.36854e+06	-56439.1	955.819	-29739.3	0.000000	0.000000	6.322865	-0.076936	NaN	0.000000	0.001538	0.001779	28.0794	0.050588	0.001942	26.0562	119.19	-165.989	-0.036521	0.321094	-0.712182	-0.713463	-0.076936	26.0562	-0.709967	-2.676705E+9	2.874298E-11	NaN
356	1.000000	0.362400	7.36854e+06	-56439.1	955.819	-29739.3	0.000000	0.000000	6.362890	-0.074564	NaN	0.000000	0.001510	0.001778	28.0791	0.051948	0.001896	27.3935	23.9691	-168.342	-0.047057	0.361089	-0.672156	-0.673468	-0.074564	27.3935	-0.670115	-7.637720E+8	9.762642E-11	NaN
356	1.000000	0.402387	7.36854e+06	-56439.1	955.818	-29739.3	0.000000	0.000000	6.402878	-0.058209	NaN	0.000000	0.001562	0.001739	28.0805	0.173555	0.001861	93.2584	120.492	-162.59	-0.036480	0.401120	-0.632169	-0.633437	-0.058209	93.2584	-0.631701	-2.271880E+8	2.562144E-10	NaN
356	1.000000	0.442449	7.36854e+06	-56439.1	955.818	-29739.3	0.000000	0.000000	6.442938	-0.093811	NaN	0.000000	0.001499	0.001800	28.0804	0.022615	0.001961	11.5326	161.399	-165.175	-0.061461	0.441158	-0.592108	-0.593399	-0.093811	11.5326	-0.586007	-5.340805E+7	1.756489E-9	NaN
356	1.000000	0.482455	7.36854e+06	-56439.1	955.818	-29739.3	0.000000	0.000000	6.482946	-0.049177	NaN	0.000000	0.001491	0.001749	28.0806	0.045927	0.002078	22.1028	109.845	-160.698	-0.059378	0.481134	-0.552102	-0.553423	-0.049177	22.1028	-0.550433	-1.721703E+7	2.856288E-9	NaN
356	1.000000	0.522485	7.36854e+06	-56439.1	955.819	-29739.3	0.000000	0.000000	6.522974	-0.098597	NaN	0.000000	0.001505	0.001706	28.0805	0.092088	0.002057	44.7713	-158.304	-164.528	-0.092552	0.521129	-0.512072	-0.513427	-0.098597	44.7713	-0.510420	-4.78924e+06	2.058714E-8	NaN
356	1.000000	0.562503	7.36854e+06	-56439.1	955.818	-29739.3	0.000000	0.000000	6.562993	-0.074550	NaN	0.000000	0.001540	0.001702	28.0794	0.091141	0.002059	44.2538	130.057	-161.541	-0.053387	0.561154	-0.472054	-0.473402	-0.074550	44.2538	-0.470790	-1.3381e+06	5.571281E-8	NaN
356	1.000000	0.602521	7.36854e+06	-56439.1	955.819	-29739.3	0.000000	0.000000	6.603012	-0.036666	NaN	0.000000	0.001555	0.001680	28.0794	0.003605	0.001899	1.898454	108.23	-169.212	0.016685	0.601175	-0.432036	-0.433382	-0.036666	1.898454	-0.417551	-237502	1.543832E-7	NaN
356	1.000000	0.642504	7.36854e+06	-56439.1	955.818	-29739.3	0.000000	0.000000	6.642996	-0.044863	NaN	0.000000	0.001552	0.001691	28.0795	0.042571	0.002050	20.7695	-86.4559	-165.225	-0.099687	0.641168	-0.392053	-0.393389	-0.044863	20.7695	-0.390432	-97578.2	4.597683E-7	NaN
356	1.000000	0.682518	7.36854e+06	-56439.1	955.819	-29739.3	0.000000	0.000000	6.683010	-0.032927	NaN	0.000000	0.001527	0.001683	28.0805	0.064906	0.001993	32.5735	70.8694	-164.36	0.032265	0.681170	-0.352039	-0.353387	-0.032927	32.5735	-0.351281	-26643	1.235853E-6	NaN
356	1.000000	0.722558	7.36855e+06	-56439.1	955.818	-29739.3	0.000000	0.000000	6.723047	-0.098013	NaN	0.000000	0.001489	0.001685	28.0806	0.052025	0.001920	27.1011	-164.238	-165.753	-0.049961	0.721242	-0.311999	-0.313314	-0.098013	27.1011	-0.309287	-6463.9	1.516310E-5	NaN
356	1.000000	0.762528	7.36855e+06	-56439.1	955.818	-29739.3	0.000000	0.000000	6.763019	-0.044091	NaN	0.000000	0.001523	0.001690	28.0807	0.082530	0.002056	40.1389	-140.482	-166.251	-0.082900	0.761255	-0.272029	-0.273302	-0.044091	40.1389	-0.271205	-1737.23	2.538004E-5	NaN
356	1.000000	0.802605	7.36855e+06	-56439.1	955.819	-29739.3	0.000000	0.000000	6.803096	-0.055853	NaN	0.000000	0.001604	0.001689	28.0805	0.100679	0.002010	50.0999	154.876	-164.947	-0.044915	0.801226	-0.231952	-0.233330	-0.055853	50.0999	-0.231115	-416.984	0.000134	NaN
356	1.000000	0.842597	7.36855e+06	-56439.1	955.818	-29739.3	0.000000	0.000000	6.843087	-0.075902	NaN	0.000000	0.001591	0.001714	28.0793	0.045348	0.001978	22.9238	-35.8011	-163.394	-0.043150	0.841282	-0.191959	-0.193275	-0.075902	22.9238	-0.189476	-88.1598	0.000861	NaN
356	1.000000	0.882600	7.36855e+06	-56439.1	955.819	-29739.3	0.000000	0.000000	6.883090	-0.072988	NaN	0.000000	0.001624	0.001645	28.0793	0.079803	0.002026	39.3824	57.5615	-167.576	-0.003061	0.881333	-0.151956	-0.153224	-0.072988	39.3824	-0.150566	-18.5493	0.003935	NaN
356	1.000000	0.922606	7.36855e+06	-56439.1	955.819	-29739.3	0.000000	0.000000	6.923097	-0.067018	NaN	0.000000	0.001511	0.001666	28.0791	0.076169	0.002062	36.9336	9.664949	-165.764	-0.069992	0.921329	-0.111950	-0.113228	-0.067018	36.9336	-0.110589	-3.092314	0.021672	NaN
356	1.000000	0.962648	7.36855e+06	-56439.1	955.819	-29739.3	0.000000	0.000000	6.963137	-0.103226	NaN	0.000000	0.001500	0.001695	28.0803	0.090119	0.002036	44.2639	-4.787328	-163.536	-0.129911	0.961314	-0.071909	-0.073243	-0.103226	44.2639	-0.070160	-0.344481	0.299657	NaN
356	1.000000	1.002664	7.36855e+06	-56439.1	955.818	-29739.3	0.000000	0.000000	7.003156	-0.017233	NaN	0.000000	0.001582	0.001680	28.0805	0.083814	0.002070	40.4975	-22.5308	-166.317	-0.055306	1.001313	-0.031893	-0.033244	-0.017233	40.4975	-0.031574	-0.025484	0.676235	NaN
356	1.000000	1.042639	7.36855e+06	-56439.1	955.818	-29739.3	0.000000	0.000000	7.043383	6.106276	NaN	0.000000	0.001572	0.001668	28.0805	6.132963	0.001794	3419.48	10.6015	-168.325	4.788426	1.041336	0.008082	0.006779	6.106276	3419.48	0.006743	0.005781	1056.25	41089.3
356	2.000000	1.054249	7.36855e+06	-56439.1	955.818	-29739.3	0.000000	0.000000	7.055521	18.9482	NaN	0.000000	0.001579	0.001651	28.0793	17.2461	0.001758	9812.53	7.052955	-176.964	18.6778	1.053965	0.019692	0.019408	18.9482	9812.53	0.018244	0.019857	954.215	63619.9
356	2.000000	1.064192	7.36855e+06	-56439.1	955.818	-29739.3	0.000000	0.000000	7.066339	40.205	NaN	0.000000	0.001577	0.001632	28.0792	26.1093	0.001883	13865.4	5.886921	-176.49	39.4364	1.063936	0.029635	0.029380	40.205	13865.4	0.027460	0.035644	1127.97	67098.6
356	2.000000	1.074171	7.36855e+06	-56439.1	955.818	-29739.3	0.000000	0.000000	7.077402	66.5409	NaN	0.000000	0.001547	0.001687	28.0791	34.8879	0.001810	19271.4	1.676930	-177.211	64.681	1.073894	0.039614	0.039338	66.5409	19271.4	0.037025	0.056566	1176.35	74030.3
356	2.000000	1.084203	7.36855e+06	-56439.1	955.818	-29739.3	0.000000	0.000000	7.088664	96.4525	NaN	0.000000	0.001500	0.001684	28.0792	45.3224	0.001855	24431.1	3.553977	178.638	96.6325	1.083956	0.049646	0.049399	96.4525	24431.1	0.046685	0.082444	1169.91	77738.7
356	2.000000	1.094161	7.36855e+06	-56439.1	955.818	-29739.3	0.000000	0.000000	7.100160	133.817	NaN	0.000000	0.001563	0.001729	28.0803	54.4919	0.001793	30398.7	3.297866	176.386	132.825	1.093974	0.059605	0.059417	133.817	30398.7	0.056303	0.112886	1185.41	82662.3
356	2.000000	1.104162	7.36855e+06	-56439.1	955.818	-29739.3	0.000000	0.000000	7.112459	189.678	NaN	0.000000	0.001528	0.001675	28.0803	63.5536	0.001761	36097.8	4.629224	175.097	190.696	1.103820	0.069605	0.069263	189.678	36097.8	0.065664	0.146900	1291.21	86048.5
356	2.000000	1.114055	7.36855e+06	-56439.1	955.818	-29739.3	0.000000	0.000000	7.124871	250.921	NaN	0.000000	0.001511	0.001691	28.0804	72.1561	0.001909	37795.6	2.673244	176.883	246.432	1.113825	0.079498	0.079268	250.921	37795.6	0.074519	0.182956	1371.48	80731.1
356	2.000000	1.124151	7.36855e+06	-56439.1	955.819	-29739.3	0.000000	0.000000	7.137058	301.744	NaN	0.000000	0.001515	0.001700	28.0791	80.8743	0.001843	43871.6	3.141384	174.78	300.441	1.123892	0.089594	0.089335	301.744	43871.6	0.084436	0.227717	1325.08	83996
356	2.000000	1.134091	7.36855e+06	-56439.1	955.82	-29739.3	0.000000	0.000000	7.150192	379.377	NaN	0.000000	0.001536	0.001742	28.0789	90.6256	0.001813	49996.2	3.883331	172.982	375.937	1.133800	0.099534	0.099243	379.377	49996.2	0.093843	0.274386	1382.64	87202.6
356	2.000000	1.143098	7.36855e+06	-56439.1	955.819	-29739.3	0.000000	0.000000	7.161943	446.086	NaN	0.000000	0.001549	0.001737	28.079	96.3992	0.001697	56812.4	3.623635	172.5	445.142	1.142842	0.108541	0.108285	446.086	56812.4	0.102652	0.321751	1386.43	91507.4