Folder: unikorn_login/remote_trans/data/nanoindenter/0828-1/data/Data_2025-08-06,11h17m57s (part 72)

File: 2025-07-22_16-23-58_1_161.txt
2025-07-22, 16:23:58, 1
Index	Phase	Displacement	Time	Pos X	Pos Y	Pos Z	Rot A	Rot B	Piezo Z	Force A	Force B	Gripper	Voltage A	Voltage B	Temperature	Amplitude force	Amplitude pos	Stiffness	Phase shift	Phase excitation	Force A raw	Displacement raw	HMax	HMax raw	Real Force	Real Stiffness	Contact Depth	Area	Hardness	Reduced Mod.
[#]	[#]	[um]	[s]	[um]	[um]	[um]	[m°]	[m°]	[um]	[uN]	[uN]	[V]	[V]	[V]	[°C]	[uN]	[um]	[N/m]	[°]	[°]	[uN]	[um]	[um]	[um]	[uN]	[N/m]	[um]	[um^2]	[MPa]	[MPa]
161	1.000000	0.002649	7.36661e+06	-46689.1	955.818	-29768.9	0.000000	0.000000	6.002808	-0.006551	NaN	0.000000	0.001583	0.001702	28.0989	0.168709	0.000968	174.295	129.831	-165.424	0.023714	0.001367	-0.986674	-0.987956	-0.006551	174.295	-0.986646	-1.499470E+13	4.368736E-16	NaN
161	1.000000	0.040590	7.36661e+06	-46689.1	955.82	-29768.9	0.000000	0.000000	6.040751	0.049765	NaN	0.000000	0.001600	0.001709	28.0795	0.042148	0.001963	21.4693	-45.8364	17.3762	0.051143	0.039271	-0.948733	-0.950052	0.049765	21.4693	-0.950472	-4.879645E+12	-1.019852E-14	NaN
161	1.000000	0.078600	7.36661e+06	-46689.1	955.818	-29768.9	0.000000	0.000000	6.078762	0.070817	NaN	0.000000	0.001625	0.001681	28.0945	0.090434	0.001997	45.2838	163.766	-165.527	0.025503	0.077274	-0.910723	-0.912049	0.070817	45.2838	-0.911896	-1.471550E+12	-4.812393E-14	NaN
161	1.000000	0.116617	7.36661e+06	-46689.1	955.819	-29768.9	0.000000	0.000000	6.116776	0.024903	NaN	0.000000	0.001701	0.001728	28.1293	0.052583	0.002019	26.0385	-152.558	14.7825	0.072412	0.115245	-0.872707	-0.874079	0.024903	26.0385	-0.873424	-4.443934E+11	-5.603856E-14	NaN
161	1.000000	0.154649	7.36661e+06	-46689.1	955.82	-29768.9	0.000000	0.000000	6.154807	-0.024590	NaN	0.000000	0.001660	0.001692	28.0998	0.042452	0.002132	19.9077	105.142	-166.473	0.020617	0.153333	-0.834674	-0.835991	-0.024590	19.9077	-0.833748	-1.289963E+11	1.906238E-13	NaN
161	1.000000	0.192653	7.36661e+06	-46689.1	955.819	-29768.9	0.000000	0.000000	6.192812	0.017579	NaN	0.000000	0.001602	0.001786	28.0797	0.094765	0.002038	46.4926	-127.096	15.8243	0.000233	0.191262	-0.796671	-0.798062	0.017579	46.4926	-0.796954	-4.088030E+10	-4.300166E-13	NaN
161	1.000000	0.230681	7.36661e+06	-46689.1	955.818	-29768.9	0.000000	0.000000	6.230839	-0.004666	NaN	0.000000	0.001592	0.001692	28.0963	0.011856	0.001900	6.240026	-125.345	-163.395	0.004595	0.229313	-0.758642	-0.760010	-0.004666	6.240026	-0.758082	-1.211164E+10	3.852308E-13	NaN
161	1.000000	0.268655	7.36662e+06	-46689.1	955.818	-29768.9	0.000000	0.000000	6.268816	0.037355	NaN	0.000000	0.001631	0.001695	28.1296	0.125739	0.001900	66.1863	110.821	15.0599	-0.027237	0.267323	-0.720668	-0.722001	0.037355	66.1863	-0.721091	-3.796259E+9	-9.839938E-12	NaN
161	1.000000	0.306680	7.36662e+06	-46689.1	955.819	-29768.9	0.000000	0.000000	6.306841	0.046429	NaN	0.000000	0.001584	0.001731	28.0969	0.090344	0.002038	44.3281	156.771	-166.536	0.082368	0.305431	-0.682643	-0.683892	0.046429	44.3281	-0.683429	-1.161688E+9	-3.996673E-11	NaN
161	1.000000	0.344710	7.36662e+06	-46689.1	955.818	-29768.9	0.000000	0.000000	6.344868	0.006784	NaN	0.000000	0.001560	0.001772	28.0787	0.025249	0.002005	12.5949	-126.485	17.4711	0.036479	0.343345	-0.644614	-0.645979	0.006784	12.5949	-0.645018	-3.460376E+8	-1.960361E-11	NaN
161	1.000000	0.382765	7.36662e+06	-46689.1	955.82	-29768.9	0.000000	0.000000	6.382922	-0.023063	NaN	0.000000	0.001568	0.001787	28.097	0.033957	0.001887	17.9933	44.8804	-164.1	0.030832	0.381466	-0.606559	-0.607857	-0.023063	17.9933	-0.605597	-9.943233E+7	2.319435E-10	NaN
161	1.000000	0.420764	7.36662e+06	-46689.1	955.818	-29768.9	0.000000	0.000000	6.420921	-0.016162	NaN	0.000000	0.001582	0.001767	28.1309	0.032081	0.001938	16.5566	-45.9161	15.1096	-0.044012	0.419407	-0.568560	-0.569917	-0.016162	16.5566	-0.567828	-2.996502E+7	5.393565E-10	NaN
161	1.000000	0.458784	7.36662e+06	-46689.1	955.819	-29768.9	0.000000	0.000000	6.458941	-0.046191	NaN	0.000000	0.001607	0.001721	28.0983	0.034110	0.001949	17.5034	-83.8314	-159.387	-0.037191	0.457450	-0.530539	-0.531873	-0.046191	17.5034	-0.528560	-8.56204e+06	5.394915E-9	NaN
161	1.000000	0.496767	7.36662e+06	-46689.1	955.818	-29768.9	0.000000	0.000000	6.496928	0.049999	NaN	0.000000	0.001583	0.001731	28.0796	0.036440	0.002018	18.0611	-117.959	17.9998	-0.048615	0.495420	-0.492556	-0.493903	0.049999	18.0611	-0.494633	-2.88472e+06	-1.733248E-8	NaN
161	1.000000	0.534816	7.36662e+06	-46689.1	955.819	-29768.9	0.000000	0.000000	6.534976	0.028029	NaN	0.000000	0.001593	0.001658	28.0978	0.161442	0.002113	76.3883	-0.111929	-164.688	0.015454	0.533510	-0.454507	-0.455814	0.028029	76.3883	-0.454783	-797369	-3.515200E-8	NaN
161	1.000000	0.572822	7.36662e+06	-46689.1	955.819	-29768.9	0.000000	0.000000	6.572979	-0.040793	NaN	0.000000	0.001660	0.001690	28.1294	0.116089	0.002028	57.2518	24.1556	15.3012	0.066281	0.571432	-0.416501	-0.417891	-0.040793	57.2518	-0.415967	-225518	1.808866E-7	NaN
161	1.000000	0.610820	7.36662e+06	-46689.1	955.818	-29768.9	0.000000	0.000000	6.610979	0.031276	NaN	0.000000	0.001666	0.001700	28.0961	0.068883	0.001795	38.3839	78.2264	-161.752	0.043142	0.609533	-0.378504	-0.379790	0.031276	38.3839	-0.379115	-67171.8	-4.656072E-7	NaN
161	1.000000	0.648834	7.36662e+06	-46689.1	955.819	-29768.9	0.000000	0.000000	6.648990	-0.054788	NaN	0.000000	0.001664	0.001683	28.0793	0.101853	0.001991	51.1455	-92.6465	16.7028	-0.037195	0.647470	-0.340489	-0.341853	-0.054788	51.1455	-0.339686	-18070.7	3.031857E-6	NaN
161	1.000000	0.686862	7.36662e+06	-46689.1	955.818	-29768.9	0.000000	0.000000	6.687021	0.011550	NaN	0.000000	0.001654	0.001734	28.0977	0.100277	0.001892	53.0092	11.8065	-163.579	0.027050	0.685528	-0.302462	-0.303795	0.011550	53.0092	-0.302625	-5148.5	-2.243406E-6	NaN
161	1.000000	0.724857	7.36662e+06	-46689.1	955.819	-29768.9	0.000000	0.000000	6.725014	-0.027101	NaN	0.000000	0.001627	0.001686	28.1321	0.056443	0.002044	27.609	122.601	15.8201	-0.107246	0.723512	-0.264467	-0.265812	-0.027101	27.609	-0.263730	-1336.6	2.027590E-5	NaN
161	1.000000	0.762906	7.36662e+06	-46689.1	955.818	-29768.9	0.000000	0.000000	6.763065	0.019066	NaN	0.000000	0.001632	0.001643	28.0957	0.085769	0.001979	43.3399	102.614	-163.055	0.030649	0.761540	-0.226418	-0.227783	0.019066	43.3399	-0.226748	-355.684	-5.360423E-5	NaN
161	1.000000	0.800909	7.36662e+06	-46689.1	955.819	-29768.9	0.000000	0.000000	6.801069	0.036689	NaN	0.000000	0.001619	0.001624	28.0807	0.095795	0.002067	46.334	45.7787	11.3239	0.043482	0.799520	-0.188415	-0.189803	0.036689	46.334	-0.189009	-86.5866	-0.000424	NaN
161	1.000000	0.838938	7.36662e+06	-46689.1	955.819	-29768.9	0.000000	0.000000	6.839096	-0.020218	NaN	0.000000	0.001621	0.001647	28.0985	0.045670	0.001952	23.3951	83.2327	-164.385	-0.036648	0.837586	-0.150385	-0.151738	-0.020218	23.3951	-0.149737	-17.9146	0.001129	NaN
161	1.000000	0.876937	7.36662e+06	-46689.1	955.818	-29768.9	0.000000	0.000000	6.877097	0.030250	NaN	0.000000	0.001590	0.001619	28.1308	0.055588	0.001995	27.8601	122.872	15.7193	0.012750	0.875560	-0.112386	-0.113763	0.030250	27.8601	-0.113201	-3.506455	-0.008627	NaN
161	1.000000	0.914948	7.36662e+06	-46689.1	955.818	-29768.9	0.000000	0.000000	6.915106	-0.001370	NaN	0.000000	0.001623	0.001698	28.0955	0.081533	0.002037	40.0188	150.524	-158.836	0.042903	0.913620	-0.074376	-0.075704	-0.001370	40.0188	-0.074350	-0.444297	0.003084	NaN
161	1.000000	0.952967	7.36662e+06	-46689.1	955.818	-29768.9	0.000000	0.000000	6.953126	0.006583	NaN	0.000000	0.001643	0.001669	28.0816	0.063499	0.001968	32.2677	-2.398447	14.8455	-0.018306	0.951565	-0.036356	-0.037759	0.006583	32.2677	-0.036509	-0.035499	-0.185452	NaN
161	1.000000	0.990961	7.36662e+06	-46689.1	955.819	-29768.9	0.000000	0.000000	6.991177	1.386017	NaN	0.000000	0.001628	0.001655	28.0995	2.080322	0.001782	1167.52	6.125145	-165.545	0.353836	0.989662	0.001638	0.000339	1.386017	1167.52	0.000747	0.000567	2445.76	44808.3
161	2.000000	1.004958	7.36662e+06	-46689.1	955.818	-29768.9	0.000000	0.000000	7.005956	20.4206	NaN	0.000000	0.001627	0.001636	28.1318	16.1991	0.001716	9439.56	3.113418	8.564671	19.872	1.004614	0.015634	0.015291	20.4206	9439.56	0.014012	0.013990	1459.65	72914.6
161	2.000000	1.014463	7.36662e+06	-46689.1	955.818	-29768.9	0.000000	0.000000	7.016328	41.5143	NaN	0.000000	0.001592	0.001611	28.0938	25.5152	0.001684	15153.9	3.148795	-175.889	41.1413	1.014123	0.025139	0.024799	41.5143	15153.9	0.023085	0.027623	1502.9	83303.7
161	2.000000	1.023940	7.36662e+06	-46689.1	955.818	-29768.9	0.000000	0.000000	7.026913	68.477	NaN	0.000000	0.001664	0.001647	28.0813	35.1009	0.001728	20311.5	3.754531	0.261881	68.0294	1.023610	0.034616	0.034286	68.477	20311.5	0.032088	0.045182	1515.58	87303.3
161	2.000000	1.033355	7.36662e+06	-46689.1	955.818	-29768.9	0.000000	0.000000	7.037998	109.086	NaN	0.000000	0.001679	0.001618	28.0993	44.1733	0.001818	24301.5	2.291678	-179.341	106.706	1.033078	0.044032	0.043754	109.086	24301.5	0.040665	0.065759	1658.89	86582.3
161	2.000000	1.042953	7.36662e+06	-46689.1	955.817	-29768.9	0.000000	0.000000	7.049343	151.555	NaN	0.000000	0.001620	0.001617	28.1302	53.6874	0.001834	29280	5.125598	-2.340073	154.066	1.042449	0.053630	0.053126	151.555	29280	0.049748	0.091636	1653.89	88371.4
161	2.000000	1.052342	7.36662e+06	-46689.1	955.817	-29768.9	0.000000	0.000000	7.060852	203.15	NaN	0.000000	0.001635	0.001627	28.0923	62.7626	0.001786	35143.2	5.943393	174.096	202.26	1.052098	0.063018	0.062774	203.15	35143.2	0.058683	0.121127	1677.16	92256
161	2.000000	1.061796	7.36662e+06	-46689.1	955.818	-29768.9	0.000000	0.000000	7.073011	268.945	NaN	0.000000	0.001581	0.001619	28.0804	71.0043	0.001830	38808.9	1.727217	-2.600484	263.192	1.061563	0.072472	0.072240	268.945	38808.9	0.067275	0.153179	1755.76	90595
161	2.000000	1.071454	7.36662e+06	-46689.1	955.818	-29768.9	0.000000	0.000000	7.085175	329.893	NaN	0.000000	0.001590	0.001608	28.1016	81.0914	0.001820	44560.1	3.418849	175.129	334.766	1.071108	0.082131	0.081785	329.893	44560.1	0.076579	0.191874	1719.32	92942.1
161	2.000000	1.080866	7.36662e+06	-46689.1	955.819	-29768.9	0.000000	0.000000	7.098240	418.763	NaN	0.000000	0.001558	0.001666	28.1313	86.7513	0.001671	51916.1	2.116571	-4.303674	418.071	1.080456	0.091543	0.091132	418.763	51916.1	0.085493	0.232760	1799.12	98315.2
161	2.000000	1.090306	7.36662e+06	-46689.1	955.819	-29768.9	0.000000	0.000000	7.110595	489.672	NaN	0.000000	0.001552	0.001642	28.0922	94.8279	0.001674	56632.2	1.633860	174.98	486.079	1.090065	0.100983	0.100741	489.672	56632.2	0.094498	0.277783	1762.78	98171.1
161	2.000000	1.095177	7.36662e+06	-46689.1	955.82	-29768.9	0.000000	0.000000	7.117339	535.216	NaN	0.000000	0.001583	0.001655	28.1007	102.638	0.001799	57055.2	2.352219	174.643	526.561	1.094967	0.105854	0.105643	535.216	57055.2	0.098818	0.300702	1779.89	95060.5

File: 2025-07-22_16-23-58_1_162.txt
2025-07-22, 16:23:58, 1
Index	Phase	Displacement	Time	Pos X	Pos Y	Pos Z	Rot A	Rot B	Piezo Z	Force A	Force B	Gripper	Voltage A	Voltage B	Temperature	Amplitude force	Amplitude pos	Stiffness	Phase shift	Phase excitation	Force A raw	Displacement raw	HMax	HMax raw	Real Force	Real Stiffness	Contact Depth	Area	Hardness	Reduced Mod.
[#]	[#]	[um]	[s]	[um]	[um]	[um]	[m°]	[m°]	[um]	[uN]	[uN]	[V]	[V]	[V]	[°C]	[uN]	[um]	[N/m]	[°]	[°]	[uN]	[um]	[um]	[um]	[uN]	[N/m]	[um]	[um^2]	[MPa]	[MPa]
162	1.000000	0.002388	7.36662e+06	-46739.1	955.82	-29768.7	0.000000	0.000000	6.002792	-0.004666	NaN	0.000000	0.001585	0.001635	28.0833	0.021307	0.001167	18.2637	153.237	-165.903	0.042309	0.001182	-1.084631	-1.085837	-0.004666	18.2637	-1.084439	-3.098411E+14	1.505871E-17	NaN
162	1.000000	0.044376	7.36662e+06	-46739.1	955.819	-29768.7	0.000000	0.000000	6.044776	-0.084852	NaN	0.000000	0.001584	0.001630	28.0943	0.010992	0.002002	5.489751	29.5675	13.0678	-0.056979	0.042991	-1.042643	-1.044028	-0.084852	5.489751	-1.031051	-5.937660E+13	1.429044E-15	NaN
162	1.000000	0.086388	7.36662e+06	-46739.1	955.819	-29768.7	0.000000	0.000000	6.086793	0.007270	NaN	0.000000	0.001599	0.001616	28.1329	0.045660	0.001969	23.1845	-164.327	-165.019	0.104535	0.085072	-1.000630	-1.001947	0.007270	23.1845	-1.000866	-2.330355E+13	-3.119628E-16	NaN
162	1.000000	0.128359	7.36662e+06	-46739.1	955.818	-29768.7	0.000000	0.000000	6.128762	-0.027899	NaN	0.000000	0.001585	0.001657	28.1043	0.049385	0.002075	23.804	-149.29	12.4031	0.000470	0.127013	-0.958660	-0.960006	-0.027899	23.804	-0.957781	-6.122788E+12	4.556664E-15	NaN
162	1.000000	0.170391	7.36662e+06	-46739.1	955.819	-29768.7	0.000000	0.000000	6.170794	-0.010065	NaN	0.000000	0.001576	0.001601	28.0808	0.027897	0.002009	13.8843	174.801	-163.092	-0.008644	0.169066	-0.916628	-0.917953	-0.010065	13.8843	-0.916084	-1.676238E+12	6.004759E-15	NaN
162	1.000000	0.212420	7.36662e+06	-46739.1	955.818	-29768.7	0.000000	0.000000	6.212821	-0.053356	NaN	0.000000	0.001562	0.001611	28.0925	0.063607	0.001970	32.2854	-148.391	14.786	-0.045265	0.211029	-0.874599	-0.875989	-0.053356	32.2854	-0.873360	-4.435001E+11	1.203061E-13	NaN
162	1.000000	0.254423	7.36662e+06	-46739.1	955.818	-29768.7	0.000000	0.000000	6.254825	-0.041013	NaN	0.000000	0.001554	0.001592	28.1327	0.099047	0.002046	48.4044	86.4052	-167.593	0.019352	0.253135	-0.832596	-0.833884	-0.041013	48.4044	-0.831960	-1.219980E+11	3.361754E-13	NaN
162	1.000000	0.296461	7.36662e+06	-46739.1	955.819	-29768.7	0.000000	0.000000	6.296867	0.036511	NaN	0.000000	0.001600	0.001583	28.1061	0.182399	0.002098	86.9355	162.901	12.5048	0.055243	0.295082	-0.790557	-0.791936	0.036511	86.9355	-0.790872	-3.380110E+10	-1.080183E-12	NaN
162	1.000000	0.338454	7.36662e+06	-46739.1	955.818	-29768.7	0.000000	0.000000	6.338860	0.064173	NaN	0.000000	0.001595	0.001570	28.0827	0.019577	0.002138	9.157155	95.6786	-168.141	0.014448	0.337130	-0.748565	-0.749889	0.064173	9.157155	-0.753821	-1.059808E+10	-6.055183E-12	NaN
162	1.000000	0.380459	7.36662e+06	-46739.1	955.819	-29768.7	0.000000	0.000000	6.380861	-0.027773	NaN	0.000000	0.001598	0.001614	28.092	0.101511	0.001911	53.1103	113.463	12.0434	-0.136696	0.379148	-0.706560	-0.707871	-0.027773	53.1103	-0.706168	-2.375440E+9	1.169158E-11	NaN
162	1.000000	0.422497	7.36662e+06	-46739.1	955.819	-29768.7	0.000000	0.000000	6.422903	0.055281	NaN	0.000000	0.001604	0.001635	28.1315	0.149212	0.001867	79.9235	125.204	-166.912	0.034890	0.421211	-0.664522	-0.665808	0.055281	79.9235	-0.665041	-6.508775E+8	-8.493246E-11	NaN
162	1.000000	0.464516	7.36663e+06	-46739.1	955.819	-29768.7	0.000000	0.000000	6.464920	-0.003223	NaN	0.000000	0.001605	0.001596	28.1061	0.072996	0.001933	37.7728	-61.6768	16.2126	-0.020227	0.463208	-0.622503	-0.623811	-0.003223	37.7728	-0.622439	-1.694919E+8	1.901619E-11	NaN
162	1.000000	0.506537	7.36663e+06	-46739.1	955.818	-29768.7	0.000000	0.000000	6.506944	0.060878	NaN	0.000000	0.001603	0.001632	28.0826	0.118203	0.001928	61.3153	14.2405	-168.835	-0.037290	0.505240	-0.580481	-0.581779	0.060878	61.3153	-0.581226	-4.588230E+7	-1.326824E-9	NaN
162	1.000000	0.548551	7.36663e+06	-46739.1	955.818	-29768.7	0.000000	0.000000	6.548954	-0.009923	NaN	0.000000	0.001616	0.001639	28.0923	0.053159	0.001970	26.9816	-0.124096	16.08	0.005743	0.547239	-0.538468	-0.539780	-0.009923	26.9816	-0.538192	-1.164875E+7	8.518901E-10	NaN
162	1.000000	0.590575	7.36663e+06	-46739.1	955.818	-29768.7	0.000000	0.000000	6.590979	0.002957	NaN	0.000000	0.001611	0.001583	28.1319	0.025164	0.002029	12.4051	-173.834	-168.31	-0.115545	0.589260	-0.496444	-0.497759	0.002957	12.4051	-0.496623	-3.07533e+06	-9.614894E-10	NaN
162	1.000000	0.632592	7.36663e+06	-46739.1	955.818	-29768.7	0.000000	0.000000	6.632995	-0.015359	NaN	0.000000	0.001635	0.001595	28.1078	0.067525	0.002106	32.0571	103.165	12.4196	-0.028734	0.631184	-0.454427	-0.455834	-0.015359	32.0571	-0.454068	-779117	1.971389E-8	NaN
162	1.000000	0.674597	7.36663e+06	-46739.1	955.819	-29768.7	0.000000	0.000000	6.675001	-0.001318	NaN	0.000000	0.001605	0.001644	28.0832	0.056312	0.001890	29.8	174.442	-165.604	0.100490	0.673342	-0.412422	-0.413677	-0.001318	29.8	-0.412389	-200612	6.569920E-9	NaN
162	1.000000	0.716618	7.36663e+06	-46739.1	955.818	-29768.7	0.000000	0.000000	6.717023	0.032625	NaN	0.000000	0.001615	0.001667	28.0902	0.028044	0.001999	14.0289	86.2589	12.0478	0.019647	0.715291	-0.370401	-0.371727	0.032625	14.0289	-0.372145	-53333.9	-6.117077E-7	NaN
162	1.000000	0.758651	7.36663e+06	-46739.1	955.818	-29768.7	0.000000	0.000000	6.759055	-0.004441	NaN	0.000000	0.001638	0.001627	28.13	0.074249	0.001924	38.5964	-69.8928	-163.599	-0.017843	0.757304	-0.328368	-0.329714	-0.004441	38.5964	-0.328281	-12310.4	3.607782E-7	NaN
162	1.000000	0.800667	7.36663e+06	-46739.1	955.819	-29768.7	0.000000	0.000000	6.801071	-0.003143	NaN	0.000000	0.001612	0.001644	28.1089	0.081835	0.001943	42.1117	-6.707635	16.4915	0.042264	0.799307	-0.286352	-0.287712	-0.003143	42.1117	-0.286296	-2935.86	1.070725E-6	NaN
162	1.000000	0.842683	7.36663e+06	-46739.1	955.818	-29768.7	0.000000	0.000000	6.843088	0.021190	NaN	0.000000	0.001687	0.001597	28.0821	0.098797	0.001968	50.1908	100.347	-166.356	-0.046666	0.841354	-0.244335	-0.245664	0.021190	50.1908	-0.244652	-679.27	-3.119522E-5	NaN
162	1.000000	0.884690	7.36663e+06	-46739.1	955.818	-29768.7	0.000000	0.000000	6.885093	-0.016055	NaN	0.000000	0.001636	0.001655	28.0922	0.111591	0.002007	55.5928	97.687	12.1337	0.017844	0.883341	-0.202329	-0.203678	-0.016055	55.5928	-0.202113	-142.68	0.000113	NaN
162	1.000000	0.926722	7.36663e+06	-46739.1	955.818	-29768.7	0.000000	0.000000	6.927126	0.010078	NaN	0.000000	0.001615	0.001620	28.1284	0.030936	0.001966	15.7356	-75.4852	-168.223	0.068002	0.925448	-0.160297	-0.161570	0.010078	15.7356	-0.160777	-28.3001	-0.000356	NaN
162	1.000000	0.968748	7.36663e+06	-46739.1	955.819	-29768.7	0.000000	0.000000	6.969153	0.041196	NaN	0.000000	0.001693	0.001705	28.1101	0.023390	0.002041	11.4609	-1.104998	14.4918	0.066487	0.967391	-0.118271	-0.119627	0.041196	11.4609	-0.120967	-5.053067	-0.008153	NaN
162	1.000000	1.010738	7.36663e+06	-46739.1	955.818	-29768.7	0.000000	0.000000	7.011143	0.025957	NaN	0.000000	0.001680	0.001680	28.0798	0.042895	0.001953	21.9661	172.716	-162.454	0.052890	1.009426	-0.076280	-0.077593	0.025957	21.9661	-0.077166	-0.524992	-0.049442	NaN
162	1.000000	1.052756	7.36663e+06	-46739.1	955.818	-29768.7	0.000000	0.000000	7.053161	0.037887	NaN	0.000000	0.001703	0.001742	28.0907	0.069160	0.001884	36.7105	61.7148	13.0756	-0.027331	1.051412	-0.034263	-0.035607	0.037887	36.7105	-0.035037	-0.032105	-1.180087	NaN
162	2.000000	1.094219	7.36663e+06	-46739.1	955.818	-29768.7	0.000000	0.000000	7.094977	8.613613	NaN	0.000000	0.001627	0.001717	28.1294	8.173598	0.001717	4759.02	6.253460	-168.42	7.626300	1.093331	0.007201	0.006312	8.613613	4759.02	0.005843	0.004916	1752.16	62013.4
162	2.000000	1.104845	7.36663e+06	-46739.1	955.818	-29768.7	0.000000	0.000000	7.106345	26.6472	NaN	0.000000	0.001596	0.001703	28.1114	19.793	0.001867	10602	5.456447	3.308929	25.6349	1.104524	0.017827	0.017506	26.6472	10602	0.015942	0.016561	1608.99	75268.6
162	2.000000	1.115255	7.36663e+06	-46739.1	955.818	-29768.7	0.000000	0.000000	7.118022	57.4773	NaN	0.000000	0.001648	0.001703	28.0832	30.1037	0.001802	16710.3	6.339356	177.856	55.4519	1.114949	0.028236	0.027930	57.4773	16710.3	0.025657	0.032221	1783.83	85052.3
162	2.000000	1.125828	7.36663e+06	-46739.1	955.817	-29768.7	0.000000	0.000000	7.130284	98.5619	NaN	0.000000	0.001633	0.001718	28.0892	39.9984	0.001778	22494.4	9.101041	-6.934299	99.0958	1.125342	0.038810	0.038323	98.5619	22494.4	0.035523	0.052971	1860.66	89294.9
162	2.000000	1.136332	7.36663e+06	-46739.1	955.818	-29768.7	0.000000	0.000000	7.142928	150.638	NaN	0.000000	0.001609	0.001756	28.1278	50.4901	0.001788	28244.3	5.581131	175.276	151.46	1.135858	0.049313	0.048840	150.638	28244.3	0.045313	0.078478	1919.49	92114.8
162	2.000000	1.146748	7.36663e+06	-46739.1	955.818	-29768.7	0.000000	0.000000	7.155636	206.377	NaN	0.000000	0.001611	0.001724	28.1117	59.8798	0.001720	34822.3	3.898816	-5.482499	203.136	1.146366	0.059729	0.059348	206.377	34822.3	0.055285	0.109444	1885.68	96168.6
162	2.000000	1.157311	7.36663e+06	-46739.1	955.819	-29768.7	0.000000	0.000000	7.169058	275.904	NaN	0.000000	0.001607	0.001751	28.0826	72.4385	0.001928	37567.8	2.655311	175.64	276.788	1.156991	0.070292	0.069972	275.904	37567.8	0.064784	0.143520	1922.4	90600.9
162	2.000000	1.167782	7.36663e+06	-46739.1	955.817	-29768.7	0.000000	0.000000	7.182210	341.136	NaN	0.000000	0.001645	0.001737	28.0912	82.7905	0.001822	45443.7	4.720470	-8.792994	340.475	1.167541	0.080763	0.080522	341.136	45443.7	0.075133	0.185594	1838.07	96375.1
162	2.000000	1.178265	7.36663e+06	-46739.1	955.819	-29768.7	0.000000	0.000000	7.196471	433.047	NaN	0.000000	0.001667	0.001743	28.1279	90.57	0.001714	52853.4	2.967177	172.642	436.12	1.177862	0.091246	0.090843	433.047	52853.4	0.085101	0.230883	1875.61	100496
162	2.000000	1.188817	7.36663e+06	-46739.1	955.818	-29768.7	0.000000	0.000000	7.210337	513.654	NaN	0.000000	0.001675	0.001716	28.1128	100.205	0.001625	61659	7.592981	-13.5947	516.64	1.188585	0.101798	0.101566	513.654	61659	0.095550	0.283287	1813.19	105842
162	2.000000	1.192717	7.36663e+06	-46739.1	955.818	-29768.7	0.000000	0.000000	7.216126	559.574	NaN	0.000000	0.001603	0.001757	28.1117	104.771	0.001888	55491.1	5.562802	-10.6049	556.106	1.192286	0.105699	0.105267	559.574	55491.1	0.098136	0.297025	1883.93	93025.2