Folder: unikorn_login/remote_trans/data/nanoindenter/0828-1/data/Data_2025-08-06,11h17m57s (part 78)

File: 2025-07-22_16-23-58_1_173.txt
2025-07-22, 16:23:58, 1
Index	Phase	Displacement	Time	Pos X	Pos Y	Pos Z	Rot A	Rot B	Piezo Z	Force A	Force B	Gripper	Voltage A	Voltage B	Temperature	Amplitude force	Amplitude pos	Stiffness	Phase shift	Phase excitation	Force A raw	Displacement raw	HMax	HMax raw	Real Force	Real Stiffness	Contact Depth	Area	Hardness	Reduced Mod.
[#]	[#]	[um]	[s]	[um]	[um]	[um]	[m°]	[m°]	[um]	[uN]	[uN]	[V]	[V]	[V]	[°C]	[uN]	[um]	[N/m]	[°]	[°]	[uN]	[um]	[um]	[um]	[uN]	[N/m]	[um]	[um^2]	[MPa]	[MPa]
173	1.000000	0.002276	7.36673e+06	-47289.1	955.818	-29767.1	0.000000	0.000000	6.002806	0.070255	NaN	0.000000	0.001577	0.001642	28.0817	0.060625	0.001055	57.4372	-91.6044	-163.596	-0.006829	0.001046	-0.939895	-0.941125	0.070255	57.4372	-0.940812	-3.614875E+12	-1.943484E-14	NaN
173	1.000000	0.040239	7.36673e+06	-47289.1	955.818	-29767.1	0.000000	0.000000	6.040767	0.036720	NaN	0.000000	0.001546	0.001630	28.0842	0.088866	0.001846	48.1455	-151.862	16.7399	0.086903	0.038867	-0.901932	-0.903303	0.036720	48.1455	-0.902504	-1.098753E+12	-3.341976E-14	NaN
173	1.000000	0.078231	7.36673e+06	-47289.1	955.817	-29767.1	0.000000	0.000000	6.078758	0.010897	NaN	0.000000	0.001568	0.001643	28.1249	0.026481	0.001957	13.5323	-5.947072	-164.649	0.065637	0.076936	-0.863940	-0.865235	0.010897	13.5323	-0.864544	-3.369887E+11	-3.233646E-14	NaN
173	1.000000	0.116278	7.36673e+06	-47289.1	955.818	-29767.1	0.000000	0.000000	6.116807	0.064377	NaN	0.000000	0.001576	0.001658	28.1131	0.069643	0.002091	33.3097	127.51	13.4195	0.097845	0.114872	-0.825893	-0.827299	0.064377	33.3097	-0.827343	-1.056243E+11	-6.094932E-13	NaN
173	1.000000	0.154257	7.36673e+06	-47289.1	955.819	-29767.1	0.000000	0.000000	6.154787	0.076659	NaN	0.000000	0.001569	0.001686	28.0819	0.100487	0.001963	51.188	85.4104	-162.362	0.123067	0.152921	-0.787914	-0.789250	0.076659	51.188	-0.789037	-3.191579E+10	-2.401925E-12	NaN
173	1.000000	0.192287	7.36673e+06	-47289.1	955.819	-29767.1	0.000000	0.000000	6.192817	0.067271	NaN	0.000000	0.001569	0.001627	28.0863	0.071834	0.001991	36.0872	-32.7512	15.3629	-0.004771	0.190914	-0.749884	-0.751257	0.067271	36.0872	-0.751282	-9.787382E+9	-6.873248E-12	NaN
173	1.000000	0.230299	7.36673e+06	-47289.1	955.819	-29767.1	0.000000	0.000000	6.230825	0.001916	NaN	0.000000	0.001657	0.001648	28.1265	0.048805	0.001828	26.6996	134.752	-165.008	0.064867	0.228977	-0.711872	-0.713193	0.001916	26.6996	-0.711926	-2.846620E+9	-6.731736E-13	NaN
173	1.000000	0.268302	7.36673e+06	-47289.1	955.819	-29767.1	0.000000	0.000000	6.268829	0.002173	NaN	0.000000	0.001606	0.001653	28.1115	0.083424	0.002004	41.6249	19.5432	14.649	0.000349	0.266938	-0.673869	-0.675232	0.002173	41.6249	-0.673908	-8.607349E+8	-2.524561E-12	NaN
173	1.000000	0.306365	7.36673e+06	-47289.1	955.819	-29767.1	0.000000	0.000000	6.306895	0.086316	NaN	0.000000	0.001541	0.001625	28.0808	0.049501	0.001863	26.5683	24.7339	-165.021	0.114149	0.305069	-0.635806	-0.637102	0.086316	26.5683	-0.638243	-2.793669E+8	-3.089697E-10	NaN
173	1.000000	0.344353	7.36673e+06	-47289.1	955.818	-29767.1	0.000000	0.000000	6.344881	0.038255	NaN	0.000000	0.001633	0.001625	28.0844	0.046278	0.001955	23.6705	-136.12	16.1718	0.045114	0.342962	-0.597818	-0.599209	0.038255	23.6705	-0.599030	-8.074247E+7	-4.737899E-10	NaN
173	1.000000	0.382385	7.36673e+06	-47289.1	955.818	-29767.1	0.000000	0.000000	6.382913	0.014961	NaN	0.000000	0.001524	0.001641	28.1258	0.193098	0.001877	102.893	-46.6558	-167.142	0.086935	0.381081	-0.559785	-0.561090	0.014961	102.893	-0.559894	-2.327647E+7	-6.427717E-10	NaN
173	1.000000	0.420372	7.36673e+06	-47289.1	955.818	-29767.1	0.000000	0.000000	6.420900	0.033354	NaN	0.000000	0.001604	0.001646	28.1138	0.040149	0.001936	20.7351	167.355	15.4794	0.024853	0.419011	-0.521799	-0.523160	0.033354	20.7351	-0.523005	-7.16771e+06	-4.653301E-9	NaN
173	1.000000	0.458416	7.36673e+06	-47289.1	955.818	-29767.1	0.000000	0.000000	6.458946	0.085227	NaN	0.000000	0.001539	0.001664	28.081	0.030641	0.001968	15.5695	143.818	-166.591	0.052295	0.457139	-0.483755	-0.485031	0.085227	15.5695	-0.487860	-2.32e+06	-3.673578E-8	NaN
173	1.000000	0.496409	7.36673e+06	-47289.1	955.819	-29767.1	0.000000	0.000000	6.496938	0.044807	NaN	0.000000	0.001560	0.001643	28.0882	0.097339	0.002105	46.2433	90.5949	14.4037	0.033281	0.495056	-0.445762	-0.447115	0.044807	46.2433	-0.446488	-609354	-7.353202E-8	NaN
173	1.000000	0.534414	7.36673e+06	-47289.1	955.817	-29767.1	0.000000	0.000000	6.534944	0.081876	NaN	0.000000	0.001615	0.001645	28.1254	0.033383	0.001893	17.6344	115.535	-167.66	0.068062	0.533129	-0.407756	-0.409042	0.081876	17.6344	-0.411239	-193203	-4.237809E-7	NaN
173	1.000000	0.572445	7.36673e+06	-47289.1	955.818	-29767.1	0.000000	0.000000	6.572972	0.001137	NaN	0.000000	0.001570	0.001666	28.1104	0.049076	0.001942	25.2733	50.2536	13.8997	0.037824	0.571049	-0.369725	-0.371122	0.001137	25.2733	-0.369759	-49278.7	-2.307996E-8	NaN
173	1.000000	0.610463	7.36673e+06	-47289.1	955.818	-29767.1	0.000000	0.000000	6.610992	0.048533	NaN	0.000000	0.001560	0.001691	28.0795	0.110094	0.001885	58.4201	102.73	-162.768	0.031881	0.609119	-0.331708	-0.333052	0.048533	58.4201	-0.332331	-14111.3	-3.439308E-6	NaN
173	1.000000	0.648470	7.36673e+06	-47289.1	955.818	-29767.1	0.000000	0.000000	6.648997	0.009895	NaN	0.000000	0.001535	0.001676	28.0858	0.152703	0.001952	78.2091	30.0618	19.7457	0.031314	0.647092	-0.293701	-0.295078	0.009895	78.2091	-0.293796	-3802.79	-2.602113E-6	NaN
173	1.000000	0.686493	7.36673e+06	-47289.1	955.818	-29767.1	0.000000	0.000000	6.687022	0.041033	NaN	0.000000	0.001546	0.001655	28.1268	0.049938	0.002008	24.868	121.295	-164.966	0.048867	0.685181	-0.255677	-0.256990	0.041033	24.868	-0.256915	-1050.92	-3.904434E-5	NaN
173	1.000000	0.724514	7.36673e+06	-47289.1	955.818	-29767.1	0.000000	0.000000	6.725043	0.054388	NaN	0.000000	0.001576	0.001635	28.1115	0.192887	0.001949	98.9742	77.6498	12.9598	0.091794	0.723146	-0.217656	-0.219025	0.054388	98.9742	-0.218069	-258.686	-0.000210	NaN
173	1.000000	0.762537	7.36673e+06	-47289.1	955.819	-29767.1	0.000000	0.000000	6.763066	0.058701	NaN	0.000000	0.001583	0.001653	28.0803	0.091727	0.002012	45.5813	41.3438	-169.449	0.011866	0.761261	-0.179634	-0.180909	0.058701	45.5813	-0.180599	-62.4683	-0.000940	NaN
173	1.000000	0.800562	7.36673e+06	-47289.1	955.817	-29767.1	0.000000	0.000000	6.801090	0.033911	NaN	0.000000	0.001573	0.001678	28.0884	0.133593	0.002073	64.4492	104.334	13.4543	0.032747	0.799212	-0.141609	-0.142959	0.033911	64.4492	-0.142004	-12.8969	-0.002629	NaN
173	1.000000	0.838555	7.36673e+06	-47289.1	955.819	-29767.1	0.000000	0.000000	6.839085	0.076141	NaN	0.000000	0.001599	0.001652	28.1259	0.039316	0.002066	19.0319	15.2009	-169.158	0.031134	0.837254	-0.103615	-0.104917	0.076141	19.0319	-0.106616	-2.546489	-0.029900	NaN
173	1.000000	0.876555	7.36673e+06	-47289.1	955.818	-29767.1	0.000000	0.000000	6.877081	-0.011163	NaN	0.000000	0.001549	0.001710	28.109	0.049469	0.002073	23.8608	-48.4808	13.254	-0.035492	0.875227	-0.065616	-0.066944	-0.011163	23.8608	-0.065265	-0.253465	0.044043	NaN
173	1.000000	0.914601	7.36673e+06	-47289.1	955.817	-29767.1	0.000000	0.000000	6.915125	-0.046328	NaN	0.000000	0.001531	0.001713	28.0789	0.132881	0.001973	67.3582	-51.749	-169.271	0.015216	0.913277	-0.027570	-0.028894	-0.046328	67.3582	-0.027054	-0.019119	2.423123	NaN
173	1.000000	0.952588	7.36673e+06	-47289.1	955.818	-29767.1	0.000000	0.000000	6.953327	5.168436	NaN	0.000000	0.001568	0.001703	28.0887	5.484195	0.001804	3040.16	10.427	14.7277	4.474974	0.951231	0.010417	0.009060	5.168436	3040.16	0.009142	0.008243	626.988	30592.8
173	2.000000	0.965140	7.36673e+06	-47289.1	955.818	-29767.1	0.000000	0.000000	6.966594	22.5474	NaN	0.000000	0.001584	0.001727	28.1278	19.3531	0.001814	10671.4	8.770205	-178.864	22.5251	0.964786	0.022969	0.022615	22.5474	10671.4	0.021385	0.024765	910.464	61955.2
173	2.000000	0.974574	7.36673e+06	-47289.1	955.818	-29767.1	0.000000	0.000000	6.977020	46.6889	NaN	0.000000	0.001546	0.001678	28.1096	28.8462	0.001659	17384.8	4.654616	0.039682	45.0243	0.974213	0.032403	0.032042	46.6889	17384.8	0.030389	0.041554	1123.57	77917.6
173	2.000000	0.984094	7.36673e+06	-47289.1	955.82	-29767.1	0.000000	0.000000	6.987729	75.6188	NaN	0.000000	0.001516	0.001704	28.0806	36.8649	0.001726	21361.3	2.898841	-179.619	73.4758	0.983755	0.041923	0.041585	75.6188	21361.3	0.039268	0.062150	1216.72	78285.5
173	2.000000	0.993537	7.36673e+06	-47289.1	955.82	-29767.1	0.000000	0.000000	6.998755	114.102	NaN	0.000000	0.001544	0.001676	28.088	46.3719	0.001800	25756.7	2.687545	-1.171336	112.736	0.993339	0.051366	0.051168	114.102	25756.7	0.048044	0.086463	1319.67	80029.2
173	2.000000	1.003055	7.36673e+06	-47289.1	955.819	-29767.1	0.000000	0.000000	7.009912	153.974	NaN	0.000000	0.001558	0.001678	28.1271	55.3103	0.001789	30923.6	2.932299	177.517	156.073	1.002729	0.060884	0.060558	153.974	30923.6	0.057150	0.115787	1329.8	83029.6
173	2.000000	1.012478	7.36673e+06	-47289.1	955.82	-29767.1	0.000000	0.000000	7.021551	207.889	NaN	0.000000	0.001654	0.001666	28.1073	64.1749	0.001869	34329.5	-1.082972	0.481058	202.044	1.012227	0.070307	0.070056	207.889	34329.5	0.065765	0.147289	1411.44	81725.4
173	2.000000	1.021959	7.36673e+06	-47289.1	955.819	-29767.1	0.000000	0.000000	7.033370	264.744	NaN	0.000000	0.001650	0.001721	28.0813	73.7974	0.001766	41790.2	6.098568	171.616	261.449	1.021662	0.079788	0.079492	264.744	41790.2	0.075037	0.185180	1429.66	88726
173	2.000000	1.031551	7.36673e+06	-47289.1	955.82	-29767.1	0.000000	0.000000	7.045538	327.386	NaN	0.000000	0.001756	0.001653	28.0896	83.468	0.001879	44428.7	4.263338	-7.096923	325.336	1.031221	0.089381	0.089051	327.386	44428.7	0.083854	0.224965	1455.27	85581.3
173	2.000000	1.041041	7.36673e+06	-47289.1	955.82	-29767.1	0.000000	0.000000	7.058337	407.881	NaN	0.000000	0.001726	0.001691	28.1298	91.6642	0.001743	52583.1	3.653377	173.337	408.469	1.040616	0.098870	0.098446	407.881	52583.1	0.093053	0.270308	1508.95	92403.9
173	2.000000	1.050525	7.36674e+06	-47289.1	955.819	-29767.1	0.000000	0.000000	7.070854	481.669	NaN	0.000000	0.001649	0.001663	28.1072	98.8493	0.001739	56858	5.306485	-9.034219	478.494	1.050183	0.108354	0.108012	481.669	56858	0.102001	0.318129	1514.07	92100.8
173	2.000000	1.054912	7.36674e+06	-47289.1	955.82	-29767.1	0.000000	0.000000	7.076706	517.314	NaN	0.000000	0.001672	0.001686	28.1286	105.019	0.001822	57633.8	5.630394	170.58	513.702	1.054524	0.112741	0.112353	517.314	57633.8	0.106009	0.340729	1518.25	90208.1

File: 2025-07-22_16-23-58_1_174.txt
2025-07-22, 16:23:58, 1
Index	Phase	Displacement	Time	Pos X	Pos Y	Pos Z	Rot A	Rot B	Piezo Z	Force A	Force B	Gripper	Voltage A	Voltage B	Temperature	Amplitude force	Amplitude pos	Stiffness	Phase shift	Phase excitation	Force A raw	Displacement raw	HMax	HMax raw	Real Force	Real Stiffness	Contact Depth	Area	Hardness	Reduced Mod.
[#]	[#]	[um]	[s]	[um]	[um]	[um]	[m°]	[m°]	[um]	[uN]	[uN]	[V]	[V]	[V]	[°C]	[uN]	[um]	[N/m]	[°]	[°]	[uN]	[um]	[um]	[um]	[uN]	[N/m]	[um]	[um^2]	[MPa]	[MPa]
174	1.000000	0.002988	7.36674e+06	-47339.1	955.819	-29766.8	0.000000	0.000000	6.002842	-0.073338	NaN	0.000000	0.001648	0.001706	28.134	0.062891	0.000860	73.0914	-160.653	-166.693	-0.051493	0.001703	-1.014659	-1.015944	-0.073338	73.0914	-1.013906	-3.491041E+13	2.100755E-15	NaN
174	1.000000	0.042909	7.36674e+06	-47339.1	955.819	-29766.8	0.000000	0.000000	6.042768	0.028449	NaN	0.000000	0.001736	0.001699	28.1321	0.059415	0.001990	29.854	135.796	-164.394	0.018564	0.041649	-0.974738	-0.975998	0.028449	29.854	-0.975452	-1.059594E+13	-2.684922E-15	NaN
174	1.000000	0.082896	7.36674e+06	-47339.1	955.818	-29766.8	0.000000	0.000000	6.082753	-0.009219	NaN	0.000000	0.001677	0.001693	28.132	0.054716	0.002092	26.155	90.7069	-162.917	-0.011003	0.081554	-0.934751	-0.936093	-0.009219	26.155	-0.934486	-2.969903E+12	3.104162E-15	NaN
174	1.000000	0.122937	7.36674e+06	-47339.1	955.818	-29766.8	0.000000	0.000000	6.122795	0.000944	NaN	0.000000	0.001624	0.001703	28.1311	0.043215	0.001815	23.8124	142.523	-166.089	0.002576	0.121609	-0.894710	-0.896038	0.000944	23.8124	-0.894739	-8.629309E+11	-1.094451E-15	NaN
174	1.000000	0.162916	7.36674e+06	-47339.1	955.818	-29766.8	0.000000	0.000000	6.162773	-0.012808	NaN	0.000000	0.001708	0.001683	28.132	0.027450	0.001980	13.8659	-97.3698	-164.166	0.058845	0.161669	-0.854730	-0.855978	-0.012808	13.8659	-0.854038	-2.428889E+11	5.273352E-14	NaN
174	1.000000	0.202971	7.36674e+06	-47339.1	955.817	-29766.8	0.000000	0.000000	6.202829	0.010321	NaN	0.000000	0.001653	0.001711	28.1325	0.048284	0.002043	23.6318	-147.417	-166.894	0.035960	0.201681	-0.814676	-0.815966	0.010321	23.6318	-0.815004	-7.185385E+10	-1.436355E-13	NaN
174	1.000000	0.242970	7.36674e+06	-47339.1	955.817	-29766.8	0.000000	0.000000	6.242826	-0.025668	NaN	0.000000	0.001643	0.001692	28.1335	0.037252	0.002096	17.7738	-178.872	-167.658	0.067263	0.241616	-0.774677	-0.776031	-0.025668	17.7738	-0.773594	-1.968630E+10	1.303835E-12	NaN
174	1.000000	0.282992	7.36674e+06	-47339.1	955.817	-29766.8	0.000000	0.000000	6.282851	0.027762	NaN	0.000000	0.001662	0.001708	28.1323	0.063943	0.002109	30.313	-1.431641	-163.804	0.084167	0.281663	-0.734655	-0.735983	0.027762	30.313	-0.735341	-5.937378E+9	-4.675757E-12	NaN
174	1.000000	0.323013	7.36674e+06	-47339.1	955.817	-29766.8	0.000000	0.000000	6.322873	0.045911	NaN	0.000000	0.001658	0.001711	28.134	0.134924	0.001924	70.1444	45.9714	-163.532	-0.021727	0.321687	-0.694634	-0.695960	0.045911	70.1444	-0.695125	-1.678564E+9	-2.735115E-11	NaN
174	1.000000	0.363032	7.36674e+06	-47339.1	955.819	-29766.8	0.000000	0.000000	6.362888	-0.044893	NaN	0.000000	0.001695	0.001707	28.1315	0.116880	0.001923	60.7685	-164.21	-167.693	-0.083144	0.361696	-0.654615	-0.655951	-0.044893	60.7685	-0.654061	-4.603557E+8	9.751699E-11	NaN
174	1.000000	0.403062	7.36674e+06	-47339.1	955.818	-29766.8	0.000000	0.000000	6.402922	0.057795	NaN	0.000000	0.001671	0.001677	28.1326	0.195734	0.001985	98.5847	118.736	-169.409	0.079260	0.401752	-0.614585	-0.615895	0.057795	98.5847	-0.615025	-1.340379E+8	-4.311817E-10	NaN
174	1.000000	0.443049	7.36674e+06	-47339.1	955.818	-29766.8	0.000000	0.000000	6.442908	0.041821	NaN	0.000000	0.001707	0.001684	28.1318	0.082462	0.002049	40.2499	-80.5609	-166.796	-0.004441	0.441775	-0.574598	-0.575872	0.041821	40.2499	-0.575377	-3.809840E+7	-1.097722E-9	NaN
174	1.000000	0.483074	7.36674e+06	-47339.1	955.819	-29766.8	0.000000	0.000000	6.482931	-0.023993	NaN	0.000000	0.001682	0.001729	28.1343	0.022601	0.002003	11.2826	-67.5929	-166.569	-0.076937	0.481766	-0.534573	-0.535881	-0.023993	11.2826	-0.532978	-9.86104e+06	2.433096E-9	NaN
174	1.000000	0.523107	7.36674e+06	-47339.1	955.818	-29766.8	0.000000	0.000000	6.522963	-0.021353	NaN	0.000000	0.001705	0.001785	28.1329	0.093242	0.001998	46.6627	-168.777	-167.092	-0.025206	0.521782	-0.494540	-0.495865	-0.021353	46.6627	-0.494197	-2.84461e+06	7.506507E-9	NaN
174	1.000000	0.563119	7.36674e+06	-47339.1	955.818	-29766.8	0.000000	0.000000	6.562978	0.035735	NaN	0.000000	0.001704	0.001736	28.1344	0.064796	0.002059	31.4657	-172.317	-160.983	0.003307	0.561825	-0.454528	-0.455822	0.035735	31.4657	-0.455380	-812943	-4.395802E-8	NaN
174	1.000000	0.603157	7.36674e+06	-47339.1	955.818	-29766.8	0.000000	0.000000	6.603013	-0.045050	NaN	0.000000	0.001626	0.001705	28.1333	0.072717	0.001971	36.8948	15.6004	-167.029	-0.011446	0.601810	-0.414490	-0.415837	-0.045050	36.8948	-0.413574	-208546	2.160175E-7	NaN
174	1.000000	0.643115	7.36674e+06	-47339.1	955.817	-29766.8	0.000000	0.000000	6.642974	0.041420	NaN	0.000000	0.001634	0.001712	28.133	0.102183	0.001842	55.4605	-38.4876	-162.466	0.025388	0.641841	-0.374532	-0.375806	0.041420	55.4605	-0.375092	-58802.4	-7.043939E-7	NaN
174	1.000000	0.683171	7.36674e+06	-47339.1	955.818	-29766.8	0.000000	0.000000	6.683029	0.010351	NaN	0.000000	0.001692	0.001704	28.1323	0.123029	0.001832	67.1532	162.38	-167.091	0.079290	0.681851	-0.334476	-0.335796	0.010351	67.1532	-0.334592	-15227.3	-6.797730E-7	NaN
174	1.000000	0.723148	7.36674e+06	-47339.1	955.818	-29766.8	0.000000	0.000000	6.723005	0.005472	NaN	0.000000	0.001703	0.001731	28.133	0.043881	0.001918	22.8839	109.368	-167.767	-0.019038	0.721909	-0.294499	-0.295738	0.005472	22.8839	-0.294679	-3920.01	-1.395947E-6	NaN
174	1.000000	0.763195	7.36674e+06	-47339.1	955.818	-29766.8	0.000000	0.000000	6.763053	-0.002093	NaN	0.000000	0.001700	0.001711	28.134	0.139677	0.002008	69.5477	3.316358	-167.408	0.025435	0.761900	-0.254451	-0.255747	-0.002093	69.5477	-0.254429	-962.324	2.174577E-6	NaN
174	1.000000	0.803227	7.36674e+06	-47339.1	955.817	-29766.9	0.000000	0.000000	6.803082	-0.055711	NaN	0.000000	0.001653	0.001718	28.1354	0.033898	0.001903	17.8097	-174.96	-165.662	-0.123710	0.801887	-0.214420	-0.215760	-0.055711	17.8097	-0.212074	-207.187	0.000269	NaN
174	1.000000	0.843229	7.36674e+06	-47339.1	955.818	-29766.9	0.000000	0.000000	6.843088	0.031126	NaN	0.000000	0.001617	0.001712	28.1337	0.036247	0.002009	18.0443	-158.556	-165.444	0.016567	0.841928	-0.174418	-0.175719	0.031126	18.0443	-0.175711	-51.5458	-0.000604	NaN
174	1.000000	0.883254	7.36674e+06	-47339.1	955.818	-29766.9	0.000000	0.000000	6.883112	0.009781	NaN	0.000000	0.001663	0.001732	28.1352	0.105039	0.002072	50.6963	30.7678	-166.453	-0.020755	0.881927	-0.134392	-0.135720	0.009781	50.6963	-0.134537	-9.320661	-0.001049	NaN
174	1.000000	0.923252	7.36674e+06	-47339.1	955.817	-29766.9	0.000000	0.000000	6.923107	-0.052118	NaN	0.000000	0.001677	0.001777	28.1322	0.101441	0.001920	52.8349	-20.7052	-166.796	-0.056061	0.921980	-0.094395	-0.095667	-0.052118	52.8349	-0.093655	-1.314165	0.039658	NaN
174	1.000000	0.963290	7.36674e+06	-47339.1	955.818	-29766.9	0.000000	0.000000	6.963147	-0.021193	NaN	0.000000	0.001672	0.001716	28.1335	0.060693	0.001883	32.238	-39.0296	-167.968	0.002246	0.961934	-0.054357	-0.055713	-0.021193	32.238	-0.053864	-0.119167	0.177843	NaN
174	1.000000	1.003266	7.36674e+06	-47339.1	955.817	-29766.9	0.000000	0.000000	7.003122	-0.016248	NaN	0.000000	0.001673	0.001728	28.1325	0.091483	0.002021	45.256	-32.9859	-164.249	-0.033597	1.002017	-0.014381	-0.015630	-0.016248	45.256	-0.014112	-0.008749	1.857095	NaN
174	2.000000	1.030786	7.36674e+06	-47339.1	955.817	-29766.9	0.000000	0.000000	7.031270	15.2552	NaN	0.000000	0.001657	0.001736	28.1348	13.1828	0.001671	7888.38	7.540725	-178.61	13.6547	1.030551	0.013139	0.012904	15.2552	7888.38	0.011688	0.011119	1372	68348.7
174	2.000000	1.040729	7.36674e+06	-47339.1	955.818	-29766.9	0.000000	0.000000	7.041981	33.9343	NaN	0.000000	0.001623	0.001781	28.1337	23.6705	0.001779	13308.4	4.532132	-179.114	31.8903	1.040487	0.023082	0.022841	33.9343	13308.4	0.021170	0.024414	1389.98	77818.7
174	2.000000	1.050761	7.36674e+06	-47339.1	955.818	-29766.9	0.000000	0.000000	7.053271	64.5073	NaN	0.000000	0.001622	0.001723	28.1347	32.8579	0.001700	19324.8	2.424543	-179.562	64.4739	1.050490	0.033114	0.032843	64.5073	19324.8	0.030611	0.042019	1535.2	86132.3
174	2.000000	1.060735	7.36674e+06	-47339.1	955.819	-29766.9	0.000000	0.000000	7.064737	100.816	NaN	0.000000	0.001654	0.001711	28.1324	43.3948	0.001858	23355.5	8.111336	173.927	101.239	1.060422	0.043088	0.042775	100.816	23355.5	0.039850	0.063642	1584.11	84584.3
174	2.000000	1.070638	7.36674e+06	-47339.1	955.818	-29766.9	0.000000	0.000000	7.076850	154.583	NaN	0.000000	0.001656	0.001747	28.1335	51.9397	0.001748	29719.9	3.846719	176.299	151.703	1.070366	0.052991	0.052719	154.583	29719.9	0.049090	0.089620	1724.87	90702.3
174	2.000000	1.080575	7.36674e+06	-47339.1	955.816	-29766.9	0.000000	0.000000	7.089019	208.836	NaN	0.000000	0.001632	0.001707	28.1323	62.742	0.001883	33321.6	5.647692	173.274	202.333	1.080392	0.062928	0.062745	208.836	33321.6	0.058228	0.119531	1747.13	88056
174	2.000000	1.090626	7.36674e+06	-47339.1	955.818	-29766.9	0.000000	0.000000	7.101691	272.601	NaN	0.000000	0.001604	0.001750	28.1337	73.0262	0.001789	40815.6	6.762367	170.541	270.198	1.090325	0.072979	0.072678	272.601	40815.6	0.067970	0.155929	1748.24	94435.5
174	2.000000	1.100602	7.36674e+06	-47339.1	955.817	-29766.9	0.000000	0.000000	7.114837	349.712	NaN	0.000000	0.001612	0.001683	28.1337	81.6286	0.001744	46809.2	3.770736	172.776	345.39	1.100311	0.082956	0.082665	349.712	46809.2	0.077352	0.195276	1790.87	96778.9
174	2.000000	1.110568	7.36674e+06	-47339.1	955.818	-29766.9	0.000000	0.000000	7.127749	421.378	NaN	0.000000	0.001677	0.001701	28.1347	90.9807	0.001820	49997.3	0.296104	175.984	416.254	1.110442	0.092921	0.092795	421.378	49997.3	0.086600	0.238094	1769.8	93615
174	2.000000	1.120560	7.36674e+06	-47339.1	955.817	-29766.9	0.000000	0.000000	7.141671	516.953	NaN	0.000000	0.001622	0.001693	28.1338	101.62	0.001812	56087.6	2.447645	173.245	510.766	1.120260	0.102913	0.102613	516.953	56087.6	0.096001	0.285659	1809.69	95877.4
174	2.000000	1.125194	7.36674e+06	-47339.1	955.818	-29766.9	0.000000	0.000000	7.148316	565.89	NaN	0.000000	0.001617	0.001702	28.0994	105.471	0.001753	60173.7	2.690290	-7.710188	565.901	1.124810	0.107547	0.107164	565.89	60173.7	0.100494	0.309819	1826.52	98770.2