Folder: unikorn_login/remote_trans/data/nanoindenter/0828-1/data/Data_2025-08-06,11h17m57s (part 4)

File: 2025-07-22_16-23-58_1_5.txt
2025-07-22, 16:23:58, 1
Index	Phase	Displacement	Time	Pos X	Pos Y	Pos Z	Rot A	Rot B	Piezo Z	Force A	Force B	Gripper	Voltage A	Voltage B	Temperature	Amplitude force	Amplitude pos	Stiffness	Phase shift	Phase excitation	Force A raw	Displacement raw	HMax	HMax raw	Real Force	Real Stiffness	Contact Depth	Area	Hardness	Reduced Mod.
[#]	[#]	[um]	[s]	[um]	[um]	[um]	[m°]	[m°]	[um]	[uN]	[uN]	[V]	[V]	[V]	[°C]	[uN]	[um]	[N/m]	[°]	[°]	[uN]	[um]	[um]	[um]	[uN]	[N/m]	[um]	[um^2]	[MPa]	[MPa]
5.000000	1.000000	0.002684	7.36509e+06	-38889.1	955.818	-29796.6	0.000000	0.000000	6.002851	-0.063822	NaN	0.000000	0.001631	0.001729	28.1063	0.089482	0.001008	88.8155	6.845851	-166.989	-0.044283	0.001441	-1.050221	-1.051464	-0.063822	88.8155	-1.049682	-1.057170E+14	6.037015E-16	NaN
5.000000	1.000000	0.042627	7.36509e+06	-38889.1	955.819	-29796.6	0.000000	0.000000	6.042793	-0.084503	NaN	0.000000	0.001596	0.001693	28.1067	0.103539	0.002030	51.0117	101.94	-165.675	-0.025401	0.041264	-1.010278	-1.011641	-0.084503	51.0117	-1.009035	-3.001905E+13	2.814995E-15	NaN
5.000000	1.000000	0.082630	7.36509e+06	-38889.1	955.819	-29796.6	0.000000	0.000000	6.082796	-0.082961	NaN	0.000000	0.001614	0.001699	28.1054	0.074351	0.002058	36.1309	-150.456	-163.589	-0.084349	0.081307	-0.970275	-0.971598	-0.082961	36.1309	-0.968553	-8.553852E+12	9.698626E-15	NaN
5.000000	1.000000	0.122621	7.36509e+06	-38889.1	955.819	-29796.6	0.000000	0.000000	6.122790	-0.031790	NaN	0.000000	0.001706	0.001673	28.1058	0.103945	0.001955	53.1626	166.517	-166.352	0.057574	0.121271	-0.930284	-0.931634	-0.031790	53.1626	-0.929835	-2.570225E+12	1.236869E-14	NaN
5.000000	1.000000	0.162639	7.36509e+06	-38889.1	955.818	-29796.6	0.000000	0.000000	6.162806	-0.056951	NaN	0.000000	0.001655	0.001636	28.1049	0.083795	0.001925	43.5255	178.22	-165.447	-0.092878	0.161304	-0.890266	-0.891601	-0.056951	43.5255	-0.889285	-7.281981E+11	7.820857E-14	NaN
5.000000	1.000000	0.202653	7.36509e+06	-38889.1	955.819	-29796.6	0.000000	0.000000	6.202821	-0.026608	NaN	0.000000	0.001623	0.001660	28.107	0.008297	0.002025	4.097919	-98.5034	-166.934	-0.035468	0.201349	-0.850252	-0.851556	-0.026608	4.097919	-0.845382	-1.854398E+11	1.434856E-13	NaN
5.000000	1.000000	0.242656	7.36509e+06	-38889.1	955.819	-29796.6	0.000000	0.000000	6.242822	-0.095357	NaN	0.000000	0.001684	0.001664	28.1064	0.030179	0.001979	15.246	68.5632	-162.3	0.013314	0.241299	-0.810249	-0.811606	-0.095357	15.246	-0.805558	-5.349277E+10	1.782618E-12	NaN
5.000000	1.000000	0.282698	7.36509e+06	-38889.1	955.818	-29796.6	0.000000	0.000000	6.282866	-0.057854	NaN	0.000000	0.001715	0.001699	28.1079	0.086212	0.001986	43.4026	143.833	-166.972	-0.061329	0.281389	-0.770207	-0.771516	-0.057854	43.4026	-0.769207	-1.716021E+10	3.371405E-12	NaN
5.000000	1.000000	0.322694	7.36509e+06	-38889.1	955.819	-29796.6	0.000000	0.000000	6.322864	0.021393	NaN	0.000000	0.001695	0.001705	28.1078	0.058642	0.001977	29.6674	143.038	-165.423	0.032743	0.321439	-0.730211	-0.731465	0.021393	29.6674	-0.730752	-5.141088E+9	-4.161096E-12	NaN
5.000000	1.000000	0.362718	7.36509e+06	-38889.1	955.818	-29796.6	0.000000	0.000000	6.362884	-0.087375	NaN	0.000000	0.001678	0.001714	28.1084	0.022360	0.002023	11.0512	68.8134	-167.037	-0.057445	0.361429	-0.690187	-0.691476	-0.087375	11.0512	-0.684257	-1.192386E+9	7.327749E-11	NaN
5.000000	1.000000	0.402731	7.36509e+06	-38889.1	955.819	-29796.6	0.000000	0.000000	6.402899	-0.032191	NaN	0.000000	0.001625	0.001668	28.1084	0.069119	0.001984	34.8443	3.851881	-166.059	-0.051638	0.401422	-0.650174	-0.651483	-0.032191	34.8443	-0.649481	-3.984013E+8	8.080133E-11	NaN
5.000000	1.000000	0.442759	7.36509e+06	-38889.1	955.818	-29796.6	0.000000	0.000000	6.442926	-0.066208	NaN	0.000000	0.001606	0.001646	28.1092	0.043053	0.001935	22.2547	3.857056	-164.724	-0.023220	0.441422	-0.610146	-0.611483	-0.066208	22.2547	-0.607915	-1.070096E+8	6.187096E-10	NaN
5.000000	1.000000	0.482782	7.36509e+06	-38889.1	955.819	-29796.6	0.000000	0.000000	6.482947	-0.113322	NaN	0.000000	0.001601	0.001653	28.1071	0.108197	0.001972	54.8639	-16.9306	-164.962	-0.058864	0.481438	-0.570123	-0.571467	-0.113322	54.8639	-0.568574	-3.068520E+7	3.693038E-9	NaN
5.000000	1.000000	0.522781	7.36509e+06	-38889.1	955.818	-29796.6	0.000000	0.000000	6.522950	-0.030932	NaN	0.000000	0.001626	0.001699	28.1087	0.095736	0.002101	45.5627	52.4018	-163.72	0.001966	0.521482	-0.530124	-0.531423	-0.030932	45.5627	-0.529615	-8.85568e+06	3.492922E-9	NaN
5.000000	1.000000	0.562814	7.36509e+06	-38889.1	955.819	-29796.6	0.000000	0.000000	6.562982	-0.039986	NaN	0.000000	0.001698	0.001697	28.1079	0.047647	0.001954	24.3822	177.386	-167.291	-0.080131	0.561479	-0.490091	-0.491426	-0.039986	24.3822	-0.488861	-2.39591e+06	1.668910E-8	NaN
5.000000	1.000000	0.602809	7.3651e+06	-38889.1	955.818	-29796.6	0.000000	0.000000	6.602978	-0.021312	NaN	0.000000	0.001613	0.001693	28.1093	0.108329	0.002110	51.3518	-71.3896	-165.425	-0.048464	0.601516	-0.450096	-0.451388	-0.021312	51.3518	-0.449784	-678117	3.142883E-8	NaN
5.000000	1.000000	0.642833	7.3651e+06	-38889.1	955.819	-29796.6	0.000000	0.000000	6.643003	-0.003805	NaN	0.000000	0.001633	0.001719	28.109	0.094760	0.002035	46.556	0.358426	-161.224	0.009257	0.641527	-0.410071	-0.411377	-0.003805	46.556	-0.410010	-185586	2.050379E-8	NaN
5.000000	1.000000	0.682891	7.3651e+06	-38889.1	955.818	-29796.6	0.000000	0.000000	6.683059	-0.050164	NaN	0.000000	0.001638	0.001669	28.1086	0.082610	0.002116	39.0419	8.600600	-162.992	-0.105834	0.681511	-0.370014	-0.371394	-0.050164	39.0419	-0.369050	-48133.5	1.042189E-6	NaN
5.000000	1.000000	0.722867	7.3651e+06	-38889.1	955.818	-29796.6	0.000000	0.000000	6.723033	-0.082698	NaN	0.000000	0.001602	0.001691	28.109	0.098193	0.001993	49.2739	160.018	-165.044	-0.055249	0.721560	-0.330038	-0.331345	-0.082698	49.2739	-0.328779	-12518.8	6.605911E-6	NaN
5.000000	1.000000	0.762883	7.3651e+06	-38889.1	955.819	-29796.6	0.000000	0.000000	6.763050	-0.055826	NaN	0.000000	0.001561	0.001696	28.1108	0.090028	0.002017	44.6301	-170.483	-167.841	-0.028066	0.761555	-0.290022	-0.291350	-0.055826	44.6301	-0.289084	-3232.75	1.726884E-5	NaN
5.000000	1.000000	0.802873	7.3651e+06	-38889.1	955.819	-29796.6	0.000000	0.000000	6.803040	-0.056375	NaN	0.000000	0.001579	0.001677	28.1109	0.076893	0.002148	35.803	-149.782	-167.034	-0.029457	0.801585	-0.250032	-0.251320	-0.056375	35.803	-0.248851	-789.196	7.143406E-5	NaN
5.000000	1.000000	0.842928	7.3651e+06	-38889.1	955.819	-29796.6	0.000000	0.000000	6.843096	-0.039480	NaN	0.000000	0.001535	0.001726	28.1128	0.128288	0.002019	63.5441	-4.023535	-164.231	-0.092436	0.841618	-0.209976	-0.211287	-0.039480	63.5441	-0.209511	-188.317	0.000210	NaN
5.000000	1.000000	0.882947	7.3651e+06	-38889.1	955.819	-29796.6	0.000000	0.000000	6.883114	-0.069997	NaN	0.000000	0.001571	0.001710	28.1117	0.059524	0.002061	28.8857	-19.4033	-162.675	-0.048974	0.881605	-0.169957	-0.171299	-0.069997	28.8857	-0.168140	-38.1284	0.001836	NaN
5.000000	1.000000	0.922952	7.3651e+06	-38889.1	955.818	-29796.6	0.000000	0.000000	6.923121	-0.022342	NaN	0.000000	0.001586	0.001709	28.1123	0.011014	0.002183	5.046570	64.6855	-164.912	-0.071197	0.921687	-0.129952	-0.131218	-0.022342	5.046570	-0.126632	-6.549199	0.003411	NaN
5.000000	1.000000	0.962986	7.3651e+06	-38889.1	955.819	-29796.6	0.000000	0.000000	6.963153	-0.066971	NaN	0.000000	0.001572	0.001753	28.1097	0.060832	0.002025	30.0343	-13.3143	-161.624	-0.071903	0.961672	-0.089919	-0.091232	-0.066971	30.0343	-0.088247	-0.982778	0.068144	NaN
5.000000	1.000000	1.003003	7.3651e+06	-38889.1	955.817	-29796.6	0.000000	0.000000	7.003171	-0.048852	NaN	0.000000	0.001587	0.001708	28.111	0.018023	0.001951	9.239918	38.6266	-162.613	-0.108535	1.001692	-0.049901	-0.051213	-0.048852	9.239918	-0.045936	-0.068645	0.711661	NaN
5.000000	1.000000	1.043030	7.3651e+06	-38889.1	955.819	-29796.6	0.000000	0.000000	7.043197	-0.050440	NaN	0.000000	0.001611	0.001687	28.1122	0.044146	0.001989	22.1978	90.6357	-163.441	-0.023429	1.041712	-0.009875	-0.011193	-0.050440	22.1978	-0.008171	-0.005332	9.460561	NaN
5.000000	2.000000	1.066502	7.3651e+06	-38889.1	955.819	-29796.6	0.000000	0.000000	7.067217	13.2624	NaN	0.000000	0.001622	0.001711	28.1135	13.4392	0.001702	7894.46	5.593934	-174.183	12.558	1.066222	0.013597	0.013317	13.2624	7894.46	0.012338	0.011897	1114.78	66127.1
5.000000	2.000000	1.076469	7.3651e+06	-38889.1	955.818	-29796.6	0.000000	0.000000	7.077999	33.1184	NaN	0.000000	0.001576	0.001708	28.1129	22.9185	0.001807	12684	4.780802	-176.464	32.7667	1.076178	0.023564	0.023273	33.1184	12684	0.021605	0.025128	1317.98	73105.5
5.000000	2.000000	1.086404	7.3651e+06	-38889.1	955.82	-29796.6	0.000000	0.000000	7.089115	61.8463	NaN	0.000000	0.001580	0.001688	28.113	33.0638	0.001868	17697.2	4.582353	-178.628	60.2733	1.086166	0.033499	0.033261	61.8463	17697.2	0.030878	0.042583	1452.37	78353.8
5.000000	2.000000	1.096459	7.3651e+06	-38889.1	955.821	-29796.6	0.000000	0.000000	7.100361	90.8147	NaN	0.000000	0.001584	0.001690	28.1131	41.9331	0.001837	22824.6	2.178400	-178.346	92.6533	1.096182	0.043554	0.043277	90.8147	22824.6	0.040570	0.065510	1386.26	81474.3
5.000000	2.000000	1.106464	7.3651e+06	-38889.1	955.82	-29796.6	0.000000	0.000000	7.112023	131.152	NaN	0.000000	0.001614	0.001702	28.1141	51.3309	0.001777	28890.3	7.024721	174.78	133.635	1.106052	0.053560	0.053147	131.152	28890.3	0.050155	0.092892	1411.87	86603.5
5.000000	2.000000	1.116369	7.3651e+06	-38889.1	955.821	-29796.6	0.000000	0.000000	7.124212	186.743	NaN	0.000000	0.001551	0.001651	28.112	60.9632	0.001803	33818.8	3.725546	176.7	185.777	1.116068	0.063464	0.063164	186.743	33818.8	0.059323	0.123390	1513.44	87961.2
5.000000	2.000000	1.126403	7.3651e+06	-38889.1	955.821	-29796.6	0.000000	0.000000	7.136397	239.098	NaN	0.000000	0.001550	0.001676	28.1129	70.2262	0.001890	37148.5	6.251916	173.211	240.049	1.126171	0.073498	0.073267	239.098	37148.5	0.068671	0.158722	1506.39	85191.3
5.000000	2.000000	1.136487	7.3651e+06	-38889.1	955.82	-29796.6	0.000000	0.000000	7.149119	303.282	NaN	0.000000	0.001554	0.001671	28.1137	80.129	0.001779	45037	12.5585	167.323	308.107	1.135948	0.083582	0.083043	303.282	45037	0.078531	0.200514	1512.52	91890.5
5.000000	2.000000	1.146329	7.3651e+06	-38889.1	955.821	-29796.6	0.000000	0.000000	7.161462	364.127	NaN	0.000000	0.001578	0.001671	28.1151	88.905	0.001833	48497.2	2.617792	174.521	361.181	1.146101	0.093424	0.093196	364.127	48497.2	0.087793	0.243906	1492.9	89717.7
5.000000	2.000000	1.156249	7.3651e+06	-38889.1	955.821	-29796.6	0.000000	0.000000	7.174430	438.326	NaN	0.000000	0.001522	0.001632	28.1144	96.4042	0.001789	53889.9	2.943938	174.61	432.467	1.156011	0.103344	0.103106	438.326	53889.9	0.097244	0.292251	1499.83	91075.7
5.000000	2.000000	1.159305	7.3651e+06	-38889.1	955.821	-29796.6	0.000000	0.000000	7.178923	473.3	NaN	0.000000	0.001532	0.001652	28.0871	100.558	0.001806	55668.9	9.643315	167.193	470.241	1.159019	0.106400	0.106114	473.3	55668.9	0.100023	0.307245	1540.46	91757.8

File: 2025-07-22_16-23-58_1_6.txt
2025-07-22, 16:23:58, 1
Index	Phase	Displacement	Time	Pos X	Pos Y	Pos Z	Rot A	Rot B	Piezo Z	Force A	Force B	Gripper	Voltage A	Voltage B	Temperature	Amplitude force	Amplitude pos	Stiffness	Phase shift	Phase excitation	Force A raw	Displacement raw	HMax	HMax raw	Real Force	Real Stiffness	Contact Depth	Area	Hardness	Reduced Mod.
[#]	[#]	[um]	[s]	[um]	[um]	[um]	[m°]	[m°]	[um]	[uN]	[uN]	[V]	[V]	[V]	[°C]	[uN]	[um]	[N/m]	[°]	[°]	[uN]	[um]	[um]	[um]	[uN]	[N/m]	[um]	[um^2]	[MPa]	[MPa]
6.000000	1.000000	0.002195	7.3651e+06	-38939.1	955.818	-29796.4	0.000000	0.000000	6.002812	0.009775	NaN	0.000000	0.001553	0.001642	28.0866	0.086379	0.001000	86.3577	-170.74	-165.726	0.001903	0.000936	-1.026675	-1.027934	0.009775	86.3577	-1.026760	-5.198690E+13	-1.880234E-16	NaN
6.000000	1.000000	0.042130	7.3651e+06	-38939.1	955.819	-29796.4	0.000000	0.000000	6.042749	0.062707	NaN	0.000000	0.001581	0.001692	28.083	0.030807	0.001900	16.2164	-70.1944	-164.571	0.119656	0.040853	-0.986740	-0.988017	0.062707	16.2164	-0.989640	-1.645368E+13	-3.811117E-15	NaN
6.000000	1.000000	0.082145	7.3651e+06	-38939.1	955.818	-29796.4	0.000000	0.000000	6.082762	0.029844	NaN	0.000000	0.001575	0.001654	28.0848	0.045958	0.002002	22.9524	130.699	-165.135	-0.079096	0.080883	-0.946725	-0.947987	0.029844	22.9524	-0.947700	-4.477217E+12	-6.665805E-15	NaN
6.000000	1.000000	0.122162	7.3651e+06	-38939.1	955.818	-29796.4	0.000000	0.000000	6.122782	0.085332	NaN	0.000000	0.001566	0.001658	28.0847	0.135839	0.001976	68.7487	19.6443	-164.178	0.054372	0.120862	-0.906708	-0.908008	0.085332	68.7487	-0.907639	-1.289048E+12	-6.619763E-14	NaN
6.000000	1.000000	0.162178	7.3651e+06	-38939.1	955.818	-29796.4	0.000000	0.000000	6.162795	0.040111	NaN	0.000000	0.001534	0.001606	28.0845	0.111382	0.001905	58.4719	148.171	-166.688	0.070086	0.160850	-0.866693	-0.868021	0.040111	58.4719	-0.867207	-3.661479E+11	-1.095475E-13	NaN
6.000000	1.000000	0.202206	7.3651e+06	-38939.1	955.819	-29796.4	0.000000	0.000000	6.202822	0.001254	NaN	0.000000	0.001524	0.001650	28.0825	0.050691	0.002029	24.9814	-106.351	-165.527	0.026882	0.200879	-0.826665	-0.827991	0.001254	24.9814	-0.826702	-1.035337E+11	-1.211266E-14	NaN
6.000000	1.000000	0.242238	7.3651e+06	-38939.1	955.818	-29796.4	0.000000	0.000000	6.242856	0.045211	NaN	0.000000	0.001551	0.001638	28.0833	0.083479	0.001958	42.6396	99.0773	-165.443	0.040855	0.240951	-0.786632	-0.787919	0.045211	42.6396	-0.787427	-3.034870E+10	-1.489721E-12	NaN
6.000000	1.000000	0.282229	7.3651e+06	-38939.1	955.819	-29796.4	0.000000	0.000000	6.282843	-0.040100	NaN	0.000000	0.001558	0.001650	28.0843	0.045976	0.001987	23.1344	-99.5155	-165.303	-0.012311	0.280934	-0.746641	-0.747936	-0.040100	23.1344	-0.745341	-8.124407E+9	4.935734E-12	NaN
6.000000	1.000000	0.322259	7.3651e+06	-38939.1	955.818	-29796.4	0.000000	0.000000	6.322877	0.035097	NaN	0.000000	0.001524	0.001694	28.0862	0.014261	0.002280	6.254721	-12.8002	-162.284	-0.001365	0.321016	-0.706611	-0.707855	0.035097	6.254721	-0.710819	-2.749357E+9	-1.276567E-11	NaN
6.000000	1.000000	0.362304	7.3651e+06	-38939.1	955.818	-29796.4	0.000000	0.000000	6.362919	-0.021255	NaN	0.000000	0.001496	0.001678	28.083	0.051919	0.001902	27.2925	-20.7971	-164.353	-0.024387	0.360979	-0.666566	-0.667891	-0.021255	27.2925	-0.665982	-6.704886E+8	3.170057E-11	NaN
6.000000	1.000000	0.402281	7.3651e+06	-38939.1	955.819	-29796.4	0.000000	0.000000	6.402897	-0.002977	NaN	0.000000	0.001464	0.001659	28.087	0.065087	0.001997	32.5928	64.6306	-164.114	0.007865	0.401037	-0.626589	-0.627833	-0.002977	32.5928	-0.626521	-1.928568E+8	1.543758E-11	NaN
6.000000	1.000000	0.442316	7.3651e+06	-38939.1	955.819	-29796.4	0.000000	0.000000	6.442933	0.039893	NaN	0.000000	0.001483	0.001650	28.0847	0.033692	0.002010	16.7591	6.001779	-165.027	0.029231	0.440993	-0.586555	-0.587878	0.039893	16.7591	-0.588340	-5.751426E+7	-6.936111E-10	NaN
6.000000	1.000000	0.482335	7.3651e+06	-38939.1	955.817	-29796.4	0.000000	0.000000	6.482952	0.017236	NaN	0.000000	0.001527	0.001713	28.084	0.115895	0.002157	53.7373	-27.6655	-166.603	0.014194	0.481000	-0.546535	-0.547870	0.017236	53.7373	-0.546776	-1.532092E+7	-1.125028E-9	NaN
6.000000	1.000000	0.522338	7.3651e+06	-38939.1	955.818	-29796.4	0.000000	0.000000	6.522953	-0.003931	NaN	0.000000	0.001543	0.001775	28.084	0.080933	0.002165	37.386	90.6881	-164.914	-0.052963	0.521036	-0.506532	-0.507834	-0.003931	37.386	-0.506454	-4.21701e+06	9.322745E-10	NaN
6.000000	1.000000	0.562371	7.3651e+06	-38939.1	955.818	-29796.4	0.000000	0.000000	6.562989	0.068617	NaN	0.000000	0.001535	0.001722	28.0869	0.033988	0.002023	16.7971	122.123	-165.048	-0.049956	0.561036	-0.466500	-0.467834	0.068617	16.7971	-0.469563	-1.28612e+06	-5.335162E-8	NaN
6.000000	1.000000	0.602416	7.3651e+06	-38939.1	955.818	-29796.4	0.000000	0.000000	6.603035	0.076994	NaN	0.000000	0.001566	0.001712	28.0858	0.076840	0.002027	37.9135	-168.824	-161.519	0.089299	0.601087	-0.426454	-0.427783	0.076994	37.9135	-0.427977	-333760	-2.306859E-7	NaN
6.000000	1.000000	0.642377	7.3651e+06	-38939.1	955.818	-29796.4	0.000000	0.000000	6.642991	-0.035177	NaN	0.000000	0.001530	0.001714	28.088	0.041404	0.002051	20.1851	39.0929	-163.562	-0.046727	0.641072	-0.386494	-0.387798	-0.035177	20.1851	-0.385187	-82084.5	4.285475E-7	NaN
6.000000	1.000000	0.682410	7.3651e+06	-38939.1	955.818	-29796.4	0.000000	0.000000	6.683025	-0.011736	NaN	0.000000	0.001540	0.001697	28.084	0.057303	0.001925	29.761	-101.179	-165.561	-0.006902	0.681089	-0.346461	-0.347781	-0.011736	29.761	-0.346165	-22454	5.226809E-7	NaN
6.000000	1.000000	0.722422	7.36511e+06	-38939.1	955.818	-29796.4	0.000000	0.000000	6.723039	0.033408	NaN	0.000000	0.001509	0.001703	28.086	0.062946	0.001977	31.8395	165.675	-165.278	0.006300	0.721104	-0.306448	-0.307766	0.033408	31.8395	-0.307235	-6027.07	-5.543004E-6	NaN
6.000000	1.000000	0.762427	7.36511e+06	-38939.1	955.818	-29796.4	0.000000	0.000000	6.763042	-0.018143	NaN	0.000000	0.001540	0.001673	28.0864	0.076846	0.001891	40.6478	79.1691	-164.02	-0.067051	0.761129	-0.266444	-0.267741	-0.018143	40.6478	-0.266109	-1453.13	1.248562E-5	NaN
6.000000	1.000000	0.802472	7.36511e+06	-38939.1	955.818	-29796.4	0.000000	0.000000	6.803087	-0.032162	NaN	0.000000	0.001544	0.001695	28.0846	0.107644	0.001961	54.8819	-114.444	-164.972	0.012627	0.801166	-0.226398	-0.227704	-0.032162	54.8819	-0.225958	-345.579	9.306725E-5	NaN
6.000000	1.000000	0.842483	7.36511e+06	-38939.1	955.819	-29796.4	0.000000	0.000000	6.843100	0.027339	NaN	0.000000	0.001543	0.001729	28.0864	0.152253	0.001934	78.7301	102.495	-163.689	-0.045519	0.841213	-0.186387	-0.187658	0.027339	78.7301	-0.186648	-79.0433	-0.000346	NaN
6.000000	1.000000	0.882519	7.36511e+06	-38939.1	955.819	-29796.4	0.000000	0.000000	6.883136	0.028606	NaN	0.000000	0.001534	0.001692	28.0869	0.034492	0.002023	17.0531	-175.564	-163.68	-0.052848	0.881218	-0.146352	-0.147652	0.028606	17.0531	-0.147610	-16.3782	-0.001747	NaN
6.000000	1.000000	0.922499	7.36511e+06	-38939.1	955.819	-29796.4	0.000000	0.000000	6.923116	0.016210	NaN	0.000000	0.001515	0.001699	28.0859	0.075567	0.001932	39.1049	65.5579	-163.8	-0.021878	0.921198	-0.106371	-0.107672	0.016210	39.1049	-0.106682	-2.554762	-0.006345	NaN
6.000000	1.000000	0.962523	7.36511e+06	-38939.1	955.818	-29796.4	0.000000	0.000000	6.963138	-0.006739	NaN	0.000000	0.001531	0.001707	28.0856	0.084754	0.002053	41.293	-2.398888	-166.909	0.048775	0.961173	-0.066347	-0.067697	-0.006739	41.293	-0.066225	-0.269408	0.025014	NaN
6.000000	1.000000	1.002528	7.36511e+06	-38939.1	955.818	-29796.4	0.000000	0.000000	7.003144	0.003624	NaN	0.000000	0.001576	0.001721	28.0844	0.050658	0.001878	26.9758	-120.69	-165.348	-0.012778	1.001208	-0.026342	-0.027662	0.003624	26.9758	-0.026443	-0.018414	-0.196795	NaN
6.000000	2.000000	1.039232	7.36511e+06	-38939.1	955.819	-29796.4	0.000000	0.000000	7.040225	9.177597	NaN	0.000000	0.001603	0.001697	28.0872	9.849112	0.001745	5644.88	9.016117	-173.49	8.561676	1.038934	0.010362	0.010064	9.177597	5644.88	0.009142	0.008244	1113.26	56801.8
6.000000	2.000000	1.049182	7.36511e+06	-38939.1	955.818	-29796.4	0.000000	0.000000	7.050863	25.9297	NaN	0.000000	0.001597	0.001716	28.0855	21.3901	0.001836	11650.8	7.825930	-179.611	25.5795	1.048857	0.020312	0.019987	25.9297	11650.8	0.018643	0.020454	1267.71	74428.9
6.000000	2.000000	1.059219	7.36511e+06	-38939.1	955.819	-29796.4	0.000000	0.000000	7.062006	52.8474	NaN	0.000000	0.001567	0.001689	28.0868	32.5234	0.001964	16562	6.574475	-179.501	56.0688	1.058944	0.030349	0.030074	52.8474	16562	0.027955	0.036612	1443.43	79081.2
6.000000	2.000000	1.069163	7.36511e+06	-38939.1	955.818	-29796.4	0.000000	0.000000	7.073205	83.3731	NaN	0.000000	0.001592	0.001687	28.0863	41.0219	0.001759	23320	2.539922	179.899	85.8271	1.068902	0.040293	0.040032	83.3731	23320	0.037612	0.058002	1437.42	88467
6.000000	2.000000	1.079053	7.36511e+06	-38939.1	955.818	-29796.4	0.000000	0.000000	7.084926	127.938	NaN	0.000000	0.001590	0.001679	28.0887	50.1651	0.001857	27018	4.046103	177.298	124.482	1.078767	0.050183	0.049897	127.938	27018	0.046632	0.082287	1554.79	86052.2
6.000000	2.000000	1.089071	7.36511e+06	-38939.1	955.818	-29796.4	0.000000	0.000000	7.097028	178.649	NaN	0.000000	0.001603	0.001682	28.0846	59.9478	0.001732	34611.2	6.411410	173.226	176.313	1.088653	0.060201	0.059783	178.649	34611.2	0.056330	0.112978	1581.27	94079.2
6.000000	2.000000	1.099070	7.36511e+06	-38939.1	955.818	-29796.4	0.000000	0.000000	7.109306	234.112	NaN	0.000000	0.001599	0.001698	28.0858	70.8489	0.001837	38562.5	5.342295	173.557	232.69	1.098767	0.070200	0.069896	234.112	38562.5	0.065647	0.146831	1594.44	91945.3
6.000000	2.000000	1.109039	7.36511e+06	-38939.1	955.817	-29796.4	0.000000	0.000000	7.122156	304.223	NaN	0.000000	0.001607	0.001685	28.0856	78.6738	0.001767	44513.8	4.413227	173.687	300.3	1.108679	0.080168	0.079809	304.223	44513.8	0.075043	0.185203	1642.64	94502.6
6.000000	2.000000	1.119039	7.36511e+06	-38939.1	955.818	-29796.4	0.000000	0.000000	7.134712	366.413	NaN	0.000000	0.001591	0.001733	28.0863	89.7563	0.001820	49318.3	8.045206	169.311	366.102	1.118727	0.090169	0.089857	366.413	49318.3	0.084597	0.228483	1603.68	94265.9
6.000000	2.000000	1.129051	7.36511e+06	-38939.1	955.818	-29796.4	0.000000	0.000000	7.148547	459.462	NaN	0.000000	0.001600	0.001701	28.0875	97.9312	0.001852	52867.9	6.845119	170.841	459.425	1.128649	0.100181	0.099779	459.462	52867.9	0.093663	0.273453	1680.22	92368.5
6.000000	2.000000	1.136497	7.36511e+06	-38939.1	955.818	-29796.4	0.000000	0.000000	7.158727	525.985	NaN	0.000000	0.001606	0.001695	28.1269	104.837	0.001734	60466.9	6.494866	-10.3989	519.553	1.136088	0.107627	0.107218	525.985	60466.9	0.101103	0.313166	1679.58	98719.8