Folder: unikorn_login/remote_trans/data/nanoindenter/0828-1/data/Data_2025-08-06,11h17m57s (part 51)

File: 2025-07-22_16-23-58_1_119.txt
2025-07-22, 16:23:58, 1
Index	Phase	Displacement	Time	Pos X	Pos Y	Pos Z	Rot A	Rot B	Piezo Z	Force A	Force B	Gripper	Voltage A	Voltage B	Temperature	Amplitude force	Amplitude pos	Stiffness	Phase shift	Phase excitation	Force A raw	Displacement raw	HMax	HMax raw	Real Force	Real Stiffness	Contact Depth	Area	Hardness	Reduced Mod.
[#]	[#]	[um]	[s]	[um]	[um]	[um]	[m°]	[m°]	[um]	[uN]	[uN]	[V]	[V]	[V]	[°C]	[uN]	[um]	[N/m]	[°]	[°]	[uN]	[um]	[um]	[um]	[uN]	[N/m]	[um]	[um^2]	[MPa]	[MPa]
119	1.000000	0.002754	7.3662e+06	-44589.1	955.818	-29775.8	0.000000	0.000000	6.002760	0.087794	NaN	0.000000	0.001680	0.001684	28.0908	0.146323	0.001010	144.869	-74.5579	-166.017	0.017178	0.001529	-1.090356	-1.091581	0.087794	144.869	-1.090811	-3.773117E+14	-2.326828E-16	NaN
119	1.000000	0.044758	7.3662e+06	-44589.1	955.818	-29775.8	0.000000	0.000000	6.044758	-0.054712	NaN	0.000000	0.001666	0.001657	28.1283	0.123615	0.002000	61.8034	-174.136	13.3185	-0.060623	0.043424	-1.048353	-1.049687	-0.054712	61.8034	-1.047689	-9.939086E+13	5.504694E-16	NaN
119	1.000000	0.086730	7.3662e+06	-44589.1	955.818	-29775.8	0.000000	0.000000	6.086730	-0.042895	NaN	0.000000	0.001681	0.001650	28.1081	0.077795	0.002128	36.5525	114.246	-165.002	0.001215	0.085407	-1.006381	-1.007704	-0.042895	36.5525	-1.005501	-2.690460E+13	1.594320E-15	NaN
119	1.000000	0.128802	7.3662e+06	-44589.1	955.818	-29775.8	0.000000	0.000000	6.128803	-0.013116	NaN	0.000000	0.001598	0.001691	28.0796	0.110303	0.001939	56.8821	-31.8752	13.9057	-0.000931	0.127419	-0.964309	-0.965692	-0.013116	56.8821	-0.964136	-7.458136E+12	1.758649E-15	NaN
119	1.000000	0.170798	7.3662e+06	-44589.1	955.818	-29775.8	0.000000	0.000000	6.170798	-0.057904	NaN	0.000000	0.001615	0.001699	28.0919	0.056269	0.001945	28.9362	167.302	-162.87	-0.012226	0.169543	-0.922313	-0.923568	-0.057904	28.9362	-0.920812	-1.941643E+12	2.982240E-14	NaN
119	1.000000	0.212790	7.3662e+06	-44589.1	955.818	-29775.8	0.000000	0.000000	6.212793	0.012152	NaN	0.000000	0.001605	0.001690	28.1275	0.045732	0.002031	22.5224	-89.6704	17.9381	0.042958	0.211463	-0.880321	-0.881648	0.012152	22.5224	-0.880725	-5.578516E+11	-2.178373E-14	NaN
119	1.000000	0.254859	7.3662e+06	-44589.1	955.818	-29775.8	0.000000	0.000000	6.254862	0.024532	NaN	0.000000	0.001606	0.001686	28.108	0.067460	0.002012	33.535	112.684	-166.417	0.052039	0.253601	-0.838252	-0.839510	0.024532	33.535	-0.838801	-1.510228E+11	-1.624415E-13	NaN
119	1.000000	0.296825	7.3662e+06	-44589.1	955.818	-29775.8	0.000000	0.000000	6.296825	-0.070828	NaN	0.000000	0.001553	0.001662	28.0797	0.082354	0.001984	41.5187	-67.7501	17.7074	-0.102635	0.295524	-0.796285	-0.797587	-0.070828	41.5187	-0.795006	-3.846481E+10	1.841381E-12	NaN
119	1.000000	0.338910	7.3662e+06	-44589.1	955.818	-29775.8	0.000000	0.000000	6.338912	0.013459	NaN	0.000000	0.001577	0.001703	28.089	0.084589	0.002090	40.477	110.361	-165.59	0.053537	0.337534	-0.754201	-0.755577	0.013459	40.477	-0.754451	-1.080928E+10	-1.245161E-12	NaN
119	1.000000	0.380877	7.3662e+06	-44589.1	955.818	-29775.8	0.000000	0.000000	6.380878	-0.028368	NaN	0.000000	0.001611	0.001714	28.1285	0.080156	0.001932	41.4912	6.346588	15.049	0.075776	0.379542	-0.712234	-0.713569	-0.028368	41.4912	-0.711721	-2.828364E+9	1.002980E-11	NaN
119	1.000000	0.422926	7.3662e+06	-44589.1	955.818	-29775.8	0.000000	0.000000	6.422930	0.031021	NaN	0.000000	0.001580	0.001718	28.1095	0.095469	0.002032	46.9807	29.6999	-166.778	0.062401	0.421668	-0.670185	-0.671443	0.031021	46.9807	-0.670680	-7.774890E+8	-3.989874E-11	NaN
119	1.000000	0.464908	7.3662e+06	-44589.1	955.818	-29775.8	0.000000	0.000000	6.464906	-0.095574	NaN	0.000000	0.001593	0.001692	28.0807	0.030375	0.001929	15.7441	136.08	16.0364	-0.098752	0.463572	-0.628203	-0.629539	-0.095574	15.7441	-0.623650	-1.761165E+8	5.426770E-10	NaN
119	1.000000	0.506953	7.3662e+06	-44589.1	955.818	-29775.8	0.000000	0.000000	6.506957	0.038431	NaN	0.000000	0.001581	0.001719	28.0884	0.015829	0.001898	8.338997	107.193	-165.212	0.049510	0.505668	-0.586157	-0.587443	0.038431	8.338997	-0.589614	-5.988824E+7	-6.417053E-10	NaN
119	1.000000	0.548937	7.3662e+06	-44589.1	955.818	-29775.8	0.000000	0.000000	6.548940	0.019951	NaN	0.000000	0.001544	0.001690	28.1272	0.039859	0.002003	19.8981	173.632	15.8096	0.006067	0.547624	-0.544174	-0.545487	0.019951	19.8981	-0.544926	-1.444273E+7	-1.381395E-9	NaN
119	1.000000	0.590984	7.3662e+06	-44589.1	955.817	-29775.8	0.000000	0.000000	6.590986	-0.018562	NaN	0.000000	0.001541	0.001715	28.1099	0.050982	0.001950	26.1495	175.945	-163.329	0.032732	0.589658	-0.502127	-0.503453	-0.018562	26.1495	-0.501594	-3.6079e+06	5.144707E-9	NaN
119	1.000000	0.632976	7.3662e+06	-44589.1	955.818	-29775.8	0.000000	0.000000	6.632977	-0.036185	NaN	0.000000	0.001580	0.001678	28.0807	0.097031	0.001994	48.6555	47.8967	19.5963	0.033456	0.631576	-0.460135	-0.461535	-0.036185	48.6555	-0.459577	-931265	3.885553E-8	NaN
119	1.000000	0.675016	7.3662e+06	-44589.1	955.818	-29775.8	0.000000	0.000000	6.675018	-0.009913	NaN	0.000000	0.001602	0.001720	28.0881	0.202034	0.002043	98.8827	84.7274	-163.347	-0.039596	0.673718	-0.418095	-0.419393	-0.009913	98.8827	-0.418020	-241173	4.110170E-8	NaN
119	1.000000	0.717012	7.3662e+06	-44589.1	955.819	-29775.8	0.000000	0.000000	6.717013	-0.029532	NaN	0.000000	0.001600	0.001735	28.1272	0.097847	0.001987	49.2557	-67.9098	16.5984	-0.054319	0.715668	-0.376099	-0.377443	-0.029532	49.2557	-0.375649	-59896.3	4.930480E-7	NaN
119	1.000000	0.759039	7.3662e+06	-44589.1	955.818	-29775.8	0.000000	0.000000	6.759038	-0.084694	NaN	0.000000	0.001583	0.001713	28.1103	0.126845	0.002012	63.0353	-25.9642	-164.304	-0.148002	0.757745	-0.334072	-0.335366	-0.084694	63.0353	-0.333064	-14464	5.855468E-6	NaN
119	1.000000	0.801091	7.3662e+06	-44589.1	955.818	-29775.8	0.000000	0.000000	6.801092	-0.032935	NaN	0.000000	0.001674	0.001677	28.079	0.084275	0.001923	43.8153	-137.107	13.4379	0.031793	0.799738	-0.292020	-0.293373	-0.032935	43.8153	-0.291456	-3508.34	9.387619E-6	NaN
119	1.000000	0.843058	7.3662e+06	-44589.1	955.818	-29775.8	0.000000	0.000000	6.843064	0.067393	NaN	0.000000	0.001608	0.001749	28.0868	0.020678	0.002024	10.2177	139.598	-164.529	0.047279	0.841735	-0.250053	-0.251376	0.067393	10.2177	-0.254999	-981.986	-6.862933E-5	NaN
119	1.000000	0.885127	7.3662e+06	-44589.1	955.818	-29775.8	0.000000	0.000000	6.885131	0.037328	NaN	0.000000	0.001655	0.001693	28.1265	0.063283	0.002049	30.885	-99.0977	17.0265	0.008144	0.883773	-0.207984	-0.209338	0.037328	30.885	-0.208890	-184.006	-0.000203	NaN
119	1.000000	0.927131	7.3662e+06	-44589.1	955.817	-29775.8	0.000000	0.000000	6.927137	0.098754	NaN	0.000000	0.001707	0.001704	28.1108	0.087787	0.001988	44.1506	-91.754	-165.351	0.058695	0.925769	-0.165980	-0.167342	0.098754	44.1506	-0.167658	-37.3971	-0.002641	NaN
119	1.000000	0.969149	7.36621e+06	-44589.1	955.818	-29775.8	0.000000	0.000000	6.969150	-0.015907	NaN	0.000000	0.001641	0.001685	28.0816	0.006579	0.001974	3.333591	22.7614	16.8503	-0.063769	0.967767	-0.123962	-0.125343	-0.015907	3.333591	-0.120383	-4.918263	0.003234	NaN
119	1.000000	1.011173	7.36621e+06	-44589.1	955.818	-29775.8	0.000000	0.000000	7.011174	-0.024216	NaN	0.000000	0.001687	0.001730	28.087	0.067540	0.002110	32.0049	156.434	-166.838	-0.069281	1.009817	-0.081938	-0.083294	-0.024216	32.0049	-0.081371	-0.669585	0.036166	NaN
119	1.000000	1.053170	7.36621e+06	-44589.1	955.818	-29775.8	0.000000	0.000000	7.053171	-0.025891	NaN	0.000000	0.001600	0.001741	28.126	0.060122	0.002042	29.4427	38.4634	17.1828	-0.030834	1.051794	-0.039941	-0.041317	-0.025891	29.4427	-0.039282	-0.043010	0.601968	NaN
119	1.000000	1.095152	7.36621e+06	-44589.1	955.818	-29775.8	0.000000	0.000000	7.095191	0.875260	NaN	0.000000	0.001531	0.001710	28.1108	1.417225	0.001935	732.442	11.3084	-168	0.183987	1.093905	0.002042	0.000794	0.875260	732.442	0.001145	0.000875	999.932	22618.5
119	2.000000	1.111185	7.36621e+06	-44589.1	955.817	-29775.8	0.000000	0.000000	7.112093	22.0286	NaN	0.000000	0.001579	0.001738	28.0809	17.7477	0.001884	9421.59	5.847369	5.584321	21.3046	1.110794	0.018074	0.017683	22.0286	9421.59	0.016320	0.017086	1289.25	65852.6
119	2.000000	1.121636	7.36621e+06	-44589.1	955.818	-29775.8	0.000000	0.000000	7.123656	49.0965	NaN	0.000000	0.001636	0.001717	28.0861	27.4742	0.001682	16338.2	6.459548	-179.996	49.46	1.121309	0.028525	0.028198	49.0965	16338.2	0.026271	0.033369	1471.34	81716.4
119	2.000000	1.132063	7.36621e+06	-44589.1	955.818	-29775.8	0.000000	0.000000	7.135519	84.0196	NaN	0.000000	0.001651	0.001723	28.1269	37.4701	0.001836	20407.6	3.991925	0.841163	81.0113	1.131727	0.038952	0.038616	84.0196	20407.6	0.035865	0.053778	1562.33	80401
119	2.000000	1.142547	7.36621e+06	-44589.1	955.819	-29775.8	0.000000	0.000000	7.147724	125.892	NaN	0.000000	0.001620	0.001689	28.1131	47.7255	0.001759	27128.7	5.584595	175.853	124.296	1.142258	0.049436	0.049147	125.892	27128.7	0.045956	0.080323	1567.32	87454.3
119	2.000000	1.153054	7.36621e+06	-44589.1	955.819	-29775.8	0.000000	0.000000	7.160634	184.353	NaN	0.000000	0.001573	0.001695	28.0816	56.609	0.001770	31982.4	5.865998	-5.097646	180.785	1.152677	0.059943	0.059566	184.353	31982.4	0.055619	0.110571	1667.29	87874.8
119	2.000000	1.163624	7.36621e+06	-44589.1	955.818	-29775.8	0.000000	0.000000	7.173687	244.75	NaN	0.000000	0.001590	0.001738	28.0845	68.6051	0.001900	36114.7	7.399613	172.463	246.715	1.163235	0.070514	0.070124	244.75	36114.7	0.065431	0.146000	1676.37	86353.8
119	2.000000	1.174123	7.36621e+06	-44589.1	955.819	-29775.8	0.000000	0.000000	7.187041	314.21	NaN	0.000000	0.001634	0.001737	28.1246	77.7014	0.001825	42574.8	4.680638	-6.504373	315.044	1.173819	0.081012	0.080708	314.21	42574.8	0.075477	0.187078	1679.57	89932.1
119	2.000000	1.184492	7.36621e+06	-44589.1	955.819	-29775.8	0.000000	0.000000	7.200767	395.861	NaN	0.000000	0.001590	0.001731	28.1137	86.8893	0.001777	48883.8	1.332744	175.911	392.343	1.184192	0.091381	0.091081	395.861	48883.8	0.085308	0.231873	1707.23	92749.9
119	2.000000	1.194991	7.36621e+06	-44589.1	955.818	-29775.8	0.000000	0.000000	7.215198	491.538	NaN	0.000000	0.001642	0.001729	28.082	96.0703	0.001717	55936.9	6.388143	-10.1217	486.417	1.194698	0.101880	0.101588	491.538	55936.9	0.095289	0.281918	1743.55	96252.1
119	2.000000	1.201046	7.36621e+06	-44589.1	955.82	-29775.8	0.000000	0.000000	7.223363	542.856	NaN	0.000000	0.001609	0.001717	28.0822	103.697	0.001773	58500.8	2.847329	-6.609713	540.984	1.200578	0.107936	0.107467	542.856	58500.8	0.100976	0.312466	1737.33	95616.6

File: 2025-07-22_16-23-58_1_120.txt
2025-07-22, 16:23:58, 1
Index	Phase	Displacement	Time	Pos X	Pos Y	Pos Z	Rot A	Rot B	Piezo Z	Force A	Force B	Gripper	Voltage A	Voltage B	Temperature	Amplitude force	Amplitude pos	Stiffness	Phase shift	Phase excitation	Force A raw	Displacement raw	HMax	HMax raw	Real Force	Real Stiffness	Contact Depth	Area	Hardness	Reduced Mod.
[#]	[#]	[um]	[s]	[um]	[um]	[um]	[m°]	[m°]	[um]	[uN]	[uN]	[V]	[V]	[V]	[°C]	[uN]	[um]	[N/m]	[°]	[°]	[uN]	[um]	[um]	[um]	[uN]	[N/m]	[um]	[um^2]	[MPa]	[MPa]
120	1.000000	0.002895	7.36621e+06	-44639.1	955.818	-29775.6	0.000000	0.000000	6.002818	-0.043313	NaN	0.000000	0.001622	0.001702	28.117	0.052043	0.000911	57.1579	86.437	-162.236	-0.014688	0.001589	-1.148855	-1.150160	-0.043313	57.1579	-1.148286	-2.227634E+15	1.944345E-17	NaN
120	1.000000	0.044798	7.36621e+06	-44639.1	955.819	-29775.6	0.000000	0.000000	6.044722	0.007161	NaN	0.000000	0.001598	0.001721	28.0811	0.087518	0.001946	44.9718	-3.741212	16.1555	-0.003063	0.043477	-1.106952	-1.108273	0.007161	44.9718	-1.107071	-6.237089E+14	-1.148159E-17	NaN
120	1.000000	0.086846	7.36621e+06	-44639.1	955.818	-29775.6	0.000000	0.000000	6.086770	0.004654	NaN	0.000000	0.001633	0.001738	28.085	0.098027	0.001993	49.1735	-76.6931	-164.85	0.020988	0.085493	-1.064904	-1.066256	0.004654	49.1735	-1.064975	-1.696959E+14	-2.742591E-17	NaN
120	1.000000	0.128839	7.36621e+06	-44639.1	955.818	-29775.6	0.000000	0.000000	6.128761	-0.062573	NaN	0.000000	0.001641	0.001685	28.1226	0.036822	0.002100	17.5319	-118.695	12.8585	-0.087898	0.127457	-1.022911	-1.024292	-0.062573	17.5319	-1.020234	-4.247160E+13	1.473286E-15	NaN
120	1.000000	0.170886	7.36621e+06	-44639.1	955.819	-29775.6	0.000000	0.000000	6.170810	-0.015867	NaN	0.000000	0.001637	0.001709	28.1196	0.078553	0.001994	39.3976	58.0368	-164.504	0.099493	0.169606	-0.980863	-0.982144	-0.015867	39.3976	-0.980561	-1.241566E+13	1.277989E-15	NaN
120	1.000000	0.212893	7.36621e+06	-44639.1	955.818	-29775.6	0.000000	0.000000	6.212817	0.000111	NaN	0.000000	0.001624	0.001705	28.0805	0.090290	0.002077	43.4638	63.1095	12.6944	0.007635	0.211529	-0.938856	-0.940220	0.000111	43.4638	-0.938858	-3.401999E+12	-3.264905E-17	NaN
120	1.000000	0.254889	7.36621e+06	-44639.1	955.818	-29775.6	0.000000	0.000000	6.254816	0.051723	NaN	0.000000	0.001555	0.001740	28.0836	0.136113	0.002082	65.3761	-5.456596	-166.772	0.020951	0.253581	-0.896860	-0.898169	0.051723	65.3761	-0.897453	-9.389773E+11	-5.508416E-14	NaN
120	1.000000	0.296908	7.36621e+06	-44639.1	955.818	-29775.6	0.000000	0.000000	6.296832	-0.017005	NaN	0.000000	0.001606	0.001698	28.1211	0.120211	0.002061	58.338	-135.999	16.2243	-0.011962	0.295538	-0.854841	-0.856211	-0.017005	58.338	-0.854622	-2.473578E+11	6.874651E-14	NaN
120	1.000000	0.338933	7.36621e+06	-44639.1	955.818	-29775.6	0.000000	0.000000	6.338855	-0.045853	NaN	0.000000	0.001591	0.001706	28.1204	0.090403	0.002084	43.3761	-133.337	-164.746	-0.026584	0.337644	-0.812817	-0.814106	-0.045853	43.3761	-0.812024	-6.546787E+10	7.003872E-13	NaN
120	1.000000	0.380945	7.36621e+06	-44639.1	955.818	-29775.6	0.000000	0.000000	6.380867	-0.067288	NaN	0.000000	0.001589	0.001718	28.0829	0.067904	0.001807	37.5851	101.489	15.2674	0.001445	0.379648	-0.770804	-0.772101	-0.067288	37.5851	-0.769461	-1.729747E+10	3.890063E-12	NaN
120	1.000000	0.422989	7.36621e+06	-44639.1	955.818	-29775.6	0.000000	0.000000	6.422914	0.009155	NaN	0.000000	0.001628	0.001699	28.087	0.086376	0.002114	40.8571	-141.212	-166.026	0.029244	0.421703	-0.728760	-0.730047	0.009155	40.8571	-0.728928	-4.855123E+9	-1.885688E-12	NaN
120	1.000000	0.465003	7.36621e+06	-44639.1	955.818	-29775.6	0.000000	0.000000	6.464926	-0.027002	NaN	0.000000	0.001618	0.001686	28.1198	0.027866	0.001999	13.9381	-159.412	13.6845	-0.043872	0.463638	-0.686747	-0.688112	-0.027002	13.9381	-0.685294	-1.231936E+9	2.191811E-11	NaN
120	1.000000	0.507021	7.36621e+06	-44639.1	955.818	-29775.6	0.000000	0.000000	6.506946	0.007871	NaN	0.000000	0.001621	0.001680	28.1199	0.072789	0.002142	33.9812	-173.411	-166.785	0.001088	0.505689	-0.644728	-0.646060	0.007871	33.9812	-0.644902	-3.447713E+8	-2.282891E-11	NaN
120	1.000000	0.549041	7.36621e+06	-44639.1	955.819	-29775.6	0.000000	0.000000	6.548962	-0.077545	NaN	0.000000	0.001621	0.001696	28.0831	0.096868	0.002064	46.9264	-163.792	12.9731	-0.088927	0.547660	-0.602709	-0.604090	-0.077545	46.9264	-0.601470	-8.723675E+7	8.889004E-10	NaN
120	1.000000	0.591053	7.36621e+06	-44639.1	955.819	-29775.6	0.000000	0.000000	6.590977	-0.009935	NaN	0.000000	0.001638	0.001690	28.0845	0.086786	0.002101	41.3147	65.8561	-163.357	0.037470	0.589741	-0.560697	-0.562009	-0.009935	41.3147	-0.560516	-2.374213E+7	4.184603E-10	NaN
120	1.000000	0.633071	7.36621e+06	-44639.1	955.817	-29775.6	0.000000	0.000000	6.632993	-0.051262	NaN	0.000000	0.001619	0.001698	28.1206	0.079526	0.002037	39.0491	63.2574	12.4457	-0.086068	0.631683	-0.518678	-0.520067	-0.051262	39.0491	-0.517694	-6.04669e+06	8.477671E-9	NaN
120	1.000000	0.675077	7.36621e+06	-44639.1	955.818	-29775.6	0.000000	0.000000	6.675004	0.051985	NaN	0.000000	0.001647	0.001668	28.1214	0.119079	0.002044	58.2635	36.319	-166.225	0.009913	0.673841	-0.476672	-0.477909	0.051985	58.2635	-0.477341	-1.6531e+06	-3.144706E-8	NaN
120	1.000000	0.717082	7.36621e+06	-44639.1	955.819	-29775.6	0.000000	0.000000	6.717004	-0.062645	NaN	0.000000	0.001644	0.001670	28.0831	0.037795	0.001932	19.5592	49.659	12.2262	0.031238	0.715734	-0.434668	-0.436015	-0.062645	19.5592	-0.432266	-383800	1.632231E-7	NaN
120	1.000000	0.759153	7.36621e+06	-44639.1	955.818	-29775.6	0.000000	0.000000	6.759078	0.020527	NaN	0.000000	0.001682	0.001659	28.0829	0.039138	0.001979	19.7726	150.529	-165.304	0.054134	0.757801	-0.392597	-0.393949	0.020527	19.7726	-0.393376	-107505	-1.909386E-7	NaN
120	1.000000	0.801168	7.36621e+06	-44639.1	955.818	-29775.6	0.000000	0.000000	6.801092	-0.002732	NaN	0.000000	0.001578	0.001696	28.1187	0.097228	0.001968	49.4045	171.973	15.9844	-0.085250	0.799814	-0.350582	-0.351936	-0.002732	49.4045	-0.350540	-25992	1.050913E-7	NaN
120	1.000000	0.843167	7.36621e+06	-44639.1	955.818	-29775.6	0.000000	0.000000	6.843092	0.009154	NaN	0.000000	0.001575	0.001716	28.1194	0.073946	0.001975	37.4459	-152.593	-168.194	-0.018299	0.841894	-0.308582	-0.309856	0.009154	37.4459	-0.308766	-6350.15	-1.441595E-6	NaN
120	1.000000	0.885164	7.36621e+06	-44639.1	955.818	-29775.6	0.000000	0.000000	6.885086	-0.045318	NaN	0.000000	0.001597	0.001672	28.0843	0.040996	0.002075	19.7534	82.1552	14.9701	-0.033013	0.883780	-0.266586	-0.267969	-0.045318	19.7534	-0.264865	-1391.02	3.257918E-5	NaN
120	1.000000	0.927201	7.36621e+06	-44639.1	955.819	-29775.6	0.000000	0.000000	6.927124	-0.030387	NaN	0.000000	0.001627	0.001678	28.0816	0.047043	0.002055	22.8904	-22.1119	-166.181	0.018413	0.925863	-0.224549	-0.225886	-0.030387	22.8904	-0.223553	-316.468	9.601805E-5	NaN
120	1.000000	0.969231	7.36621e+06	-44639.1	955.817	-29775.6	0.000000	0.000000	6.969154	-0.040224	NaN	0.000000	0.001679	0.001701	28.1197	0.137819	0.001945	70.8491	-69.3643	14.3481	-0.090659	0.967829	-0.182519	-0.183920	-0.040224	70.8491	-0.182093	-66.2222	0.000607	NaN
120	1.000000	1.011222	7.36622e+06	-44639.1	955.819	-29775.6	0.000000	0.000000	7.011147	0.013215	NaN	0.000000	0.001603	0.001703	28.1202	0.016636	0.002068	8.045570	-40.7648	-166.677	-0.076988	1.009866	-0.140528	-0.141883	0.013215	8.045570	-0.141760	-12.7624	-0.001035	NaN
120	1.000000	1.053250	7.36622e+06	-44639.1	955.818	-29775.6	0.000000	0.000000	7.053173	-0.032625	NaN	0.000000	0.001651	0.001772	28.0835	0.017919	0.002043	8.770274	4.307825	11.8608	0.073358	1.051825	-0.098500	-0.099924	-0.032625	8.770274	-0.095710	-1.464062	0.022284	NaN
120	1.000000	1.095274	7.36622e+06	-44639.1	955.818	-29775.6	0.000000	0.000000	7.095202	0.079273	NaN	0.000000	0.001601	0.001775	28.0813	0.048651	0.001964	24.7653	161.63	-167.259	0.025056	1.093953	-0.056475	-0.057797	0.079273	24.7653	-0.058876	-0.167164	-0.474219	NaN
120	1.000000	1.137265	7.36622e+06	-44639.1	955.818	-29775.6	0.000000	0.000000	7.137189	-0.022292	NaN	0.000000	0.001626	0.001800	28.1185	0.080965	0.001936	41.8291	-0.746586	12.5912	-0.009181	1.135959	-0.014484	-0.015791	-0.022292	41.8291	-0.014084	-0.008733	2.552663	NaN
120	2.000000	1.164793	7.36622e+06	-44639.1	955.819	-29775.6	0.000000	0.000000	7.165402	16.659	NaN	0.000000	0.001602	0.001784	28.1226	14.2912	0.001850	7724.4	9.055676	-177.644	16.6994	1.164502	0.013043	0.012752	16.659	7724.4	0.011426	0.010809	1541.17	67879.6
120	2.000000	1.175250	7.36622e+06	-44639.1	955.819	-29775.6	0.000000	0.000000	7.176688	36.8227	NaN	0.000000	0.001615	0.001726	28.0849	24.1093	0.001872	12876.1	7.094201	0.692878	36.7408	1.174948	0.023500	0.023198	36.8227	12876.1	0.021355	0.024717	1489.79	74827.6
120	2.000000	1.185700	7.36622e+06	-44639.1	955.818	-29775.6	0.000000	0.000000	7.188361	66.5822	NaN	0.000000	0.001607	0.001711	28.0818	32.4137	0.001867	17358.5	3.427668	-178.793	64.5304	1.185355	0.033950	0.033606	66.5822	17358.5	0.031073	0.042998	1548.5	76482.8
120	2.000000	1.196262	7.36622e+06	-44639.1	955.817	-29775.6	0.000000	0.000000	7.200478	104.406	NaN	0.000000	0.001622	0.001736	28.117	43.622	0.001786	24425	7.390805	-6.180363	105.144	1.195952	0.044512	0.044203	104.406	24425	0.041306	0.067447	1547.96	85926.1
120	2.000000	1.206670	7.36622e+06	-44639.1	955.818	-29775.6	0.000000	0.000000	7.213031	156.597	NaN	0.000000	0.001630	0.001716	28.1218	53.5059	0.001807	29604.4	3.017323	177.302	153.613	1.206373	0.054920	0.054624	156.597	29604.4	0.050953	0.095382	1641.79	87578.3
120	2.000000	1.217157	7.36622e+06	-44639.1	955.818	-29775.6	0.000000	0.000000	7.226137	220.307	NaN	0.000000	0.001686	0.001737	28.0857	64.3816	0.001707	37706.8	4.665796	-6.002805	219.223	1.216856	0.065407	0.065106	220.307	37706.8	0.061025	0.129510	1701.08	95728.4
120	2.000000	1.227595	7.36622e+06	-44639.1	955.819	-29775.6	0.000000	0.000000	7.239191	283.949	NaN	0.000000	0.001680	0.001751	28.0825	74.5767	0.001784	41791.4	5.732685	172.024	281.86	1.227327	0.075846	0.075577	283.949	41791.4	0.070750	0.167152	1698.75	93391
120	2.000000	1.238101	7.36622e+06	-44639.1	955.82	-29775.6	0.000000	0.000000	7.252984	363.905	NaN	0.000000	0.001659	0.001779	28.1171	84.1046	0.001849	45493.8	3.507803	-6.997142	359.119	1.237725	0.086352	0.085975	363.905	45493.8	0.080353	0.208732	1743.41	90976.9
120	2.000000	1.248592	7.36622e+06	-44639.1	955.819	-29775.6	0.000000	0.000000	7.267096	452.001	NaN	0.000000	0.001614	0.001767	28.1234	94.5967	0.001706	55443.3	6.739555	169.071	448.456	1.248271	0.096842	0.096521	452.001	55443.3	0.090728	0.258481	1748.68	99634.2
120	2.000000	1.258505	7.36622e+06	-44639.1	955.82	-29775.6	0.000000	0.000000	7.280949	547.84	NaN	0.000000	0.001625	0.001766	28.1241	104.531	0.001801	58027	4.184069	171.26	541.336	1.258180	0.106756	0.106431	547.84	58027	0.099675	0.305347	1794.16	95941.6