Folder: unikorn_login/remote_trans/data/nanoindenter/0828-1/data/Data_2025-08-06,11h17m57s (part 75)

File: 2025-07-22_16-23-58_1_167.txt
2025-07-22, 16:23:58, 1
Index	Phase	Displacement	Time	Pos X	Pos Y	Pos Z	Rot A	Rot B	Piezo Z	Force A	Force B	Gripper	Voltage A	Voltage B	Temperature	Amplitude force	Amplitude pos	Stiffness	Phase shift	Phase excitation	Force A raw	Displacement raw	HMax	HMax raw	Real Force	Real Stiffness	Contact Depth	Area	Hardness	Reduced Mod.
[#]	[#]	[um]	[s]	[um]	[um]	[um]	[m°]	[m°]	[um]	[uN]	[uN]	[V]	[V]	[V]	[°C]	[uN]	[um]	[N/m]	[°]	[°]	[uN]	[um]	[um]	[um]	[uN]	[N/m]	[um]	[um^2]	[MPa]	[MPa]
167	1.000000	0.002565	7.36667e+06	-46989.1	955.817	-29767.9	0.000000	0.000000	6.002803	0.026169	NaN	0.000000	0.001640	0.001784	28.0908	0.040216	0.000941	42.7589	49.5393	-172.194	-0.067517	0.001301	-1.079501	-1.080765	0.026169	42.7589	-1.079960	-2.697616E+14	-9.700948E-17	NaN
167	1.000000	0.042514	7.36667e+06	-46989.1	955.818	-29767.9	0.000000	0.000000	6.042752	0.027024	NaN	0.000000	0.001599	0.001785	28.0909	0.027483	0.001841	14.9254	61.1203	-168.428	0.057627	0.041233	-1.039552	-1.040833	0.027024	14.9254	-1.040910	-8.057617E+13	-3.353860E-16	NaN
167	1.000000	0.082523	7.36667e+06	-46989.1	955.818	-29767.9	0.000000	0.000000	6.082762	0.057459	NaN	0.000000	0.001667	0.001760	28.089	0.029702	0.001933	15.3682	-151.403	-164.452	0.061887	0.081182	-0.999543	-1.000884	0.057459	15.3682	-1.002347	-2.439870E+13	-2.354989E-15	NaN
167	1.000000	0.122533	7.36667e+06	-46989.1	955.817	-29767.9	0.000000	0.000000	6.122770	0.009579	NaN	0.000000	0.001696	0.001788	28.0895	0.013515	0.001933	6.993356	-106.778	-164.945	-0.047042	0.121215	-0.959533	-0.960851	0.009579	6.993356	-0.960560	-6.674566E+12	-1.435201E-15	NaN
167	1.000000	0.162566	7.36667e+06	-46989.1	955.819	-29767.9	0.000000	0.000000	6.162804	0.022089	NaN	0.000000	0.001598	0.001772	28.0896	0.026538	0.001993	13.3152	115.658	-166.158	-0.089919	0.161274	-0.919500	-0.920792	0.022089	13.3152	-0.920744	-1.937527E+12	-1.140049E-14	NaN
167	1.000000	0.202575	7.36667e+06	-46989.1	955.817	-29767.9	0.000000	0.000000	6.202810	-0.029158	NaN	0.000000	0.001634	0.001787	28.0883	0.133352	0.001980	67.3666	-172.859	-165.618	-0.017185	0.201281	-0.879491	-0.880785	-0.029158	67.3666	-0.879167	-5.314195E+11	5.486781E-14	NaN
167	1.000000	0.242597	7.36667e+06	-46989.1	955.817	-29767.9	0.000000	0.000000	6.242835	0.019174	NaN	0.000000	0.001613	0.001821	28.0905	0.082234	0.002022	40.663	-96.1541	-166.295	-0.012906	0.241209	-0.839469	-0.840857	0.019174	40.663	-0.839822	-1.559136E+11	-1.229772E-13	NaN
167	1.000000	0.282613	7.36667e+06	-46989.1	955.818	-29767.9	0.000000	0.000000	6.282849	-0.007292	NaN	0.000000	0.001665	0.001750	28.0907	0.084469	0.001726	48.9477	-112.492	-164.173	0.015598	0.281364	-0.799453	-0.800702	-0.007292	48.9477	-0.799342	-4.404792E+10	1.655522E-13	NaN
167	1.000000	0.322617	7.36667e+06	-46989.1	955.817	-29767.9	0.000000	0.000000	6.322852	-0.026304	NaN	0.000000	0.001663	0.001774	28.0894	0.037355	0.002019	18.4989	-65.4209	-167.656	0.036555	0.321325	-0.759449	-0.760741	-0.026304	18.4989	-0.758383	-1.222642E+10	2.151414E-12	NaN
167	1.000000	0.362653	7.36667e+06	-46989.1	955.819	-29767.9	0.000000	0.000000	6.362889	-0.029844	NaN	0.000000	0.001628	0.001780	28.0882	0.073992	0.001894	39.0659	-46.2191	-164.315	-0.071436	0.361391	-0.719413	-0.720675	-0.029844	39.0659	-0.718840	-3.537101E+9	8.437361E-12	NaN
167	1.000000	0.402634	7.36667e+06	-46989.1	955.818	-29767.9	0.000000	0.000000	6.402871	0.009400	NaN	0.000000	0.001602	0.001735	28.0884	0.024209	0.001905	12.7089	-85.1173	-166.923	-0.024975	0.401345	-0.679432	-0.680721	0.009400	12.7089	-0.679987	-1.042392E+9	-9.018043E-12	NaN
167	1.000000	0.442702	7.36667e+06	-46989.1	955.818	-29767.9	0.000000	0.000000	6.442935	-0.086262	NaN	0.000000	0.001594	0.001760	28.0881	0.072411	0.001976	36.6379	-34.3728	-166.979	-0.114915	0.441361	-0.639364	-0.640705	-0.086262	36.6379	-0.637598	-2.737360E+8	3.151281E-10	NaN
167	1.000000	0.482695	7.36667e+06	-46989.1	955.818	-29767.9	0.000000	0.000000	6.482929	-0.052024	NaN	0.000000	0.001594	0.001748	28.0873	0.046151	0.002038	22.6481	125.187	-165.468	-0.000677	0.481398	-0.599371	-0.600668	-0.052024	22.6481	-0.597648	-7.728010E+7	6.731839E-10	NaN
167	1.000000	0.522739	7.36667e+06	-46989.1	955.818	-29767.9	0.000000	0.000000	6.522974	-0.037807	NaN	0.000000	0.001569	0.001810	28.0892	0.112479	0.002026	55.5124	-153.903	-167.488	0.005825	0.521381	-0.559327	-0.560685	-0.037807	55.5124	-0.558816	-2.249072E+7	1.681021E-9	NaN
167	1.000000	0.562706	7.36667e+06	-46989.1	955.818	-29767.9	0.000000	0.000000	6.562944	0.030281	NaN	0.000000	0.001611	0.001768	28.0881	0.109621	0.001894	57.8914	30.182	-170.515	0.048198	0.561404	-0.519360	-0.520662	0.030281	57.8914	-0.519752	-6.45872e+06	-4.688417E-9	NaN
167	1.000000	0.602755	7.36667e+06	-46989.1	955.817	-29767.9	0.000000	0.000000	6.602990	-0.020200	NaN	0.000000	0.001686	0.001745	28.0887	0.049342	0.002053	24.0337	123.587	-166.926	0.016643	0.601416	-0.479312	-0.480650	-0.020200	24.0337	-0.478681	-1.72609e+06	1.170279E-8	NaN
167	1.000000	0.642775	7.36667e+06	-46989.1	955.818	-29767.9	0.000000	0.000000	6.643007	-0.109469	NaN	0.000000	0.001659	0.001754	28.0864	0.045447	0.001972	23.0426	88.8425	-166.263	-0.065965	0.641470	-0.439291	-0.440596	-0.109469	23.0426	-0.435728	-429572	2.548332E-7	NaN
167	1.000000	0.682783	7.36667e+06	-46989.1	955.818	-29767.9	0.000000	0.000000	6.683017	-0.055575	NaN	0.000000	0.001604	0.001716	28.0876	0.074080	0.001989	37.2393	-178.104	-168.67	-0.074024	0.681462	-0.399283	-0.400604	-0.055575	37.2393	-0.398164	-125835	4.416523E-7	NaN
167	1.000000	0.722811	7.36667e+06	-46989.1	955.818	-29767.9	0.000000	0.000000	6.723048	0.015702	NaN	0.000000	0.001545	0.001748	28.0861	0.010031	0.002042	4.911273	150.075	-168.967	-0.058009	0.721539	-0.359255	-0.360527	0.015702	4.911273	-0.361653	-37647.3	-4.170704E-7	NaN
167	1.000000	0.762779	7.36667e+06	-46989.1	955.818	-29767.9	0.000000	0.000000	6.763016	0.013274	NaN	0.000000	0.001598	0.001764	28.0873	0.063781	0.001995	31.9643	-130.028	-161.976	0.015133	0.761519	-0.319287	-0.320547	0.013274	31.9643	-0.319599	-9177.65	-1.446373E-6	NaN
167	1.000000	0.802828	7.36667e+06	-46989.1	955.818	-29767.9	0.000000	0.000000	6.803063	-0.048647	NaN	0.000000	0.001598	0.001728	28.0875	0.116762	0.001925	60.6431	-5.030486	-168.776	-0.025089	0.801470	-0.279238	-0.280596	-0.048647	60.6431	-0.278636	-2251.04	2.161079E-5	NaN
167	1.000000	0.842846	7.36667e+06	-46989.1	955.817	-29767.9	0.000000	0.000000	6.843082	-0.030947	NaN	0.000000	0.001550	0.001766	28.0888	0.027533	0.002004	13.7411	-37.9738	-168.342	0.023408	0.841577	-0.239220	-0.240489	-0.030947	13.7411	-0.237531	-525.933	5.884298E-5	NaN
167	1.000000	0.882878	7.36668e+06	-46989.1	955.819	-29767.9	0.000000	0.000000	6.883111	-0.069284	NaN	0.000000	0.001577	0.001732	28.0874	0.039241	0.002096	18.7184	-109.734	-165.915	-0.056149	0.881570	-0.199188	-0.200496	-0.069284	18.7184	-0.196412	-114.967	0.000603	NaN
167	1.000000	0.922858	7.36668e+06	-46989.1	955.818	-29767.9	0.000000	0.000000	6.923095	-0.006798	NaN	0.000000	0.001600	0.001736	28.0878	0.076098	0.001890	40.2545	-79.176	-165.629	-0.011030	0.921570	-0.159208	-0.160496	-0.006798	40.2545	-0.159081	-26.402	0.000257	NaN
167	1.000000	0.962901	7.36668e+06	-46989.1	955.818	-29767.9	0.000000	0.000000	6.963135	-0.059245	NaN	0.000000	0.001559	0.001719	28.0862	0.081757	0.001954	41.8354	6.465274	-165.656	-0.015335	0.961607	-0.119165	-0.120459	-0.059245	41.8354	-0.118103	-4.422256	0.013397	NaN
[...]
167	1.000000	1.042951	7.36668e+06	-46989.1	955.817	-29767.9	0.000000	0.000000	7.043188	0.021412	NaN	0.000000	0.001557	0.001732	28.0861	0.078655	0.002111	37.2528	-102.172	-168.626	0.031117	1.041621	-0.039115	-0.040445	0.021412	37.2528	-0.039546	-0.043811	-0.488734	NaN
167	1.000000	1.082906	7.36668e+06	-46989.1	955.818	-29767.9	0.000000	0.000000	7.083159	0.403957	NaN	0.000000	0.001538	0.001753	28.0886	0.597640	0.001916	311.867	2.936419	-169.532	0.054138	1.081615	0.000840	-0.000451	0.403957	311.867	-0.000131	-9.796872E-5	-4123.33	NaN
167	2.000000	1.098502	7.36668e+06	-46989.1	955.817	-29767.9	0.000000	0.000000	7.099630	21.6784	NaN	0.000000	0.001564	0.001741	28.0872	15.7234	0.001717	9157.56	-1.585249	-170.779	20.5724	1.098250	0.016436	0.016184	21.6784	9157.56	0.014661	0.014836	1461.21	68690.3
167	2.000000	1.108498	7.36668e+06	-46989.1	955.816	-29767.9	0.000000	0.000000	7.110515	43.2989	NaN	0.000000	0.001573	0.001787	28.0872	26.3237	0.001868	14094.7	8.095591	177.576	43.2538	1.108209	0.026432	0.026143	43.2989	14094.7	0.024128	0.029448	1470.35	75041.5
167	2.000000	1.118460	7.36668e+06	-46989.1	955.818	-29767.9	0.000000	0.000000	7.121734	73.8992	NaN	0.000000	0.001556	0.001735	28.0847	34.3544	0.001877	18303.1	3.528547	179.849	71.5566	1.118130	0.036394	0.036064	73.8992	18303.1	0.033366	0.048009	1539.29	76320
167	2.000000	1.128497	7.36668e+06	-46989.1	955.817	-29767.9	0.000000	0.000000	7.133105	106.345	NaN	0.000000	0.001573	0.001766	28.0866	43.912	0.001880	23355.9	5.228368	176.176	108.133	1.128197	0.046431	0.046131	106.345	23355.9	0.043016	0.072054	1475.92	79495.4
167	2.000000	1.138450	7.36668e+06	-46989.1	955.819	-29767.9	0.000000	0.000000	7.145026	154.199	NaN	0.000000	0.001528	0.001754	28.085	53.5823	0.001900	28193.9	6.264167	173.822	154.969	1.138211	0.056384	0.056145	154.199	28193.9	0.052282	0.099597	1548.23	81621.5
167	2.000000	1.148415	7.36668e+06	-46989.1	955.817	-29767.9	0.000000	0.000000	7.156995	202.931	NaN	0.000000	0.001535	0.001762	28.0864	61.2469	0.001725	35499.2	0.950565	176.816	202.116	1.148236	0.066349	0.066170	202.931	35499.2	0.062062	0.133306	1522.3	88831.6
167	2.000000	1.158429	7.36668e+06	-46989.1	955.818	-29767.9	0.000000	0.000000	7.170148	279.289	NaN	0.000000	0.001561	0.001742	28.086	72.5869	0.001803	40266.6	6.058326	171.006	279.653	1.158044	0.076363	0.075978	279.289	40266.6	0.071161	0.168844	1654.13	89531.4
167	2.000000	1.168420	7.36668e+06	-46989.1	955.818	-29767.9	0.000000	0.000000	7.182688	341.289	NaN	0.000000	0.001558	0.001712	28.0857	79.3273	0.001873	42344.9	-1.360831	177.872	339.593	1.168189	0.086354	0.086123	341.289	42344.9	0.080309	0.208535	1636.6	84719.7
167	2.000000	1.178307	7.36668e+06	-46989.1	955.817	-29767.9	0.000000	0.000000	7.195636	415.757	NaN	0.000000	0.001605	0.001724	28.0854	89.2849	0.001848	48301.5	2.199196	173.714	410.217	1.178140	0.096241	0.096074	415.757	48301.5	0.089785	0.253756	1638.41	87604.3
167	2.000000	1.188295	7.36668e+06	-46989.1	955.817	-29767.9	0.000000	0.000000	7.208810	493.243	NaN	0.000000	0.001577	0.001730	28.0864	97.1839	0.001887	51510.3	4.320086	170.748	489.903	1.188020	0.106229	0.105954	493.243	51510.3	0.099048	0.301942	1633.57	85645.6
167	2.000000	1.188746	7.36668e+06	-46989.1	955.818	-29767.9	0.000000	0.000000	7.209715	504.282	NaN	0.000000	0.001561	0.001754	28.1247	96.8153	0.001800	53783.1	5.417462	-9.783057	494.876	1.188382	0.106680	0.106316	504.282	53783.1	0.099648	0.305201	1652.29	88945.9

File: 2025-07-22_16-23-58_1_168.txt
2025-07-22, 16:23:58, 1
Index	Phase	Displacement	Time	Pos X	Pos Y	Pos Z	Rot A	Rot B	Piezo Z	Force A	Force B	Gripper	Voltage A	Voltage B	Temperature	Amplitude force	Amplitude pos	Stiffness	Phase shift	Phase excitation	Force A raw	Displacement raw	HMax	HMax raw	Real Force	Real Stiffness	Contact Depth	Area	Hardness	Reduced Mod.
[#]	[#]	[um]	[s]	[um]	[um]	[um]	[m°]	[m°]	[um]	[uN]	[uN]	[V]	[V]	[V]	[°C]	[uN]	[um]	[N/m]	[°]	[°]	[uN]	[um]	[um]	[um]	[uN]	[N/m]	[um]	[um^2]	[MPa]	[MPa]
168	1.000000	0.002442	7.36668e+06	-47039.1	955.819	-29767.7	0.000000	0.000000	6.002742	-0.064061	NaN	0.000000	0.001620	0.001670	28.1208	0.059636	0.000953	62.6048	168.019	-179.8	-0.036422	0.001221	-1.096851	-1.098072	-0.064061	62.6048	-1.096084	-4.441134E+14	1.442448E-16	NaN
168	1.000000	0.044386	7.36668e+06	-47039.1	955.818	-29767.7	0.000000	0.000000	6.044688	-0.044064	NaN	0.000000	0.001637	0.001674	28.1231	0.051323	0.001992	25.7705	132.998	-6.322286	-0.099053	0.042976	-1.054906	-1.056317	-0.044064	25.7705	-1.053624	-1.194340E+14	3.689425E-16	NaN
168	1.000000	0.086360	7.36668e+06	-47039.1	955.818	-29767.7	0.000000	0.000000	6.086660	-0.085217	NaN	0.000000	0.001629	0.001675	28.0835	0.128079	0.002021	63.3877	-84.1645	175.047	0.002602	0.085084	-1.012932	-1.014209	-0.085217	63.3877	-1.011924	-3.283062E+13	2.595660E-15	NaN
168	1.000000	0.128402	7.36668e+06	-47039.1	955.818	-29767.7	0.000000	0.000000	6.128702	-0.081750	NaN	0.000000	0.001604	0.001705	28.0821	0.055230	0.002073	26.6419	-145.139	-3.719933	0.024085	0.127037	-0.970891	-0.972256	-0.081750	26.6419	-0.968589	-8.563525E+12	9.546314E-15	NaN
168	1.000000	0.170421	7.36668e+06	-47039.1	955.819	-29767.7	0.000000	0.000000	6.170721	-0.085413	NaN	0.000000	0.001653	0.001677	28.1203	0.093912	0.001978	47.4788	113.937	178.187	-0.137892	0.169078	-0.928872	-0.930215	-0.085413	47.4788	-0.927523	-2.391994E+12	3.570797E-14	NaN
168	1.000000	0.212440	7.36668e+06	-47039.1	955.818	-29767.7	0.000000	0.000000	6.212740	-0.089954	NaN	0.000000	0.001634	0.001695	28.123	0.043208	0.001895	22.8029	164.04	-6.359179	-0.110236	0.211118	-0.886852	-0.888174	-0.089954	22.8029	-0.883894	-6.156875E+11	1.461041E-13	NaN
168	1.000000	0.254474	7.36668e+06	-47039.1	955.819	-29767.7	0.000000	0.000000	6.254774	-0.097211	NaN	0.000000	0.001622	0.001706	28.0847	0.055650	0.001868	29.7915	68.1196	174.687	-0.107447	0.253189	-0.844819	-0.846104	-0.097211	29.7915	-0.842371	-1.688177E+11	5.758371E-13	NaN
168	1.000000	0.296505	7.36668e+06	-47039.1	955.819	-29767.7	0.000000	0.000000	6.296806	-0.074119	NaN	0.000000	0.001611	0.001690	28.084	0.046320	0.001982	23.372	-171.5	-7.106036	-0.094395	0.295124	-0.802787	-0.804169	-0.074119	23.372	-0.800409	-4.554225E+10	1.627488E-12	NaN
168	1.000000	0.338491	7.36668e+06	-47039.1	955.818	-29767.7	0.000000	0.000000	6.338792	-0.063140	NaN	0.000000	0.001698	0.001699	28.1194	0.049819	0.001974	25.2386	-24.1827	176.122	0.020402	0.337167	-0.760801	-0.762126	-0.063140	25.2386	-0.758925	-1.243593E+10	5.077208E-12	NaN
168	1.000000	0.380538	7.36668e+06	-47039.1	955.819	-29767.7	0.000000	0.000000	6.380839	-0.068408	NaN	0.000000	0.001629	0.001707	28.1224	0.098739	0.002005	49.2377	26.7097	-5.486289	-0.100648	0.379150	-0.718755	-0.720142	-0.068408	49.2377	-0.717713	-3.414119E+9	2.003678E-11	NaN
168	1.000000	0.422520	7.36668e+06	-47039.1	955.818	-29767.7	0.000000	0.000000	6.422823	-0.014705	NaN	0.000000	0.001604	0.001705	28.0842	0.024342	0.002039	11.9378	-15.3954	172.636	-0.044194	0.421210	-0.676773	-0.678082	-0.014705	11.9378	-0.675849	-9.150125E+8	1.607040E-11	NaN
168	1.000000	0.464563	7.36668e+06	-47039.1	955.819	-29767.7	0.000000	0.000000	6.464865	-0.057696	NaN	0.000000	0.001604	0.001732	28.084	0.035887	0.001981	18.1122	27.2328	-6.605953	-0.002442	0.463190	-0.634729	-0.636103	-0.057696	18.1122	-0.632340	-2.318228E+8	2.488818E-10	NaN
168	1.000000	0.506570	7.36668e+06	-47039.1	955.819	-29767.7	0.000000	0.000000	6.506872	-0.027274	NaN	0.000000	0.001620	0.001688	28.1187	0.073231	0.002093	34.9857	-131.384	175.915	-0.112958	0.505263	-0.592723	-0.594030	-0.027274	34.9857	-0.592138	-6.488433E+7	4.203500E-10	NaN
168	1.000000	0.548591	7.36668e+06	-47039.1	955.817	-29767.7	0.000000	0.000000	6.548891	-0.076848	NaN	0.000000	0.001641	0.001685	28.1235	0.094826	0.002050	46.2518	-129.914	-0.688463	-0.124257	0.547192	-0.550702	-0.552101	-0.076848	46.2518	-0.549456	-1.668841E+7	4.604847E-9	NaN
168	1.000000	0.590603	7.36668e+06	-47039.1	955.819	-29767.7	0.000000	0.000000	6.590907	0.004117	NaN	0.000000	0.001647	0.001683	28.0855	0.063421	0.002108	30.0834	-64.6216	177.589	0.004227	0.589281	-0.508690	-0.510012	0.004117	30.0834	-0.508792	-4.54559e+06	-9.057098E-10	NaN
168	1.000000	0.632638	7.36668e+06	-47039.1	955.82	-29767.7	0.000000	0.000000	6.632939	-0.045816	NaN	0.000000	0.001590	0.001684	28.081	0.041897	0.001952	21.4608	63.7905	-5.944937	0.002082	0.631297	-0.466655	-0.467996	-0.045816	21.4608	-0.465054	-1.11174e+06	4.121090E-8	NaN
168	1.000000	0.674645	7.36668e+06	-47039.1	955.818	-29767.7	0.000000	0.000000	6.674945	-0.083234	NaN	0.000000	0.001666	0.001711	28.1169	0.064382	0.002108	30.5471	112.78	176.903	0.001128	0.673336	-0.424648	-0.425956	-0.083234	30.5471	-0.422605	-280118	2.971395E-7	NaN
168	1.000000	0.716666	7.36668e+06	-47039.1	955.818	-29767.7	0.000000	0.000000	6.716968	-0.045240	NaN	0.000000	0.001641	0.001688	28.1235	0.028597	0.002057	13.8996	-72.754	-6.367117	-0.067424	0.715322	-0.382627	-0.383971	-0.045240	13.8996	-0.380186	-69591	6.500880E-7	NaN
168	1.000000	0.758698	7.36668e+06	-47039.1	955.818	-29767.7	0.000000	0.000000	6.758997	-0.117055	NaN	0.000000	0.001678	0.001712	28.0859	0.043914	0.001921	22.8587	42.5829	170.624	-0.113154	0.757423	-0.340595	-0.341870	-0.117055	22.8587	-0.336754	-16375.9	7.148002E-6	NaN
168	1.000000	0.800713	7.36668e+06	-47039.1	955.819	-29767.7	0.000000	0.000000	6.801014	-0.054887	NaN	0.000000	0.001672	0.001709	28.0819	0.046299	0.001910	24.2448	112.28	-2.198891	-0.093483	0.799328	-0.298580	-0.299965	-0.054887	24.2448	-0.296882	-4228.35	1.298082E-5	NaN
168	1.000000	0.842724	7.36668e+06	-47039.1	955.818	-29767.7	0.000000	0.000000	6.843024	-0.086644	NaN	0.000000	0.001617	0.001673	28.1167	0.041002	0.002072	19.7886	-131.987	179.651	-0.032578	0.841399	-0.256569	-0.257893	-0.086644	19.7886	-0.253285	-924.046	9.376618E-5	NaN
168	1.000000	0.884739	7.36668e+06	-47039.1	955.819	-29767.7	0.000000	0.000000	6.885041	-0.036010	NaN	0.000000	0.001692	0.001682	28.1235	0.071796	0.001928	37.2467	-116.95	-3.390121	-0.043390	0.883311	-0.214553	-0.215982	-0.036010	37.2467	-0.213828	-221.132	0.000163	NaN
168	1.000000	0.926767	7.36668e+06	-47039.1	955.818	-29767.7	0.000000	0.000000	6.927071	-0.003296	NaN	0.000000	0.001682	0.001712	28.0844	0.126832	0.001965	64.5492	-20.9456	176.968	-0.058609	0.925431	-0.172525	-0.173862	-0.003296	64.5492	-0.172487	-45.3613	7.265841E-5	NaN
168	1.000000	0.968762	7.36669e+06	-47039.1	955.819	-29767.7	0.000000	0.000000	6.969063	-0.069422	NaN	0.000000	0.001691	0.001687	28.081	0.084146	0.001952	43.1096	-61.6544	-8.017594	-0.001216	0.967426	-0.130531	-0.131866	-0.069422	43.1096	-0.129323	-7.393380	0.009390	NaN
168	1.000000	1.010798	7.36669e+06	-47039.1	955.819	-29767.7	0.000000	0.000000	7.011098	-0.093932	NaN	0.000000	0.001669	0.001711	28.1146	0.108266	0.001967	55.0342	169.468	177.113	-0.155030	1.009449	-0.088495	-0.089843	-0.093932	55.0342	-0.087215	-0.928768	0.101136	NaN
168	1.000000	1.052788	7.36669e+06	-47039.1	955.819	-29767.7	0.000000	0.000000	7.053088	-0.086096	NaN	0.000000	0.001572	0.001665	28.1265	0.099686	0.002068	48.2052	-40.2335	-4.737929	-0.070999	1.051384	-0.046505	-0.047909	-0.086096	48.2052	-0.045166	-0.065022	1.324107	NaN
168	1.000000	1.094842	7.36669e+06	-47039.1	955.819	-29767.7	0.000000	0.000000	7.095143	-0.058731	NaN	0.000000	0.001635	0.001675	28.0839	0.018941	0.001998	9.478135	130.038	175.374	-0.109782	1.093489	-0.004451	-0.005804	-0.058731	9.478135	0.000196	0.000147	-398.692	713.481
168	2.000000	1.115788	7.36669e+06	-47039.1	955.819	-29767.7	0.000000	0.000000	7.116972	21.4099	NaN	0.000000	0.001583	0.001669	28.0813	17.5673	0.001756	10007	7.592191	-15.0292	20.9988	1.115470	0.016496	0.016177	21.4099	10007	0.014891	0.015140	1414.1	74303.3
168	2.000000	1.126277	7.36669e+06	-47039.1	955.819	-29767.7	0.000000	0.000000	7.128293	41.6482	NaN	0.000000	0.001620	0.001695	28.1126	28.5942	0.001757	16274.2	6.185216	161.137	42.8125	1.125922	0.026985	0.026630	41.6482	16274.2	0.025065	0.031135	1337.68	84265.8
168	2.000000	1.136731	7.36669e+06	-47039.1	955.82	-29767.7	0.000000	0.000000	7.140230	77.7358	NaN	0.000000	0.001604	0.001646	28.1262	38.4868	0.001849	20815.1	4.177559	-18.6595	76.2362	1.136388	0.037438	0.037095	77.7358	20815.1	0.034637	0.050904	1527.1	84289.9
168	2.000000	1.147219	7.36669e+06	-47039.1	955.82	-29767.7	0.000000	0.000000	7.152583	123.099	NaN	0.000000	0.001610	0.001693	28.0846	47.7059	0.001755	27186.7	5.088565	157.142	122.938	1.146893	0.047926	0.047601	123.099	27186.7	0.044530	0.076259	1614.23	89946.6
168	2.000000	1.157763	7.36669e+06	-47039.1	955.821	-29767.7	0.000000	0.000000	7.165239	174.451	NaN	0.000000	0.001602	0.001766	28.081	56.8327	0.001637	34711.8	2.222626	-20.7838	175.607	1.157318	0.058471	0.058025	174.451	34711.8	0.054701	0.107496	1622.85	96728.3
168	2.000000	1.168209	7.36669e+06	-47039.1	955.821	-29767.7	0.000000	0.000000	7.177869	227.575	NaN	0.000000	0.001619	0.001703	28.113	68.295	0.001731	39450	5.881933	153.961	227.022	1.167828	0.068917	0.068535	227.575	39450	0.064590	0.142780	1593.89	95386.4
168	2.000000	1.178670	7.36669e+06	-47039.1	955.821	-29767.7	0.000000	0.000000	7.190724	285.806	NaN	0.000000	0.001598	0.001747	28.1277	77.6744	0.001770	43890.8	1.510031	-22.9836	284.54	1.178427	0.079378	0.079134	285.806	43890.8	0.074494	0.182848	1563.08	93778.2
168	2.000000	1.189069	7.36669e+06	-47039.1	955.821	-29767.7	0.000000	0.000000	7.204378	365.015	NaN	0.000000	0.001609	0.001730	28.0846	87.1739	0.001755	49660	5.823584	151.769	356.956	1.188767	0.089776	0.089475	365.015	49660	0.084263	0.226899	1608.71	95249.8
168	2.000000	1.199681	7.36669e+06	-47039.1	955.821	-29767.7	0.000000	0.000000	7.217932	436.555	NaN	0.000000	0.001637	0.001795	28.0801	97.7708	0.001837	53216.8	7.060129	-29.6844	434.419	1.199378	0.100388	0.100085	436.555	53216.8	0.094236	0.276420	1579.32	92477.8
168	2.000000	1.207272	7.36669e+06	-47039.1	955.821	-29767.7	0.000000	0.000000	7.228113	499.548	NaN	0.000000	0.001632	0.001705	28.0857	102.767	0.001767	58161.9	1.520786	155.759	503.412	1.206882	0.107980	0.107589	499.548	58161.9	0.101538	0.315565	1583.03	94594.8