Folder: unikorn_login/remote_trans/data/nanoindenter/0828-1/data/Data_2025-08-06,11h17m57s (part 55)

File: 2025-07-22_16-23-58_1_127.txt
2025-07-22, 16:23:58, 1
Index	Phase	Displacement	Time	Pos X	Pos Y	Pos Z	Rot A	Rot B	Piezo Z	Force A	Force B	Gripper	Voltage A	Voltage B	Temperature	Amplitude force	Amplitude pos	Stiffness	Phase shift	Phase excitation	Force A raw	Displacement raw	HMax	HMax raw	Real Force	Real Stiffness	Contact Depth	Area	Hardness	Reduced Mod.
[#]	[#]	[um]	[s]	[um]	[um]	[um]	[m°]	[m°]	[um]	[uN]	[uN]	[V]	[V]	[V]	[°C]	[uN]	[um]	[N/m]	[°]	[°]	[uN]	[um]	[um]	[um]	[uN]	[N/m]	[um]	[um^2]	[MPa]	[MPa]
127	1.000000	0.003293	7.36628e+06	-44989.1	955.818	-29774.4	0.000000	0.000000	6.002804	-0.016066	NaN	0.000000	0.001571	0.001747	28.0958	0.079122	0.000982	80.5565	-45.8034	-167.363	0.037614	0.002087	-1.148154	-1.149360	-0.016066	80.5565	-1.148004	-2.208323E+15	7.275151E-18	NaN
127	1.000000	0.045267	7.36628e+06	-44989.1	955.82	-29774.4	0.000000	0.000000	6.044778	-0.013525	NaN	0.000000	0.001580	0.001741	28.1299	0.099750	0.002035	49.0073	176.534	12.4265	0.081028	0.043880	-1.106180	-1.107567	-0.013525	49.0073	-1.105973	-6.029005E+14	2.243377E-17	NaN
127	1.000000	0.087249	7.36628e+06	-44989.1	955.818	-29774.4	0.000000	0.000000	6.086764	0.079012	NaN	0.000000	0.001561	0.001795	28.0975	0.049690	0.001871	26.5643	-109.478	-168.474	0.018465	0.085886	-1.064198	-1.065561	0.079012	26.5643	-1.066429	-1.775044E+14	-4.451248E-16	NaN
127	1.000000	0.129266	7.36628e+06	-44989.1	955.818	-29774.4	0.000000	0.000000	6.128777	-0.000322	NaN	0.000000	0.001544	0.001799	28.0803	0.050473	0.002147	23.5093	6.593385	10.7574	-0.023502	0.127928	-1.022181	-1.023519	-0.000322	23.5093	-1.022171	-4.509871E+13	7.148548E-18	NaN
127	1.000000	0.171279	7.36628e+06	-44989.1	955.818	-29774.4	0.000000	0.000000	6.170793	0.036984	NaN	0.000000	0.001565	0.001779	28.095	0.095406	0.002045	46.6449	-121.035	-165.32	-0.019246	0.170002	-0.980168	-0.981445	0.036984	46.6449	-0.980762	-1.249338E+13	-2.960319E-15	NaN
127	1.000000	0.213297	7.36628e+06	-44989.1	955.819	-29774.4	0.000000	0.000000	6.212808	-0.022839	NaN	0.000000	0.001543	0.001742	28.1318	0.020815	0.001960	10.6204	131.317	15.291	-0.011527	0.211962	-0.938150	-0.939485	-0.022839	10.6204	-0.936537	-3.165291E+12	7.215330E-15	NaN
127	1.000000	0.255321	7.36628e+06	-44989.1	955.818	-29774.4	0.000000	0.000000	6.254831	-0.039197	NaN	0.000000	0.001652	0.001743	28.1	0.122138	0.002051	59.5452	24.9394	-168.323	0.011364	0.253978	-0.896126	-0.897469	-0.039197	59.5452	-0.895632	-8.872446E+11	4.417857E-14	NaN
127	1.000000	0.297337	7.36628e+06	-44989.1	955.818	-29774.4	0.000000	0.000000	6.296848	-0.004144	NaN	0.000000	0.001607	0.001718	28.0802	0.026560	0.002003	13.2588	-7.760608	14.4933	-0.072453	0.295946	-0.854110	-0.855501	-0.004144	13.2588	-0.853876	-2.416667E+11	1.714950E-14	NaN
127	1.000000	0.339347	7.36628e+06	-44989.1	955.817	-29774.4	0.000000	0.000000	6.338854	-0.105809	NaN	0.000000	0.001589	0.001805	28.095	0.092456	0.002069	44.6879	-16.8032	-166.761	-0.037131	0.338026	-0.812100	-0.813421	-0.105809	44.6879	-0.810325	-6.208335E+10	1.704312E-12	NaN
127	1.000000	0.381386	7.36628e+06	-44989.1	955.818	-29774.4	0.000000	0.000000	6.380899	0.049077	NaN	0.000000	0.001560	0.001749	28.1298	0.072947	0.001975	36.9405	54.9525	12.3862	0.029477	0.380053	-0.770061	-0.771394	0.049077	36.9405	-0.771058	-1.818384E+10	-2.698920E-12	NaN
127	1.000000	0.423404	7.36628e+06	-44989.1	955.818	-29774.4	0.000000	0.000000	6.422917	0.024848	NaN	0.000000	0.001652	0.001738	28.1018	0.112735	0.002068	54.5018	3.757943	-165.395	-0.057460	0.422067	-0.728043	-0.729380	0.024848	54.5018	-0.728385	-4.773040E+9	-5.205839E-12	NaN
127	1.000000	0.465407	7.36628e+06	-44989.1	955.818	-29774.4	0.000000	0.000000	6.464922	0.068320	NaN	0.000000	0.001626	0.001770	28.0804	0.073061	0.002102	34.7633	-51.8439	13.2658	0.040553	0.464033	-0.686040	-0.687414	0.068320	34.7633	-0.687514	-1.321105E+9	-5.171401E-11	NaN
127	1.000000	0.507404	7.36628e+06	-44989.1	955.818	-29774.4	0.000000	0.000000	6.506918	0.070072	NaN	0.000000	0.001626	0.001756	28.0944	0.085956	0.002129	40.3678	156.749	-165.571	0.069635	0.506093	-0.644043	-0.645354	0.070072	40.3678	-0.645345	-3.496337E+8	-2.004145E-10	NaN
127	1.000000	0.549468	7.36628e+06	-44989.1	955.819	-29774.4	0.000000	0.000000	6.548981	0.013942	NaN	0.000000	0.001613	0.001775	28.1293	0.030472	0.001930	15.7851	19.6507	13.6324	-0.040896	0.548111	-0.601979	-0.603336	0.013942	15.7851	-0.602641	-9.053809E+7	-1.539897E-10	NaN
127	1.000000	0.591456	7.36628e+06	-44989.1	955.818	-29774.4	0.000000	0.000000	6.590970	0.066399	NaN	0.000000	0.001633	0.001754	28.1005	0.036254	0.002061	17.5904	-134.464	-165.943	0.067929	0.590133	-0.559991	-0.561314	0.066399	17.5904	-0.562822	-2.555152E+7	-2.598643E-9	NaN
127	1.000000	0.633476	7.36628e+06	-44989.1	955.818	-29774.4	0.000000	0.000000	6.632988	-0.002711	NaN	0.000000	0.001595	0.001757	28.0787	0.021759	0.002156	10.0912	6.965145	12.8568	-0.039418	0.632139	-0.517971	-0.519308	-0.002711	10.0912	-0.517769	-6.06135e+06	4.472399E-10	NaN
127	1.000000	0.675475	7.36628e+06	-44989.1	955.818	-29774.4	0.000000	0.000000	6.674984	-0.062145	NaN	0.000000	0.001620	0.001774	28.0941	0.040184	0.002145	18.737	-82.192	-169.578	-0.008795	0.674157	-0.475972	-0.477290	-0.062145	18.737	-0.473484	-1.45969e+06	4.257392E-8	NaN
127	1.000000	0.717490	7.36628e+06	-44989.1	955.818	-29774.4	0.000000	0.000000	6.717003	0.024495	NaN	0.000000	0.001652	0.001808	28.1298	0.082047	0.002098	39.1152	72.0215	15.3385	0.035064	0.716195	-0.433957	-0.435252	0.024495	39.1152	-0.434426	-411762	-5.948906E-8	NaN
127	1.000000	0.759532	7.36628e+06	-44989.1	955.819	-29774.4	0.000000	0.000000	6.759043	-0.020443	NaN	0.000000	0.001595	0.001774	28.1026	0.077770	0.001998	38.9279	67.636	-166.353	0.071073	0.758242	-0.391915	-0.393205	-0.020443	38.9279	-0.391521	-101139	2.021319E-7	NaN
127	1.000000	0.801570	7.36628e+06	-44989.1	955.818	-29774.4	0.000000	0.000000	6.801081	-0.032965	NaN	0.000000	0.001513	0.001767	28.0797	0.101144	0.001918	52.7269	-57.8424	13.1951	-0.028844	0.800192	-0.349877	-0.351255	-0.032965	52.7269	-0.349408	-25026.8	1.317199E-6	NaN
127	1.000000	0.843591	7.36628e+06	-44989.1	955.818	-29774.4	0.000000	0.000000	6.843104	0.036349	NaN	0.000000	0.001498	0.001762	28.0919	0.057165	0.001964	29.0996	19.1169	-167.256	0.030763	0.842289	-0.307856	-0.309158	0.036349	29.0996	-0.308793	-6356.1	-5.718756E-6	NaN
127	1.000000	0.885586	7.36628e+06	-44989.1	955.818	-29774.4	0.000000	0.000000	6.885098	-0.001467	NaN	0.000000	0.001549	0.001766	28.1286	0.082476	0.002150	38.3591	110.912	12.1742	0.010242	0.884275	-0.265861	-0.267172	-0.001467	38.3591	-0.265832	-1439.09	1.019236E-6	NaN
127	1.000000	0.927610	7.36628e+06	-44989.1	955.819	-29774.4	0.000000	0.000000	6.927120	-0.037523	NaN	0.000000	0.001551	0.001770	28.1022	0.033277	0.001935	17.2003	-132.847	-165.897	-0.036174	0.926313	-0.223837	-0.225134	-0.037523	17.2003	-0.222201	-301.165	0.000125	NaN
127	1.000000	0.969620	7.36628e+06	-44989.1	955.819	-29774.4	0.000000	0.000000	6.969132	0.013640	NaN	0.000000	0.001572	0.001785	28.0811	0.039461	0.001968	20.0506	-54.1672	12.2312	0.060328	0.968333	-0.181827	-0.183114	0.013640	20.0506	-0.182337	-66.8562	-0.000204	NaN
127	1.000000	1.011636	7.36628e+06	-44989.1	955.819	-29774.4	0.000000	0.000000	7.011149	0.029236	NaN	0.000000	0.001554	0.001749	28.0926	0.067081	0.002011	33.3503	119.204	-166.099	-0.037782	1.010404	-0.139811	-0.141043	0.029236	33.3503	-0.140468	-12.0713	-0.002422	NaN
127	1.000000	1.053657	7.36628e+06	-44989.1	955.819	-29774.4	0.000000	0.000000	7.053172	0.091806	NaN	0.000000	0.001593	0.001765	28.1296	0.034344	0.001834	18.7266	-18.0481	16.3559	0.037151	1.052291	-0.097790	-0.099156	0.091806	18.7266	-0.101467	-1.968666	-0.046633	NaN
127	1.000000	1.095650	7.36628e+06	-44989.1	955.82	-29774.4	0.000000	0.000000	7.095161	-0.034758	NaN	0.000000	0.001561	0.001764	28.1039	0.080708	0.001938	41.6373	168.891	-168.26	0.038259	1.094382	-0.055797	-0.057065	-0.034758	41.6373	-0.055171	-0.130281	0.266790	NaN
127	1.000000	1.137680	7.36628e+06	-44989.1	955.82	-29774.4	0.000000	0.000000	7.137192	-0.006624	NaN	0.000000	0.001609	0.001779	28.0789	0.076788	0.002036	37.7194	120.123	15.8506	0.010068	1.136346	-0.013767	-0.015101	-0.006624	37.7194	-0.013635	-0.008470	0.781984	NaN
127	2.000000	1.165276	7.36628e+06	-44989.1	955.82	-29774.4	0.000000	0.000000	7.165462	16.3978	NaN	0.000000	0.001583	0.001812	28.0897	15.1957	0.001790	8491.58	8.657080	-177.906	17.0568	1.164944	0.013829	0.013497	16.3978	8491.58	0.012381	0.011950	1372.22	70971
127	2.000000	1.175712	7.36628e+06	-44989.1	955.821	-29774.4	0.000000	0.000000	7.177079	45.1378	NaN	0.000000	0.001604	0.001761	28.1301	27.0946	0.001921	14101.9	6.425642	0.699780	45.5313	1.175394	0.024265	0.023947	45.1378	14101.9	0.021864	0.025557	1766.2	80593.5
127	2.000000	1.186181	7.36628e+06	-44989.1	955.821	-29774.4	0.000000	0.000000	7.189222	85.8545	NaN	0.000000	0.001557	0.001792	28.1052	36.6421	0.001657	22111.6	6.042137	175.897	84.8896	1.185811	0.034734	0.034364	85.8545	22111.6	0.031822	0.044605	1924.77	95653.6
127	2.000000	1.196690	7.36628e+06	-44989.1	955.82	-29774.4	0.000000	0.000000	7.201428	127.136	NaN	0.000000	0.001563	0.001773	28.0807	45.8044	0.001715	26714.8	3.700075	-3.754521	127.68	1.196481	0.045243	0.045034	127.136	26714.8	0.041674	0.068426	1858	93306.9
127	2.000000	1.207109	7.36628e+06	-44989.1	955.821	-29774.4	0.000000	0.000000	7.214359	188.242	NaN	0.000000	0.001551	0.001788	28.0902	56.6097	0.001897	29841.8	1.926939	177.278	185.131	1.206828	0.055662	0.055381	188.242	29841.8	0.050931	0.095314	1974.96	88312
127	2.000000	1.217673	7.36628e+06	-44989.1	955.82	-29774.4	0.000000	0.000000	7.227679	255.293	NaN	0.000000	0.001594	0.001775	28.1286	67.5739	0.001869	36151.4	3.863476	-4.988014	255.351	1.217339	0.066226	0.065892	255.293	36151.4	0.060930	0.129163	1976.52	91902.8
127	2.000000	1.228036	7.36629e+06	-44989.1	955.822	-29774.4	0.000000	0.000000	7.241034	328.084	NaN	0.000000	0.001565	0.001805	28.1037	78.7383	0.001910	41216.4	6.334253	170.383	322.917	1.227775	0.076589	0.076328	328.084	41216.4	0.070619	0.166617	1969.1	92253.7
127	2.000000	1.238605	7.36629e+06	-44989.1	955.822	-29774.4	0.000000	0.000000	7.255596	425.224	NaN	0.000000	0.001557	0.001790	28.079	87.5763	0.001885	46464.4	5.211751	-8.487060	422.434	1.238154	0.087158	0.086707	425.224	46464.4	0.080294	0.208467	2039.77	92976.8
127	2.000000	1.249087	7.36629e+06	-44989.1	955.821	-29774.4	0.000000	0.000000	7.270082	522.651	NaN	0.000000	0.001555	0.001779	28.09	96.4617	0.001743	55339.8	6.336345	168.326	519.981	1.248693	0.097639	0.097246	522.651	55339.8	0.090556	0.257618	2028.78	99614.6
127	2.000000	1.259128	7.36629e+06	-44989.1	955.82	-29774.4	0.000000	0.000000	7.283638	608.145	NaN	0.000000	0.001556	0.001775	28.0908	105.146	0.001766	59537.9	6.157069	169.049	610.51	1.258698	0.107681	0.107251	608.145	59537.9	0.100020	0.307228	1979.46	98137.9

File: 2025-07-22_16-23-58_1_128.txt
2025-07-22, 16:23:58, 1
Index	Phase	Displacement	Time	Pos X	Pos Y	Pos Z	Rot A	Rot B	Piezo Z	Force A	Force B	Gripper	Voltage A	Voltage B	Temperature	Amplitude force	Amplitude pos	Stiffness	Phase shift	Phase excitation	Force A raw	Displacement raw	HMax	HMax raw	Real Force	Real Stiffness	Contact Depth	Area	Hardness	Reduced Mod.
[#]	[#]	[um]	[s]	[um]	[um]	[um]	[m°]	[m°]	[um]	[uN]	[uN]	[V]	[V]	[V]	[°C]	[uN]	[um]	[N/m]	[°]	[°]	[uN]	[um]	[um]	[um]	[uN]	[N/m]	[um]	[um^2]	[MPa]	[MPa]
128	1.000000	0.002290	7.36629e+06	-45039.1	955.819	-29774.4	0.000000	0.000000	6.002726	-0.016142	NaN	0.000000	0.001602	0.001846	28.1111	0.105849	0.001029	102.863	48.0726	178.649	-0.054558	0.001033	-1.015208	-1.016465	-0.016142	102.863	-1.015090	-3.621502E+13	4.457302E-16	NaN
128	1.000000	0.042257	7.36629e+06	-45039.1	955.818	-29774.4	0.000000	0.000000	6.042693	-0.034811	NaN	0.000000	0.001626	0.001816	28.1118	0.034549	0.001997	17.2981	71.1321	176.038	0.007966	0.040940	-0.975240	-0.976558	-0.034811	17.2981	-0.973731	-1.004487E+13	3.465519E-15	NaN
128	1.000000	0.082244	7.36629e+06	-45039.1	955.818	-29774.4	0.000000	0.000000	6.082686	0.098095	NaN	0.000000	0.001594	0.001782	28.1116	0.032204	0.001963	16.4095	-33.3361	175.526	0.029303	0.080896	-0.935253	-0.936602	0.098095	16.4095	-0.939737	-3.496120E+12	-2.805833E-14	NaN
128	1.000000	0.122273	7.36629e+06	-45039.1	955.818	-29774.4	0.000000	0.000000	6.122712	0.027591	NaN	0.000000	0.001643	0.001785	28.1129	0.135946	0.001940	70.0625	-6.389223	174.285	-0.002190	0.120957	-0.895224	-0.896541	0.027591	70.0625	-0.895520	-8.841448E+11	-3.120658E-14	NaN
128	1.000000	0.162275	7.36629e+06	-45039.1	955.818	-29774.4	0.000000	0.000000	6.162714	0.038480	NaN	0.000000	0.001600	0.001777	28.1119	0.052926	0.001965	26.9372	-122.899	179.295	-0.048936	0.161016	-0.855222	-0.856481	0.038480	26.9372	-0.856294	-2.605865E+11	-1.476661E-13	NaN
128	1.000000	0.202331	7.36629e+06	-45039.1	955.818	-29774.4	0.000000	0.000000	6.202772	0.094897	NaN	0.000000	0.001627	0.001816	28.1119	0.046892	0.001932	24.2752	-56.2923	172.384	0.053599	0.201029	-0.815167	-0.816469	0.094897	24.2752	-0.818099	-7.914639E+10	-1.199006E-12	NaN
128	1.000000	0.242326	7.36629e+06	-45039.1	955.818	-29774.4	0.000000	0.000000	6.242763	-0.001665	NaN	0.000000	0.001541	0.001807	28.1109	0.122222	0.002016	60.612	173.909	175.685	0.019133	0.241029	-0.775172	-0.776469	-0.001665	60.612	-0.775151	-2.066952E+10	8.056519E-14	NaN
128	1.000000	0.282341	7.36629e+06	-45039.1	955.818	-29774.4	0.000000	0.000000	6.282780	0.041557	NaN	0.000000	0.001587	0.001774	28.1115	0.062329	0.002007	31.0534	83.2071	178.034	-0.054873	0.281055	-0.735157	-0.736442	0.041557	31.0534	-0.736161	-6.091984E+9	-6.821606E-12	NaN
128	1.000000	0.322361	7.36629e+06	-45039.1	955.818	-29774.4	0.000000	0.000000	6.322799	0.027820	NaN	0.000000	0.001613	0.001775	28.1112	0.048892	0.001904	25.6831	43.1672	172.184	0.043961	0.321011	-0.695137	-0.696487	0.027820	25.6831	-0.695950	-1.722703E+9	-1.614927E-11	NaN
128	1.000000	0.362391	7.36629e+06	-45039.1	955.818	-29774.4	0.000000	0.000000	6.362829	0.011958	NaN	0.000000	0.001589	0.001763	28.1132	0.134217	0.002051	65.4323	117.699	170.955	-0.010709	0.361074	-0.655107	-0.656424	0.011958	65.4323	-0.655244	-4.778705E+8	-2.502385E-11	NaN
128	1.000000	0.402381	7.36629e+06	-45039.1	955.819	-29774.4	0.000000	0.000000	6.402818	-0.005971	NaN	0.000000	0.001591	0.001766	28.1127	0.057982	0.001879	30.8621	-12.6982	175.638	-0.047588	0.401055	-0.615117	-0.616443	-0.005971	30.8621	-0.614972	-1.338132E+8	4.462018E-11	NaN
128	1.000000	0.442403	7.36629e+06	-45039.1	955.818	-29774.4	0.000000	0.000000	6.442841	0.007719	NaN	0.000000	0.001621	0.001799	28.1137	0.101028	0.002009	50.2981	-1.109218	175.397	0.024187	0.441111	-0.575095	-0.576387	0.007719	50.2981	-0.575210	-3.789602E+7	-2.036889E-10	NaN
128	1.000000	0.482427	7.36629e+06	-45039.1	955.819	-29774.4	0.000000	0.000000	6.482867	0.058313	NaN	0.000000	0.001535	0.001732	28.1119	0.034536	0.002019	17.105	9.390948	174.351	-0.056535	0.481133	-0.535071	-0.536365	0.058313	17.105	-0.537628	-1.144063E+7	-5.097007E-9	NaN
128	1.000000	0.522441	7.36629e+06	-45039.1	955.819	-29774.4	0.000000	0.000000	6.522879	0.015300	NaN	0.000000	0.001576	0.001775	28.1133	0.037863	0.002104	17.9932	-109.296	176.319	-0.056139	0.521135	-0.495057	-0.496363	0.015300	17.9932	-0.495695	-2.98493e+06	-5.125680E-9	NaN
128	1.000000	0.562471	7.36629e+06	-45039.1	955.818	-29774.4	0.000000	0.000000	6.562910	0.028743	NaN	0.000000	0.001550	0.001782	28.113	0.058867	0.002103	27.995	-175.721	177.435	0.127250	0.561131	-0.455026	-0.456367	0.028743	27.995	-0.455796	-823987	-3.488303E-8	NaN
128	1.000000	0.602503	7.36629e+06	-45039.1	955.818	-29774.4	0.000000	0.000000	6.602941	0.030085	NaN	0.000000	0.001565	0.001770	28.1152	0.057226	0.002023	28.2926	-122.68	176.476	-0.018059	0.601213	-0.414995	-0.416284	0.030085	28.2926	-0.415793	-224238	-1.341659E-7	NaN
128	1.000000	0.642498	7.36629e+06	-45039.1	955.818	-29774.4	0.000000	0.000000	6.642929	-0.151641	NaN	0.000000	0.001503	0.001727	28.114	0.059218	0.001951	30.3566	-77.0975	175.067	-0.031853	0.641176	-0.375000	-0.376322	-0.151641	30.3566	-0.371253	-51781.4	2.928485E-6	NaN
128	1.000000	0.682512	7.36629e+06	-45039.1	955.818	-29774.4	0.000000	0.000000	6.682950	0.012427	NaN	0.000000	0.001549	0.001770	28.1154	0.106526	0.002101	50.6951	-157.106	174.358	-0.005283	0.681218	-0.334986	-0.336280	0.012427	50.6951	-0.335170	-15526.2	-8.003918E-7	NaN
128	1.000000	0.722505	7.36629e+06	-45039.1	955.818	-29774.4	0.000000	0.000000	6.722944	0.038559	NaN	0.000000	0.001534	0.001771	28.1144	0.025806	0.001822	14.1651	15.4115	176.16	-0.003969	0.721222	-0.294993	-0.296276	0.038559	14.1651	-0.297034	-4250.54	-9.071645E-6	NaN
128	1.000000	0.762525	7.36629e+06	-45039.1	955.818	-29774.4	0.000000	0.000000	6.762964	0.055752	NaN	0.000000	0.001545	0.001770	28.1157	0.032964	0.001988	16.5836	124.493	173.977	0.029640	0.761228	-0.254973	-0.256270	0.055752	16.5836	-0.257495	-1072.69	-5.197357E-5	NaN
128	1.000000	0.802585	7.36629e+06	-45039.1	955.818	-29774.4	0.000000	0.000000	6.803023	0.025537	NaN	0.000000	0.001550	0.001751	28.1142	0.013808	0.001981	6.970403	32.7423	177.545	0.066935	0.801269	-0.214913	-0.216229	0.025537	6.970403	-0.217660	-254.82	-0.000100	NaN
128	1.000000	0.842579	7.36629e+06	-45039.1	955.817	-29774.4	0.000000	0.000000	6.843016	-0.002401	NaN	0.000000	0.001548	0.001750	28.1154	0.087847	0.002080	42.234	29.5806	174.296	-0.022243	0.841228	-0.174919	-0.176270	-0.002401	42.234	-0.174876	-49.872	4.814068E-5	NaN
128	1.000000	0.882588	7.36629e+06	-45039.1	955.818	-29774.4	0.000000	0.000000	6.883026	0.015385	NaN	0.000000	0.001580	0.001740	28.1154	0.128205	0.002084	61.5052	-96.63	169.865	-0.041309	0.881332	-0.134909	-0.136166	0.015385	61.5052	-0.135097	-9.553044	-0.001610	NaN
128	1.000000	0.922632	7.36629e+06	-45039.1	955.819	-29774.4	0.000000	0.000000	6.923073	0.093326	NaN	0.000000	0.001581	0.001681	28.1167	0.051281	0.002100	24.4186	-94.6772	172.497	0.086923	0.921305	-0.094866	-0.096192	0.093326	24.4186	-0.097732	-1.626297	-0.057385	NaN
128	1.000000	0.962609	7.36629e+06	-45039.1	955.818	-29774.4	0.000000	0.000000	6.963047	0.014587	NaN	0.000000	0.001603	0.001702	28.1153	0.025773	0.001961	13.1414	49.1065	173.725	-0.012985	0.961331	-0.054889	-0.056167	0.014587	13.1414	-0.055721	-0.135245	-0.107855	NaN
128	1.000000	1.002664	7.36629e+06	-45039.1	955.818	-29774.4	0.000000	0.000000	7.003101	-0.015141	NaN	0.000000	0.001547	0.001743	28.1172	0.035004	0.001802	19.4245	16.0337	175.662	0.006272	1.001320	-0.014834	-0.016178	-0.015141	19.4245	-0.014249	-0.008829	1.714802	NaN
128	2.000000	1.032201	7.36629e+06	-45039.1	955.818	-29774.4	0.000000	0.000000	7.033262	15.1874	NaN	0.000000	0.001629	0.001728	28.1153	14.1262	0.001762	8016.16	5.545096	167.422	14.0071	1.031945	0.014703	0.014447	15.1874	8016.16	0.013282	0.013062	1162.71	64081.7
128	2.000000	1.042122	7.36629e+06	-45039.1	955.818	-29774.4	0.000000	0.000000	7.044297	42.2786	NaN	0.000000	0.001561	0.001754	28.1162	26.5742	0.001770	15013.2	1.731398	165.945	40.9045	1.041853	0.024624	0.024355	42.2786	15013.2	0.022512	0.026644	1586.79	84032.2
128	2.000000	1.052238	7.36629e+06	-45039.1	955.818	-29774.4	0.000000	0.000000	7.055435	67.1181	NaN	0.000000	0.001552	0.001713	28.1159	36.8161	0.001755	20976.8	8.665425	155.832	70.5362	1.051900	0.034741	0.034403	67.1181	20976.8	0.032341	0.045736	1467.52	89616
128	2.000000	1.062096	7.36629e+06	-45039.1	955.818	-29774.4	0.000000	0.000000	7.066669	100.598	NaN	0.000000	0.001546	0.001743	28.1182	45.1937	0.001838	24593.5	2.037319	160.924	98.4097	1.061833	0.044599	0.044335	100.598	24593.5	0.041531	0.068044	1478.42	86138.6
128	2.000000	1.072037	7.36629e+06	-45039.1	955.818	-29774.4	0.000000	0.000000	7.078096	136.77	NaN	0.000000	0.001562	0.001721	28.1175	54.9194	0.001804	30446.3	5.847082	155.03	132.701	1.071840	0.054539	0.054342	136.77	30446.3	0.051170	0.096064	1423.73	89748.6
128	2.000000	1.082113	7.36629e+06	-45039.1	955.817	-29774.4	0.000000	0.000000	7.090111	183.935	NaN	0.000000	0.001538	0.001728	28.118	62.7439	0.001712	36639.3	4.953684	155.198	181.662	1.081830	0.064615	0.064332	183.935	36639.3	0.060850	0.128874	1427.25	93247.7
128	2.000000	1.092037	7.36629e+06	-45039.1	955.817	-29774.4	0.000000	0.000000	7.102351	240.273	NaN	0.000000	0.001560	0.001721	28.1165	72.4835	0.001703	42557.6	4.045228	154.837	237.485	1.091760	0.074539	0.074262	240.273	42557.6	0.070305	0.165329	1453.3	95626.1
128	2.000000	1.102032	7.36629e+06	-45039.1	955.818	-29774.4	0.000000	0.000000	7.114891	302.183	NaN	0.000000	0.001569	0.001700	28.1173	83.8882	0.001754	47826.3	6.308976	151.492	300.279	1.101798	0.084534	0.084300	302.183	47826.3	0.079796	0.206202	1465.47	96226.2
128	2.000000	1.111978	7.36629e+06	-45039.1	955.818	-29774.4	0.000000	0.000000	7.128438	389.8	NaN	0.000000	0.001560	0.001764	28.1168	92.3892	0.001840	50223.2	3.702842	154.281	385.132	1.111809	0.094480	0.094311	389.8	50223.2	0.088659	0.248164	1570.74	92110.3
128	2.000000	1.122099	7.36629e+06	-45039.1	955.819	-29774.4	0.000000	0.000000	7.142498	485.604	NaN	0.000000	0.001588	0.001771	28.1176	103.908	0.001944	53460.4	7.804063	149.876	486.47	1.121689	0.104602	0.104191	485.604	53460.4	0.097789	0.295166	1645.19	89902.6
128	2.000000	1.126999	7.36629e+06	-45039.1	955.818	-29774.4	0.000000	0.000000	7.149855	545.402	NaN	0.000000	0.001526	0.001779	28.0845	105.227	0.001870	56282	1.516324	155.786	541.671	1.126719	0.109501	0.109222	545.402	56282	0.102233	0.319418	1707.49	90983.7