Folder: unikorn_login/remote_trans/data/nanoindenter/0828-1/data/Data_2025-08-06,11h17m57s (part 137)

File: 2025-07-22_16-23-58_1_291.txt
2025-07-22, 16:23:58, 1
Index	Phase	Displacement	Time	Pos X	Pos Y	Pos Z	Rot A	Rot B	Piezo Z	Force A	Force B	Gripper	Voltage A	Voltage B	Temperature	Amplitude force	Amplitude pos	Stiffness	Phase shift	Phase excitation	Force A raw	Displacement raw	HMax	HMax raw	Real Force	Real Stiffness	Contact Depth	Area	Hardness	Reduced Mod.
[#]	[#]	[um]	[s]	[um]	[um]	[um]	[m°]	[m°]	[um]	[uN]	[uN]	[V]	[V]	[V]	[°C]	[uN]	[um]	[N/m]	[°]	[°]	[uN]	[um]	[um]	[um]	[uN]	[N/m]	[um]	[um^2]	[MPa]	[MPa]
291	1.000000	0.002843	7.3679e+06	-53189.1	955.818	-29747.3	0.000000	0.000000	6.002799	-0.043185	NaN	0.000000	0.001630	0.001619	28.0794	0.080320	0.001064	75.4913	107.578	-168.204	-0.101552	0.001550	-1.074292	-1.075585	-0.043185	75.4913	-1.073863	-2.234037E+14	1.933045E-16	NaN
291	1.000000	0.042801	7.3679e+06	-53189.1	955.818	-29747.3	0.000000	0.000000	6.042759	0.007897	NaN	0.000000	0.001635	0.001626	28.0802	0.039573	0.001851	21.3782	79.8347	-162.573	0.002651	0.041485	-1.034334	-1.035650	0.007897	21.3782	-1.034611	-6.629735E+13	-1.191163E-16	NaN
291	1.000000	0.082783	7.3679e+06	-53189.1	955.819	-29747.3	0.000000	0.000000	6.082738	-0.069629	NaN	0.000000	0.001621	0.001626	28.0805	0.029455	0.001918	15.3578	63.8347	-166.379	-0.030442	0.081526	-0.994352	-0.995609	-0.069629	15.3578	-0.990952	-1.713681E+13	4.063147E-15	NaN
291	1.000000	0.122841	7.3679e+06	-53189.1	955.819	-29747.3	0.000000	0.000000	6.122799	-0.003193	NaN	0.000000	0.001612	0.001689	28.0802	0.029542	0.001970	14.9952	-19.5993	-164.825	-0.003960	0.121538	-0.954294	-0.955597	-0.003193	14.9952	-0.954134	-5.467320E+12	5.840920E-16	NaN
291	1.000000	0.162838	7.3679e+06	-53189.1	955.818	-29747.3	0.000000	0.000000	6.162793	-0.056443	NaN	0.000000	0.001633	0.001714	28.08	0.041816	0.001994	20.9659	9.964086	-164.144	-0.031021	0.161550	-0.914297	-0.915585	-0.056443	20.9659	-0.912278	-1.489131E+12	3.790340E-14	NaN
291	1.000000	0.202849	7.3679e+06	-53189.1	955.818	-29747.3	0.000000	0.000000	6.202806	-0.020861	NaN	0.000000	0.001623	0.001701	28.0787	0.077644	0.001922	40.4008	171.045	-167.486	-0.076787	0.201471	-0.874286	-0.875664	-0.020861	40.4008	-0.873899	-4.510149E+11	4.625280E-14	NaN
291	1.000000	0.242885	7.3679e+06	-53189.1	955.818	-29747.3	0.000000	0.000000	6.242840	-0.078004	NaN	0.000000	0.001665	0.001698	28.0787	0.130980	0.002019	64.8779	43.5941	-162.369	-0.002944	0.241582	-0.834250	-0.835553	-0.078004	64.8779	-0.833348	-1.273983E+11	6.122850E-13	NaN
291	1.000000	0.282877	7.3679e+06	-53189.1	955.818	-29747.3	0.000000	0.000000	6.282835	-0.007834	NaN	0.000000	0.001627	0.001701	28.079	0.087925	0.001935	45.4381	133.94	-164.294	0.109548	0.281615	-0.794258	-0.795520	-0.007834	45.4381	-0.794128	-3.742362E+10	2.093219E-13	NaN
291	1.000000	0.322947	7.3679e+06	-53189.1	955.818	-29747.3	0.000000	0.000000	6.322905	-0.005820	NaN	0.000000	0.001706	0.001679	28.0804	0.083353	0.002053	40.6097	-152.137	-163.533	0.007436	0.321619	-0.754188	-0.755516	-0.005820	40.6097	-0.754080	-1.068446E+10	5.446834E-13	NaN
291	1.000000	0.362937	7.3679e+06	-53189.1	955.818	-29747.3	0.000000	0.000000	6.362894	-0.027659	NaN	0.000000	0.001685	0.001665	28.0805	0.049413	0.001945	25.404	129	-161.126	-0.008240	0.361642	-0.714198	-0.715493	-0.027659	25.404	-0.713381	-2.979821E+9	9.282077E-12	NaN
291	1.000000	0.402922	7.36791e+06	-53189.1	955.818	-29747.3	0.000000	0.000000	6.402878	-0.046297	NaN	0.000000	0.001614	0.001722	28.0802	0.079464	0.002035	39.0567	129.408	-164.63	-0.127666	0.401665	-0.674213	-0.675470	-0.046297	39.0567	-0.673324	-8.450362E+8	5.478689E-11	NaN
291	1.000000	0.442976	7.36791e+06	-53189.1	955.818	-29747.3	0.000000	0.000000	6.442932	-0.030678	NaN	0.000000	0.001656	0.001666	28.0802	0.045656	0.001899	24.0377	-170.543	-163.235	0.085068	0.441668	-0.634159	-0.635467	-0.030678	24.0377	-0.633202	-2.382264E+8	1.287786E-10	NaN
291	1.000000	0.482967	7.36791e+06	-53189.1	955.818	-29747.3	0.000000	0.000000	6.482927	0.041763	NaN	0.000000	0.001626	0.001651	28.0789	0.072354	0.002026	35.7112	178.382	-162.821	-0.027938	0.481683	-0.594168	-0.595452	0.041763	35.7112	-0.595045	-7.115369E+7	-5.869348E-10	NaN
291	1.000000	0.522992	7.36791e+06	-53189.1	955.819	-29747.3	0.000000	0.000000	6.522949	-0.001849	NaN	0.000000	0.001594	0.001636	28.079	0.027191	0.002046	13.2905	174.024	-163.771	0.025923	0.521664	-0.554143	-0.555471	-0.001849	13.2905	-0.554039	-1.931461E+7	9.573872E-11	NaN
291	1.000000	0.563034	7.36791e+06	-53189.1	955.818	-29747.3	0.000000	0.000000	6.562991	-0.017081	NaN	0.000000	0.001638	0.001629	28.0789	0.048491	0.001940	24.9963	-155.754	-163.865	-0.035158	0.561693	-0.514101	-0.515442	-0.017081	24.9963	-0.513588	-5.30129e+06	3.222135E-9	NaN
291	1.000000	0.603029	7.36791e+06	-53189.1	955.817	-29747.3	0.000000	0.000000	6.602985	-0.046603	NaN	0.000000	0.001616	0.001676	28.0803	0.093843	0.001972	47.5864	156.851	-164.221	-0.119807	0.601716	-0.474106	-0.475419	-0.046603	47.5864	-0.473372	-1.45439e+06	3.204305E-8	NaN
291	1.000000	0.643054	7.36791e+06	-53189.1	955.819	-29747.3	0.000000	0.000000	6.643009	-0.066222	NaN	0.000000	0.001614	0.001631	28.0798	0.029196	0.002031	14.3784	83.153	-165.173	0.023146	0.641761	-0.434081	-0.435374	-0.066222	14.3784	-0.430627	-363860	1.819986E-7	NaN
291	1.000000	0.683074	7.36791e+06	-53189.1	955.818	-29747.3	0.000000	0.000000	6.683028	-0.091207	NaN	0.000000	0.001601	0.001632	28.0802	0.045867	0.002040	22.4868	142.884	-165.57	-0.036346	0.681787	-0.394061	-0.395348	-0.091207	22.4868	-0.391019	-99482.6	9.168120E-7	NaN
291	1.000000	0.723037	7.36791e+06	-53189.1	955.818	-29747.3	0.000000	0.000000	6.722996	0.048831	NaN	0.000000	0.001607	0.001657	28.0789	0.015907	0.001906	8.347505	123.682	-161.261	-0.038410	0.721753	-0.354098	-0.355382	0.048831	8.347505	-0.358486	-33880.5	-1.441269E-6	NaN
291	1.000000	0.763104	7.36791e+06	-53189.1	955.816	-29747.3	0.000000	0.000000	6.763062	0.016261	NaN	0.000000	0.001626	0.001638	28.0789	0.061733	0.002007	30.7641	-125.151	-166.521	-0.043606	0.761772	-0.314031	-0.315363	0.016261	30.7641	-0.314428	-7700.21	-2.111725E-6	NaN
291	1.000000	0.803107	7.36791e+06	-53189.1	955.818	-29747.3	0.000000	0.000000	6.803065	-0.000987	NaN	0.000000	0.001593	0.001637	28.0789	0.050789	0.001914	26.5355	44.8874	-164.524	0.002196	0.801759	-0.274028	-0.275376	-0.000987	26.5355	-0.274000	-1915.35	5.151330E-7	NaN
291	1.000000	0.843146	7.36791e+06	-53189.1	955.818	-29747.3	0.000000	0.000000	6.843105	0.024847	NaN	0.000000	0.001612	0.001649	28.0789	0.067831	0.002092	32.4299	153.524	-167.948	0.081766	0.841776	-0.233989	-0.235359	0.024847	32.4299	-0.234564	-472.497	-5.258594E-5	NaN
291	1.000000	0.883148	7.36791e+06	-53189.1	955.818	-29747.3	0.000000	0.000000	6.883105	-0.016626	NaN	0.000000	0.001621	0.001694	28.0802	0.088414	0.001927	45.8803	-95.9202	-167.003	-0.022626	0.881816	-0.193987	-0.195319	-0.016626	45.8803	-0.193715	-103.728	0.000160	NaN
291	1.000000	0.923135	7.36791e+06	-53189.1	955.819	-29747.3	0.000000	0.000000	6.923094	0.029526	NaN	0.000000	0.001597	0.001673	28.0802	0.060618	0.001945	31.1732	97.9281	-162.12	0.015542	0.921829	-0.154000	-0.155306	0.029526	31.1732	-0.154711	-22.0482	-0.001339	NaN
291	1.000000	0.963168	7.36791e+06	-53189.1	955.818	-29747.3	0.000000	0.000000	6.963123	-0.072804	NaN	0.000000	0.001593	0.001651	28.0807	0.063443	0.002063	30.7573	-39.6139	-165.533	-0.026463	0.961887	-0.113967	-0.115248	-0.072804	30.7573	-0.112192	-3.340818	0.021792	NaN
291	1.000000	1.003207	7.36791e+06	-53189.1	955.817	-29747.3	0.000000	0.000000	7.003166	0.036052	NaN	0.000000	0.001636	0.001705	28.0793	0.083217	0.002052	40.5463	11.8701	-164.769	0.073983	1.001867	-0.073928	-0.075268	0.036052	40.5463	-0.074595	-0.450848	-0.079965	NaN
291	1.000000	1.043219	7.36791e+06	-53189.1	955.818	-29747.3	0.000000	0.000000	7.043177	-0.001552	NaN	0.000000	0.001617	0.001753	28.079	0.083546	0.001953	42.771	-179.419	-166.399	0.000622	1.041954	-0.033916	-0.035181	-0.001552	42.771	-0.033889	-0.029711	0.052224	NaN
291	1.000000	1.083196	7.36791e+06	-53189.1	955.817	-29747.3	0.000000	0.000000	7.083284	3.169042	NaN	0.000000	0.001616	0.001734	28.0789	4.011415	0.002004	2001.83	14.5344	-168.58	2.165852	1.081858	0.006061	0.004723	3.169042	2001.83	0.004874	0.004018	788.626	28851.7
291	2.000000	1.097702	7.36791e+06	-53189.1	955.817	-29747.3	0.000000	0.000000	7.098533	21.2084	NaN	0.000000	0.001591	0.001680	28.0789	18.4844	0.001734	10657.2	4.246360	-175.243	20.3184	1.097444	0.020568	0.020309	21.2084	10657.2	0.019075	0.021109	1004.68	67015.7
291	2.000000	1.107695	7.36791e+06	-53189.1	955.818	-29747.3	0.000000	0.000000	7.109527	45.5592	NaN	0.000000	0.001568	0.001705	28.0801	28.4605	0.001745	16312	3.557563	-178.627	44.9497	1.107396	0.030560	0.030261	45.5592	16312	0.028466	0.037623	1210.93	76833.6
291	2.000000	1.117701	7.36791e+06	-53189.1	955.818	-29747.3	0.000000	0.000000	7.120662	73.0109	NaN	0.000000	0.001571	0.001670	28.08	38.6841	0.001849	20923.4	6.580534	177.545	74.9852	1.117321	0.040566	0.040187	73.0109	20923.4	0.037949	0.058835	1240.94	78811.4
291	2.000000	1.127691	7.36791e+06	-53189.1	955.818	-29747.3	0.000000	0.000000	7.132349	114.286	NaN	0.000000	0.001552	0.001649	28.08	48.0011	0.001831	26217.6	9.516795	172.868	116.451	1.127249	0.050556	0.050114	114.286	26217.6	0.047286	0.084211	1357.15	82543.6
291	2.000000	1.137633	7.36791e+06	-53189.1	955.819	-29747.3	0.000000	0.000000	7.144298	163.056	NaN	0.000000	0.001592	0.001697	28.079	57.9952	0.001958	29621.4	6.446698	175.54	165.004	1.137306	0.060498	0.060171	163.056	29621.4	0.056370	0.113113	1441.53	80467.9
291	2.000000	1.147603	7.36791e+06	-53189.1	955.818	-29747.3	0.000000	0.000000	7.156190	209.813	NaN	0.000000	0.001610	0.001763	28.0788	66.3857	0.001891	35098.8	5.835600	174.093	208.498	1.147304	0.070468	0.070169	209.813	35098.8	0.065984	0.148138	1416.34	83316.8
291	2.000000	1.157657	7.36791e+06	-53189.1	955.819	-29747.3	0.000000	0.000000	7.168402	262.28	NaN	0.000000	0.001585	0.001764	28.0787	75.6755	0.001768	42803.2	3.894245	173.813	262.771	1.157349	0.080522	0.080215	262.28	42803.2	0.075926	0.189027	1387.53	89947.2
291	2.000000	1.167532	7.36791e+06	-53189.1	955.82	-29747.3	0.000000	0.000000	7.181011	328.742	NaN	0.000000	0.001616	0.001657	28.0794	84.9755	0.001786	47580.4	5.175839	172.279	324.122	1.167211	0.090397	0.090076	328.742	47580.4	0.085215	0.231430	1420.48	90363.1
291	2.000000	1.177550	7.36791e+06	-53189.1	955.818	-29747.3	0.000000	0.000000	7.194149	404.592	NaN	0.000000	0.001620	0.001667	28.0803	95.6579	0.001767	54142.3	9.876517	167.45	401.147	1.177116	0.100415	0.099981	404.592	54142.3	0.094811	0.279414	1448	93580.5
291	2.000000	1.187503	7.36791e+06	-53189.1	955.819	-29747.3	0.000000	0.000000	7.207271	481.655	NaN	0.000000	0.001627	0.001707	28.0801	103.679	0.001751	59218.2	0.679899	175.437	478.607	1.187216	0.110368	0.110081	481.655	59218.2	0.104268	0.330821	1455.94	94065.8

File: 2025-07-22_16-23-58_1_292.txt
2025-07-22, 16:23:58, 1
Index	Phase	Displacement	Time	Pos X	Pos Y	Pos Z	Rot A	Rot B	Piezo Z	Force A	Force B	Gripper	Voltage A	Voltage B	Temperature	Amplitude force	Amplitude pos	Stiffness	Phase shift	Phase excitation	Force A raw	Displacement raw	HMax	HMax raw	Real Force	Real Stiffness	Contact Depth	Area	Hardness	Reduced Mod.
[#]	[#]	[um]	[s]	[um]	[um]	[um]	[m°]	[m°]	[um]	[uN]	[uN]	[V]	[V]	[V]	[°C]	[uN]	[um]	[N/m]	[°]	[°]	[uN]	[um]	[um]	[um]	[uN]	[N/m]	[um]	[um^2]	[MPa]	[MPa]
292	1.000000	0.002849	7.36791e+06	-53239.1	955.818	-29747.2	0.000000	0.000000	6.002806	-0.005930	NaN	0.000000	0.001623	0.001684	28.0808	0.043919	0.000963	45.5872	-94.2792	-165.481	-0.001598	0.001613	-1.017763	-1.018999	-0.005930	45.5872	-1.017666	-3.922352E+13	1.511942E-16	NaN
292	1.000000	0.042799	7.36791e+06	-53239.1	955.819	-29747.2	0.000000	0.000000	6.042757	0.010371	NaN	0.000000	0.001629	0.001674	28.081	0.040228	0.001929	20.8573	-163.143	-163.762	0.034594	0.041481	-0.977814	-0.979132	0.010371	20.8573	-0.978187	-1.153395E+13	-8.991747E-16	NaN
292	1.000000	0.082787	7.36791e+06	-53239.1	955.818	-29747.2	0.000000	0.000000	6.082745	0.007309	NaN	0.000000	0.001622	0.001711	28.0811	0.053896	0.002038	26.4416	-0.796000	-168.6	-0.020370	0.081531	-0.937825	-0.939082	0.007309	26.4416	-0.938032	-3.315797E+12	-2.204412E-15	NaN
292	1.000000	0.122809	7.36791e+06	-53239.1	955.818	-29747.2	0.000000	0.000000	6.122764	-0.066461	NaN	0.000000	0.001594	0.001727	28.0808	0.018811	0.002009	9.365419	9.514601	-169.352	-0.029998	0.121514	-0.897804	-0.899098	-0.066461	9.365419	-0.892481	-8.043668E+11	8.262545E-14	NaN
292	1.000000	0.162837	7.36791e+06	-53239.1	955.818	-29747.2	0.000000	0.000000	6.162796	0.016620	NaN	0.000000	0.001610	0.001691	28.0797	0.026205	0.001961	13.362	-142.45	-166.568	-0.178421	0.161494	-0.857775	-0.859119	0.016620	13.362	-0.858708	-2.809503E+11	-5.915495E-14	NaN
292	1.000000	0.202855	7.36791e+06	-53239.1	955.818	-29747.2	0.000000	0.000000	6.202811	-0.051538	NaN	0.000000	0.001621	0.001706	28.0796	0.068959	0.002173	31.7352	-114.228	-161.141	-0.092171	0.201538	-0.817757	-0.819074	-0.051538	31.7352	-0.816539	-7.538262E+10	6.836884E-13	NaN
292	1.000000	0.242873	7.36791e+06	-53239.1	955.818	-29747.2	0.000000	0.000000	6.242827	-0.094683	NaN	0.000000	0.001638	0.001709	28.0795	0.030386	0.001943	15.637	-32.2527	-166.508	0.024147	0.241531	-0.777739	-0.779081	-0.094683	15.637	-0.773198	-1.944365E+10	4.869595E-12	NaN
292	1.000000	0.282871	7.36791e+06	-53239.1	955.819	-29747.2	0.000000	0.000000	6.282828	-0.018948	NaN	0.000000	0.001601	0.001709	28.0805	0.040182	0.001937	20.7408	2.852482	-164.836	0.036802	0.281569	-0.737742	-0.739043	-0.018948	20.7408	-0.737056	-6.265561E+9	3.024135E-12	NaN
292	1.000000	0.322944	7.36791e+06	-53239.1	955.818	-29747.2	0.000000	0.000000	6.322902	-0.009099	NaN	0.000000	0.001595	0.001700	28.0809	0.056172	0.002061	27.2586	66.5909	-166.94	0.043808	0.321585	-0.697668	-0.699027	-0.009099	27.2586	-0.697417	-1.804091E+9	5.043307E-12	NaN
292	1.000000	0.362948	7.36791e+06	-53239.1	955.819	-29747.2	0.000000	0.000000	6.362904	-0.036029	NaN	0.000000	0.001622	0.001690	28.081	0.062389	0.001950	31.9944	42.0496	-168.145	-0.054427	0.361641	-0.657664	-0.658971	-0.036029	31.9944	-0.656820	-5.022291E+8	7.173837E-11	NaN
292	1.000000	0.402928	7.36791e+06	-53239.1	955.818	-29747.2	0.000000	0.000000	6.402883	-0.065040	NaN	0.000000	0.001616	0.001709	28.0813	0.019882	0.001955	10.171	-159.196	-167.29	0.047941	0.401621	-0.617685	-0.618991	-0.065040	10.171	-0.612889	-1.252715E+8	5.191893E-10	NaN
292	1.000000	0.442965	7.36792e+06	-53239.1	955.819	-29747.2	0.000000	0.000000	6.442927	0.101131	NaN	0.000000	0.001609	0.001727	28.0795	0.059502	0.002076	28.665	141.271	-165.123	0.108601	0.441687	-0.577647	-0.578925	0.101131	28.665	-0.580293	-4.454255E+7	-2.270445E-9	NaN
292	1.000000	0.482960	7.36792e+06	-53239.1	955.818	-29747.2	0.000000	0.000000	6.482916	-0.042129	NaN	0.000000	0.001591	0.001695	28.0796	0.088718	0.002052	43.2339	-176.212	-165.969	-0.102917	0.481698	-0.537652	-0.538914	-0.042129	43.2339	-0.536921	-1.118531E+7	3.766462E-9	NaN
292	1.000000	0.523000	7.36792e+06	-53239.1	955.819	-29747.2	0.000000	0.000000	6.522957	-0.027680	NaN	0.000000	0.001581	0.001699	28.0794	0.126745	0.001990	63.7053	-157.35	-164.042	0.017192	0.521670	-0.497612	-0.498942	-0.027680	63.7053	-0.497286	-3.14156e+06	8.811073E-9	NaN
292	1.000000	0.563014	7.36792e+06	-53239.1	955.818	-29747.2	0.000000	0.000000	6.562973	0.031945	NaN	0.000000	0.001635	0.001710	28.0808	0.050301	0.001977	25.4425	174.92	-169.077	-0.001120	0.561733	-0.457599	-0.458879	0.031945	25.4425	-0.458540	-900536	-3.547374E-8	NaN
292	1.000000	0.603015	7.36792e+06	-53239.1	955.818	-29747.2	0.000000	0.000000	6.602970	-0.057084	NaN	0.000000	0.001583	0.001703	28.0808	0.030440	0.002015	15.1052	112.267	-165.577	-0.043834	0.601691	-0.417597	-0.418921	-0.057084	15.1052	-0.414763	-216816	2.632811E-7	NaN
292	1.000000	0.643048	7.36792e+06	-53239.1	955.818	-29747.2	0.000000	0.000000	6.643002	-0.084824	NaN	0.000000	0.001677	0.001721	28.0812	0.130458	0.001943	67.1408	-150.955	-168.694	-0.032199	0.641701	-0.377564	-0.378911	-0.084824	67.1408	-0.376617	-61845.4	1.371549E-6	NaN
292	1.000000	0.683063	7.36792e+06	-53239.1	955.818	-29747.2	0.000000	0.000000	6.683021	0.011422	NaN	0.000000	0.001679	0.001679	28.0798	0.072177	0.001938	37.246	175.712	-166.7	-0.052168	0.681785	-0.337549	-0.338827	0.011422	37.246	-0.337779	-16949.7	-6.738501E-7	NaN
292	1.000000	0.723063	7.36792e+06	-53239.1	955.819	-29747.2	0.000000	0.000000	6.723020	-0.026066	NaN	0.000000	0.001653	0.001712	28.0798	0.057010	0.002073	27.5041	81.1314	-166.167	0.057131	0.721772	-0.297549	-0.298840	-0.026066	27.5041	-0.296838	-4222.07	6.173747E-6	NaN
292	1.000000	0.763114	7.36792e+06	-53239.1	955.818	-29747.2	0.000000	0.000000	6.763070	-0.049361	NaN	0.000000	0.001652	0.001694	28.0797	0.030347	0.002167	14.0061	-98.2822	-164.993	0.024172	0.761778	-0.257498	-0.258834	-0.049361	14.0061	-0.254855	-976.973	5.052390E-5	NaN
292	1.000000	0.803146	7.36792e+06	-53239.1	955.818	-29747.2	0.000000	0.000000	6.803105	0.013739	NaN	0.000000	0.001673	0.001669	28.0796	0.077851	0.001911	40.7295	-69.5595	-167.763	0.026407	0.801832	-0.217466	-0.218781	0.013739	40.7295	-0.217719	-255.368	-5.380161E-5	NaN
292	1.000000	0.843103	7.36792e+06	-53239.1	955.818	-29747.2	0.000000	0.000000	6.843061	-0.001170	NaN	0.000000	0.001698	0.001709	28.0807	0.110769	0.002086	53.1107	-77.5736	-168.922	9.938357E-5	0.841829	-0.177509	-0.178783	-0.001170	53.1107	-0.177493	-55.2974	2.116265E-5	NaN
292	1.000000	0.883157	7.36792e+06	-53239.1	955.818	-29747.2	0.000000	0.000000	6.883113	-0.034183	NaN	0.000000	0.001712	0.001681	28.0809	0.072485	0.001912	37.9183	-89.7427	-168.878	-0.029996	0.881806	-0.137456	-0.138806	-0.034183	37.9183	-0.136780	-10.284	0.003324	NaN
292	1.000000	0.923146	7.36792e+06	-53239.1	955.818	-29747.2	0.000000	0.000000	6.923106	0.040300	NaN	0.000000	0.001667	0.001675	28.0808	0.026698	0.001925	13.8727	-52.8989	-167.19	-0.028044	0.921843	-0.097466	-0.098769	0.040300	13.8727	-0.099645	-1.794287	-0.022460	NaN
292	1.000000	0.963184	7.36792e+06	-53239.1	955.818	-29747.2	0.000000	0.000000	6.963145	0.071676	NaN	0.000000	0.001672	0.001672	28.0796	0.073990	0.001995	37.0809	138.656	-170.19	-0.005059	0.961881	-0.057428	-0.058731	0.071676	37.0809	-0.058878	-0.167183	-0.428728	NaN
292	1.000000	1.003188	7.36792e+06	-53239.1	955.818	-29747.2	0.000000	0.000000	7.003146	0.004992	NaN	0.000000	0.001620	0.001696	28.0797	0.051405	0.002031	25.307	138.558	-167.669	-0.008922	1.001890	-0.017424	-0.018722	0.004992	25.307	-0.017572	-0.010880	-0.458792	NaN
292	2.000000	1.034839	7.36792e+06	-53239.1	955.819	-29747.2	0.000000	0.000000	7.035197	9.733883	NaN	0.000000	0.001609	0.001639	28.0795	11.133	0.001755	6342.54	5.195465	-172.331	9.366738	1.034560	0.014227	0.013948	9.733883	6342.54	0.013076	0.012804	760.203	51210.4
292	2.000000	1.044850	7.36792e+06	-53239.1	955.818	-29747.2	0.000000	0.000000	7.046073	30.7779	NaN	0.000000	0.001591	0.001648	28.0794	23.3841	0.001739	13447	5.103027	-177.378	30.6264	1.044481	0.024238	0.023869	30.7779	13447	0.022521	0.026659	1154.48	75244.3
292	2.000000	1.054760	7.36792e+06	-53239.1	955.818	-29747.2	0.000000	0.000000	7.057234	61.1747	NaN	0.000000	0.001538	0.001660	28.0807	33.7237	0.001725	19554.9	5.721195	176.884	59.6774	1.054453	0.034148	0.033841	61.1747	19554.9	0.031801	0.044560	1372.86	84635.9
292	2.000000	1.064763	7.36792e+06	-53239.1	955.819	-29747.2	0.000000	0.000000	7.069265	110.488	NaN	0.000000	0.001565	0.001694	28.0809	45.5232	0.001762	25840.4	4.767450	175.772	109.089	1.064420	0.044151	0.043808	110.488	25840.4	0.040944	0.066491	1661.69	91556.8
292	2.000000	1.074708	7.36792e+06	-53239.1	955.819	-29747.2	0.000000	0.000000	7.081479	165.655	NaN	0.000000	0.001499	0.001684	28.0811	57.0292	0.001864	30587.6	3.268303	175.585	163.568	1.074557	0.054096	0.053945	165.655	30587.6	0.050034	0.092518	1790.51	91876.7
292	2.000000	1.084755	7.36792e+06	-53239.1	955.819	-29747.2	0.000000	0.000000	7.093762	220.024	NaN	0.000000	0.001568	0.001665	28.0799	67.524	0.001950	34622.9	5.474393	172.485	219.439	1.084590	0.064143	0.063978	220.024	34622.9	0.059377	0.123582	1780.38	89982.6
292	2.000000	1.094751	7.36792e+06	-53239.1	955.818	-29747.2	0.000000	0.000000	7.106297	281.75	NaN	0.000000	0.001634	0.001674	28.0796	74.9601	0.001814	41327.4	5.915978	171.554	281.561	1.094394	0.074139	0.073781	281.75	41327.4	0.069025	0.160146	1759.33	94352.6
292	2.000000	1.104749	7.36792e+06	-53239.1	955.818	-29747.2	0.000000	0.000000	7.119065	349.111	NaN	0.000000	0.001630	0.001663	28.0796	84.4683	0.001769	47742.9	2.757175	173.17	351.29	1.104409	0.084136	0.083797	349.111	47742.9	0.078652	0.201054	1736.4	97280.4
292	2.000000	1.114799	7.36792e+06	-53239.1	955.819	-29747.2	0.000000	0.000000	7.131768	413.591	NaN	0.000000	0.001597	0.001676	28.0804	94.5929	0.001793	52765.9	4.959172	170.3	417.445	1.114389	0.094187	0.093777	413.591	52765.9	0.088308	0.246437	1678.28	97112.2
292	2.000000	1.124724	7.36792e+06	-53239.1	955.82	-29747.2	0.000000	0.000000	7.145142	497.463	NaN	0.000000	0.001628	0.001674	28.0809	104.396	0.001884	55404.2	7.076668	168.322	496.636	1.124284	0.104111	0.103671	497.463	55404.2	0.097377	0.292964	1698.03	93520.8
292	2.000000	1.130574	7.36792e+06	-53239.1	955.819	-29747.2	0.000000	0.000000	7.153388	555.702	NaN	0.000000	0.001634	0.001683	28.0809	108.542	0.001818	59688	5.149723	169.775	548.157	1.130277	0.109962	0.109665	555.702	59688	0.102980	0.323580	1717.35	95867