Folder: unikorn_login/remote_trans/data/nanoindenter/0828-1/data/Data_2025-08-06,11h17m57s (part 110)

File: 2025-07-22_16-23-58_1_237.txt
2025-07-22, 16:23:58, 1
Index	Phase	Displacement	Time	Pos X	Pos Y	Pos Z	Rot A	Rot B	Piezo Z	Force A	Force B	Gripper	Voltage A	Voltage B	Temperature	Amplitude force	Amplitude pos	Stiffness	Phase shift	Phase excitation	Force A raw	Displacement raw	HMax	HMax raw	Real Force	Real Stiffness	Contact Depth	Area	Hardness	Reduced Mod.
[#]	[#]	[um]	[s]	[um]	[um]	[um]	[m°]	[m°]	[um]	[uN]	[uN]	[V]	[V]	[V]	[°C]	[uN]	[um]	[N/m]	[°]	[°]	[uN]	[um]	[um]	[um]	[uN]	[N/m]	[um]	[um^2]	[MPa]	[MPa]
237	1.000000	0.002207	7.36736e+06	-50489.1	955.818	-29755.6	0.000000	0.000000	6.002788	-0.042096	NaN	0.000000	0.001571	0.001702	28.0788	0.084268	0.001014	83.1281	-70.1072	-164.715	-0.053178	0.000926	-1.252307	-1.253588	-0.042096	83.1281	-1.251927	-5.441247E+16	7.736445E-19	NaN
237	1.000000	0.048172	7.36736e+06	-50489.1	955.818	-29755.6	0.000000	0.000000	6.048753	-0.042532	NaN	0.000000	0.001569	0.001668	28.0785	0.019735	0.001923	10.2628	-177.191	15.1051	0.082601	0.046786	-1.206342	-1.207728	-0.042532	10.2628	-1.203234	-1.213521E+16	3.504884E-18	NaN
237	1.000000	0.094191	7.36736e+06	-50489.1	955.819	-29755.6	0.000000	0.000000	6.094774	0.010819	NaN	0.000000	0.001571	0.001661	28.0786	0.058135	0.001962	29.6258	-117.384	-164.575	0.066947	0.092871	-1.160323	-1.161643	0.010819	29.6258	-1.160597	-3.257389E+15	-3.321399E-18	NaN
237	1.000000	0.140188	7.36736e+06	-50489.1	955.818	-29755.7	0.000000	0.000000	6.140771	0.021215	NaN	0.000000	0.001537	0.001673	28.0797	0.020616	0.001897	10.8665	97.9027	13.1916	0.055198	0.138845	-1.114326	-1.115669	0.021215	10.8665	-1.115791	-8.165691E+14	-2.598014E-17	NaN
237	1.000000	0.186210	7.36736e+06	-50489.1	955.819	-29755.7	0.000000	0.000000	6.186789	-0.081922	NaN	0.000000	0.001540	0.001658	28.0797	0.057110	0.001984	28.7883	-32.9444	-165.698	0.039852	0.184972	-1.068304	-1.069542	-0.081922	28.7883	-1.066170	-1.760859E+14	4.652402E-16	NaN
237	1.000000	0.232236	7.36736e+06	-50489.1	955.818	-29755.7	0.000000	0.000000	6.232817	-0.039814	NaN	0.000000	0.001551	0.001628	28.0795	0.046175	0.002082	22.1768	-24.1621	12.8872	-0.028481	0.230863	-1.022278	-1.023651	-0.039814	22.1768	-1.020931	-4.339917E+13	9.173863E-16	NaN
237	1.000000	0.278250	7.36736e+06	-50489.1	955.818	-29755.7	0.000000	0.000000	6.278830	-0.037232	NaN	0.000000	0.001653	0.001617	28.0785	0.042112	0.001923	21.9047	-128.282	-169.432	-0.009903	0.276948	-0.976264	-0.977566	-0.037232	21.9047	-0.974990	-1.044485E+13	3.564594E-15	NaN
237	1.000000	0.324294	7.36736e+06	-50489.1	955.819	-29755.7	0.000000	0.000000	6.324875	-0.031828	NaN	0.000000	0.001583	0.001626	28.0787	0.123904	0.002128	58.2272	43.038	16.8644	-0.069747	0.322900	-0.930220	-0.931614	-0.031828	58.2272	-0.929810	-2.568202E+12	1.239308E-14	NaN
237	1.000000	0.370315	7.36737e+06	-50489.1	955.818	-29755.7	0.000000	0.000000	6.370897	0.013899	NaN	0.000000	0.001584	0.001631	28.0787	0.050132	0.001950	25.7051	-53.3719	-167.814	0.042001	0.369021	-0.884199	-0.885493	0.013899	25.7051	-0.884605	-6.294734E+11	-2.208002E-14	NaN
237	1.000000	0.416349	7.36737e+06	-50489.1	955.819	-29755.7	0.000000	0.000000	6.416928	-0.094382	NaN	0.000000	0.001571	0.001659	28.0798	0.115027	0.002069	55.5974	-36.6822	14.3793	-0.027661	0.414988	-0.838165	-0.839526	-0.094382	55.5974	-0.836892	-1.422913E+11	6.633032E-13	NaN
237	1.000000	0.462324	7.36737e+06	-50489.1	955.818	-29755.7	0.000000	0.000000	6.462906	0.004041	NaN	0.000000	0.001554	0.001647	28.0797	0.112999	0.002093	53.9834	145.767	-166.672	0.012197	0.461096	-0.792190	-0.793418	0.004041	53.9834	-0.792246	-3.528489E+10	-1.145331E-13	NaN
237	1.000000	0.508335	7.36737e+06	-50489.1	955.819	-29755.7	0.000000	0.000000	6.508920	0.049678	NaN	0.000000	0.001565	0.001670	28.0802	0.053018	0.002096	25.2935	118.156	11.1082	0.176024	0.507030	-0.746179	-0.747484	0.049678	25.2935	-0.747652	-8.734746E+9	-5.687376E-12	NaN
237	1.000000	0.554375	7.36737e+06	-50489.1	955.818	-29755.7	0.000000	0.000000	6.554958	0.020140	NaN	0.000000	0.001572	0.001660	28.0789	0.073597	0.001874	39.2803	105.723	-167.845	0.015134	0.553104	-0.700139	-0.701410	0.020140	39.2803	-0.700524	-1.989220E+9	-1.012458E-11	NaN
237	1.000000	0.600391	7.36737e+06	-50489.1	955.818	-29755.7	0.000000	0.000000	6.600970	-0.071422	NaN	0.000000	0.001600	0.001658	28.079	0.026484	0.001888	14.0257	18.7293	15.0795	-0.046554	0.599065	-0.654123	-0.655449	-0.071422	14.0257	-0.650304	-4.088891E+8	1.746731E-10	NaN
237	1.000000	0.646395	7.36737e+06	-50489.1	955.818	-29755.7	0.000000	0.000000	6.646976	-0.031231	NaN	0.000000	0.001568	0.001615	28.0792	0.052307	0.001948	26.8518	-55.5672	-163.613	-0.031756	0.645168	-0.608119	-0.609346	-0.031231	26.8518	-0.607247	-1.047691E+8	2.980910E-10	NaN
237	1.000000	0.692430	7.36737e+06	-50489.1	955.819	-29755.7	0.000000	0.000000	6.693011	-0.029028	NaN	0.000000	0.001610	0.001641	28.0803	0.079993	0.001969	40.6264	-108.739	10.6876	0.027837	0.691071	-0.562084	-0.563443	-0.029028	40.6264	-0.561548	-2.453513E+7	1.183126E-9	NaN
237	1.000000	0.738457	7.36737e+06	-50489.1	955.817	-29755.7	0.000000	0.000000	6.739038	-0.019006	NaN	0.000000	0.001573	0.001651	28.0801	0.045972	0.001973	23.2983	-103.2	-163.696	0.013825	0.737177	-0.516057	-0.517337	-0.019006	23.2983	-0.515446	-5.62646e+06	3.378003E-9	NaN
237	1.000000	0.784481	7.36737e+06	-50489.1	955.818	-29755.7	0.000000	0.000000	6.785060	-0.080660	NaN	0.000000	0.001534	0.001610	28.0805	0.060111	0.002068	29.0704	5.635852	18.3517	-0.079162	0.783100	-0.470033	-0.471414	-0.080660	29.0704	-0.467952	-1.2209e+06	6.606586E-8	NaN
237	1.000000	0.830486	7.36737e+06	-50489.1	955.819	-29755.7	0.000000	0.000000	6.831066	-0.038145	NaN	0.000000	0.001548	0.001622	28.0791	0.083157	0.001940	42.8595	113.882	-167.658	-0.031680	0.829260	-0.424028	-0.425254	-0.038145	42.8595	-0.423361	-287117	1.328550E-7	NaN
237	1.000000	0.876522	7.36737e+06	-50489.1	955.819	-29755.7	0.000000	0.000000	6.877101	-0.071840	NaN	0.000000	0.001541	0.001641	28.0791	0.044567	0.002086	21.3685	-71.7425	17.742	-0.027936	0.875179	-0.377992	-0.379335	-0.071840	21.3685	-0.375471	-59543.8	1.206508E-6	NaN
237	1.000000	0.922526	7.36737e+06	-50489.1	955.82	-29755.7	0.000000	0.000000	6.923112	0.068316	NaN	0.000000	0.001550	0.001594	28.0794	0.045324	0.002061	21.9943	-97.1162	-163.75	0.009772	0.921249	-0.331988	-0.333265	0.068316	21.9943	-0.334317	-15087.2	-4.528070E-6	NaN
237	1.000000	0.968541	7.36737e+06	-50489.1	955.818	-29755.7	0.000000	0.000000	6.969125	0.023088	NaN	0.000000	0.001531	0.001652	28.0805	0.079784	0.002021	39.4689	131.891	15.2358	0.020127	0.967229	-0.285973	-0.287285	0.023088	39.4689	-0.286411	-2947.62	-7.832658E-6	NaN
237	1.000000	1.014571	7.36737e+06	-50489.1	955.819	-29755.7	0.000000	0.000000	7.015151	-0.064142	NaN	0.000000	0.001596	0.001639	28.0807	0.081020	0.001850	43.8045	-120.173	-166.078	-0.142043	1.013220	-0.239943	-0.241294	-0.064142	43.8045	-0.238845	-551.44	0.000116	NaN
237	1.000000	1.060594	7.36737e+06	-50489.1	955.818	-29755.7	0.000000	0.000000	7.061172	-0.111874	NaN	0.000000	0.001537	0.001653	28.0803	0.014633	0.001981	7.385005	-93.8932	15.4835	-0.185934	1.059212	-0.193920	-0.195302	-0.111874	7.385005	-0.182558	-67.4353	0.001659	NaN
237	1.000000	1.106614	7.36737e+06	-50489.1	955.819	-29755.7	0.000000	0.000000	7.107196	-0.009979	NaN	0.000000	0.001560	0.001672	28.0791	0.075785	0.002019	37.5305	162.809	-165.575	-0.106038	1.105283	-0.147900	-0.149231	-0.009979	37.5305	-0.147701	-16.4411	0.000607	NaN
237	1.000000	1.152626	7.36737e+06	-50489.1	955.819	-29755.7	0.000000	0.000000	7.153209	0.006440	NaN	0.000000	0.001561	0.001669	28.0791	0.126328	0.002090	60.4413	89.5734	12.2753	0.054974	1.151248	-0.101888	-0.103266	0.006440	60.4413	-0.101968	-2.019118	-0.003190	NaN
237	1.000000	1.198658	7.36737e+06	-50489.1	955.819	-29755.7	0.000000	0.000000	7.199241	0.011809	NaN	0.000000	0.001521	0.001625	28.0791	0.093143	0.002112	44.0939	29.6802	-165.851	-0.053422	1.197349	-0.055856	-0.057165	0.011809	44.0939	-0.056057	-0.138350	-0.085356	NaN
237	1.000000	1.244676	7.36737e+06	-50489.1	955.819	-29755.7	0.000000	0.000000	7.245256	-0.071415	NaN	0.000000	0.001593	0.001624	28.0801	0.045904	0.001938	23.6886	-43.1048	13.7764	-0.039565	1.243293	-0.009838	-0.011221	-0.071415	23.6886	-0.007577	-0.004983	14.3326	NaN
237	2.000000	1.271110	7.36737e+06	-50489.1	955.82	-29755.7	0.000000	0.000000	7.272604	22.1782	NaN	0.000000	0.001558	0.001609	28.0802	16.8083	0.001676	10027.8	6.250192	-178.412	20.8218	1.270774	0.016596	0.016260	22.1782	10027.8	0.014937	0.015202	1458.93	74307.6
237	2.000000	1.282573	7.36737e+06	-50489.1	955.819	-29755.7	0.000000	0.000000	7.285405	54.699	NaN	0.000000	0.001563	0.001665	28.0804	29.3264	0.001812	16187.3	0.865658	3.908303	52.225	1.282216	0.028059	0.027702	54.699	16187.3	0.025525	0.031978	1710.53	82703.1
237	2.000000	1.294045	7.36737e+06	-50489.1	955.819	-29755.7	0.000000	0.000000	7.298471	93.4757	NaN	0.000000	0.001555	0.001651	28.0792	40.5684	0.001827	22199.8	7.555889	175.034	93.164	1.293753	0.039531	0.039239	93.4757	22199.8	0.036373	0.054990	1699.85	86492.7
237	2.000000	1.305543	7.36737e+06	-50489.1	955.819	-29755.7	0.000000	0.000000	7.312179	147.225	NaN	0.000000	0.001557	0.001704	28.0791	51.9932	0.001812	28692.5	7.752354	-7.655517	146.478	1.305149	0.051029	0.050635	147.225	28692.5	0.047181	0.083898	1754.81	90503.4
237	2.000000	1.316929	7.36737e+06	-50489.1	955.819	-29755.7	0.000000	0.000000	7.326042	207.438	NaN	0.000000	0.001570	0.001646	28.0791	63.1967	0.001815	34812.2	5.414945	173.539	203.703	1.316781	0.062415	0.062267	207.438	34812.2	0.057946	0.118546	1749.86	92376.5
237	2.000000	1.328472	7.36737e+06	-50489.1	955.818	-29755.7	0.000000	0.000000	7.340645	281.854	NaN	0.000000	0.001580	0.001638	28.0808	74.7479	0.001771	42200.4	3.647853	-5.962029	279.723	1.328300	0.073958	0.073786	281.854	42200.4	0.068949	0.159840	1763.35	96437.8
237	2.000000	1.339967	7.36737e+06	-50489.1	955.82	-29755.7	0.000000	0.000000	7.355578	365.47	NaN	0.000000	0.001644	0.001636	28.0805	84.5316	0.001796	47053.9	6.745134	169.677	364.503	1.339601	0.085453	0.085087	365.47	47053.9	0.079628	0.205441	1778.95	94847.3
237	2.000000	1.351397	7.36737e+06	-50489.1	955.818	-29755.7	0.000000	0.000000	7.370830	458.403	NaN	0.000000	0.001614	0.001631	28.0803	92.8753	0.001682	55214.9	2.854221	-6.723673	450.513	1.351119	0.096883	0.096605	458.403	55214.9	0.090657	0.258122	1775.91	99292.6
237	2.000000	1.362832	7.36737e+06	-50489.1	955.82	-29755.7	0.000000	0.000000	7.386365	558.127	NaN	0.000000	0.001588	0.001658	28.0793	104.465	0.001768	59077.4	4.031947	171.109	549.924	1.362582	0.108318	0.108068	558.127	59077.4	0.101232	0.313877	1778.17	96341.7

File: 2025-07-22_16-23-58_1_238.txt
2025-07-22, 16:23:58, 1
Index	Phase	Displacement	Time	Pos X	Pos Y	Pos Z	Rot A	Rot B	Piezo Z	Force A	Force B	Gripper	Voltage A	Voltage B	Temperature	Amplitude force	Amplitude pos	Stiffness	Phase shift	Phase excitation	Force A raw	Displacement raw	HMax	HMax raw	Real Force	Real Stiffness	Contact Depth	Area	Hardness	Reduced Mod.
[#]	[#]	[um]	[s]	[um]	[um]	[um]	[m°]	[m°]	[um]	[uN]	[uN]	[V]	[V]	[V]	[°C]	[uN]	[um]	[N/m]	[°]	[°]	[uN]	[um]	[um]	[um]	[uN]	[N/m]	[um]	[um^2]	[MPa]	[MPa]
238	1.000000	0.002309	7.36737e+06	-50539.1	955.819	-29755.7	0.000000	0.000000	6.002835	-0.010324	NaN	0.000000	0.001520	0.001666	28.0807	0.057596	0.000935	61.5696	133.782	-169.167	0.006646	0.001021	-1.071609	-1.072897	-0.010324	61.5696	-1.071483	-2.075453E+14	4.974158E-17	NaN
238	1.000000	0.042264	7.36737e+06	-50539.1	955.819	-29755.7	0.000000	0.000000	6.042792	0.028266	NaN	0.000000	0.001578	0.001599	28.0806	0.067254	0.001924	34.9549	-86.274	-162.442	-0.020977	0.040943	-1.031653	-1.032974	0.028266	34.9549	-1.032260	-6.164205E+13	-4.585467E-16	NaN
238	1.000000	0.082260	7.36737e+06	-50539.1	955.818	-29755.7	0.000000	0.000000	6.082785	-0.040636	NaN	0.000000	0.001571	0.001605	28.0791	0.058685	0.002073	28.3119	-163.706	-165.659	-0.085890	0.080942	-0.991658	-0.992975	-0.040636	28.3119	-0.990581	-1.694116E+13	2.398671E-15	NaN
238	1.000000	0.122240	7.36737e+06	-50539.1	955.818	-29755.7	0.000000	0.000000	6.122769	0.048546	NaN	0.000000	0.001574	0.001620	28.0789	0.156898	0.002018	77.7333	-54.1216	-162.44	0.056847	0.120961	-0.951678	-0.952957	0.048546	77.7333	-0.952146	-5.140067E+12	-9.444657E-15	NaN
238	1.000000	0.162256	7.36737e+06	-50539.1	955.818	-29755.7	0.000000	0.000000	6.162783	0.008743	NaN	0.000000	0.001580	0.001593	28.0787	0.066419	0.001840	36.1003	178.489	-164.941	-0.007205	0.160954	-0.911661	-0.912964	0.008743	36.1003	-0.911843	-1.469108E+12	-5.951477E-15	NaN
238	1.000000	0.202314	7.36737e+06	-50539.1	955.818	-29755.7	0.000000	0.000000	6.202843	0.043981	NaN	0.000000	0.001578	0.001599	28.08	0.045723	0.001964	23.277	-168.892	-169.102	0.064500	0.200943	-0.871604	-0.872975	0.043981	23.277	-0.873021	-4.388421E+11	-1.002211E-13	NaN
238	1.000000	0.242274	7.36738e+06	-50539.1	955.818	-29755.7	0.000000	0.000000	6.242803	0.061322	NaN	0.000000	0.001563	0.001657	28.0798	0.110128	0.001916	57.4733	-118.114	-165.493	-0.042678	0.241017	-0.831643	-0.832901	0.061322	57.4733	-0.832444	-1.238522E+11	-4.951191E-13	NaN
238	1.000000	0.282305	7.36738e+06	-50539.1	955.818	-29755.7	0.000000	0.000000	6.282832	0.010149	NaN	0.000000	0.001572	0.001608	28.0798	0.067912	0.001992	34.0903	-139.783	-166.904	0.028695	0.281004	-0.791612	-0.792913	0.010149	34.0903	-0.791836	-3.483488E+10	-2.913566E-13	NaN
238	1.000000	0.322347	7.36738e+06	-50539.1	955.819	-29755.7	0.000000	0.000000	6.322873	-0.018253	NaN	0.000000	0.001524	0.001593	28.0796	0.070351	0.002193	32.0748	-153.89	-163.69	0.067331	0.321008	-0.751570	-0.752909	-0.018253	32.0748	-0.751144	-9.745108E+9	1.873026E-12	NaN
238	1.000000	0.362363	7.36738e+06	-50539.1	955.818	-29755.7	0.000000	0.000000	6.362890	-0.010161	NaN	0.000000	0.001573	0.001609	28.0783	0.034830	0.001955	17.8191	38.4512	-166.007	-0.046955	0.361030	-0.711554	-0.712888	-0.010161	17.8191	-0.711127	-2.776018E+9	3.660336E-12	NaN
238	1.000000	0.402381	7.36738e+06	-50539.1	955.819	-29755.7	0.000000	0.000000	6.402906	-0.041685	NaN	0.000000	0.001586	0.001600	28.0785	0.066874	0.002051	32.6129	-142.422	-167.425	-0.063378	0.400993	-0.671536	-0.672925	-0.041685	32.6129	-0.670578	-7.749951E+8	5.378730E-11	NaN
238	1.000000	0.442376	7.36738e+06	-50539.1	955.817	-29755.7	0.000000	0.000000	6.442905	0.052908	NaN	0.000000	0.001647	0.001625	28.0786	0.126158	0.001870	67.4768	70.6525	-166.716	0.075963	0.441089	-0.631542	-0.632829	0.052908	67.4768	-0.632130	-2.302871E+8	-2.297463E-10	NaN
238	1.000000	0.482407	7.36738e+06	-50539.1	955.818	-29755.7	0.000000	0.000000	6.482934	-0.011418	NaN	0.000000	0.001533	0.001594	28.0797	0.084853	0.001935	43.856	-152.327	-162.501	0.009364	0.481149	-0.591510	-0.592769	-0.011418	43.856	-0.591315	-6.321119E+7	1.806368E-10	NaN
238	1.000000	0.522449	7.36738e+06	-50539.1	955.818	-29755.7	0.000000	0.000000	6.522974	-0.021307	NaN	0.000000	0.001586	0.001613	28.0794	0.102238	0.002080	49.1514	38.9441	-164.734	-0.021906	0.521157	-0.551469	-0.552761	-0.021307	49.1514	-0.551144	-1.761167E+7	1.209812E-9	NaN
238	1.000000	0.562452	7.36738e+06	-50539.1	955.819	-29755.7	0.000000	0.000000	6.562979	0.016892	NaN	0.000000	0.001555	0.001585	28.0794	0.030801	0.001919	16.0528	43.2397	-166.765	-0.056343	0.561142	-0.511466	-0.512775	0.016892	16.0528	-0.512255	-5.07948e+06	-3.325458E-9	NaN
238	1.000000	0.602460	7.36738e+06	-50539.1	955.819	-29755.7	0.000000	0.000000	6.602986	-0.011294	NaN	0.000000	0.001590	0.001632	28.0796	0.031505	0.002114	14.901	145.199	-167.527	0.032303	0.601146	-0.471458	-0.472772	-0.011294	14.901	-0.470890	-1.3424e+06	8.412945E-9	NaN
238	1.000000	0.642452	7.36738e+06	-50539.1	955.819	-29755.7	0.000000	0.000000	6.642978	-0.033652	NaN	0.000000	0.001559	0.001617	28.0782	0.065713	0.002150	30.5672	-177.36	-162.466	-0.091785	0.641212	-0.431465	-0.432705	-0.033652	30.5672	-0.430640	-364006	9.244916E-8	NaN
238	1.000000	0.682510	7.36738e+06	-50539.1	955.819	-29755.7	0.000000	0.000000	6.683035	-0.050707	NaN	0.000000	0.001565	0.001668	28.0781	0.056803	0.001985	28.6107	177.252	-165.203	-0.065736	0.681207	-0.391408	-0.392710	-0.050707	28.6107	-0.390078	-96447	5.257490E-7	NaN
238	1.000000	0.722532	7.36738e+06	-50539.1	955.819	-29755.7	0.000000	0.000000	6.723059	-0.002064	NaN	0.000000	0.001543	0.001612	28.0783	0.043467	0.001996	21.7751	2.031228	-164.523	0.097294	0.721240	-0.351385	-0.352677	-0.002064	21.7751	-0.351314	-26673	7.738051E-8	NaN
238	1.000000	0.762514	7.36738e+06	-50539.1	955.818	-29755.7	0.000000	0.000000	6.763042	0.037988	NaN	0.000000	0.001550	0.001621	28.0796	0.081269	0.002031	40.0066	-17.7389	-162.617	-0.019659	0.761209	-0.311403	-0.312708	0.037988	40.0066	-0.312115	-7117.78	-5.337062E-6	NaN
238	1.000000	0.802547	7.36738e+06	-50539.1	955.818	-29755.7	0.000000	0.000000	6.803075	0.023768	NaN	0.000000	0.001582	0.001632	28.0797	0.048401	0.001929	25.0853	176.874	-162.73	0.055170	0.801260	-0.271371	-0.272658	0.023768	25.0853	-0.272081	-1791.25	-1.326916E-5	NaN
238	1.000000	0.842534	7.36738e+06	-50539.1	955.818	-29755.7	0.000000	0.000000	6.843062	0.027217	NaN	0.000000	0.001541	0.001611	28.0797	0.087021	0.002023	43.0128	129.955	-166.176	-0.036322	0.841284	-0.231384	-0.232634	0.027217	43.0128	-0.231858	-428.379	-6.353404E-5	NaN
238	1.000000	0.882587	7.36738e+06	-50539.1	955.818	-29755.7	0.000000	0.000000	6.883111	-0.062797	NaN	0.000000	0.001546	0.001639	28.0787	0.051087	0.002162	23.6334	25.5824	-167.953	-0.088930	0.881302	-0.191330	-0.192615	-0.062797	23.6334	-0.189338	-87.6909	0.000716	NaN
238	1.000000	0.922594	7.36738e+06	-50539.1	955.818	-29755.7	0.000000	0.000000	6.923123	0.059990	NaN	0.000000	0.001618	0.001634	28.0784	0.091247	0.001873	48.72	96.107	-166.308	0.050223	0.921291	-0.151323	-0.152627	0.059990	48.72	-0.152247	-19.9002	-0.003015	NaN
238	1.000000	0.962614	7.36738e+06	-50539.1	955.818	-29755.7	0.000000	0.000000	6.963143	0.048464	NaN	0.000000	0.001641	0.001617	28.0784	0.097930	0.001962	49.9039	25.2883	-162.505	-0.009132	0.961283	-0.111304	-0.112634	0.048464	49.9039	-0.112032	-3.315258	-0.014618	NaN
238	1.000000	1.002630	7.36738e+06	-50539.1	955.819	-29755.7	0.000000	0.000000	7.003154	-0.060782	NaN	0.000000	0.001549	0.001670	28.0785	0.087958	0.002144	41.027	-7.950898	-167.548	-0.026266	1.001262	-0.071288	-0.072656	-0.060782	41.027	-0.070176	-0.344837	0.176263	NaN
238	1.000000	1.042634	7.36738e+06	-50539.1	955.818	-29755.7	0.000000	0.000000	7.043162	0.040607	NaN	0.000000	0.001559	0.001644	28.0796	0.075664	0.001889	40.0473	165.45	-165.879	-0.031848	1.041367	-0.031284	-0.032551	0.040607	40.0473	-0.032044	-0.026282	-1.545010	NaN
238	2.000000	1.081179	7.36738e+06	-50539.1	955.818	-29755.7	0.000000	0.000000	7.082161	11.063	NaN	0.000000	0.001565	0.001636	28.0796	10.2338	0.001541	6640.99	5.299631	-171.757	10.7315	1.080772	0.007261	0.006855	11.063	6640.99	0.006012	0.005076	2179.45	85161.4
238	2.000000	1.091126	7.36738e+06	-50539.1	955.819	-29755.7	0.000000	0.000000	7.092789	27.6363	NaN	0.000000	0.001608	0.001645	28.0797	22.4437	0.001824	12305.2	8.127011	-179.625	26.6546	1.090877	0.017208	0.016959	27.6363	12305.2	0.015524	0.015990	1728.31	88906
238	2.000000	1.101125	7.36738e+06	-50539.1	955.819	-29755.7	0.000000	0.000000	7.103961	56.1529	NaN	0.000000	0.001528	0.001645	28.0784	33.7451	0.001884	17912.9	8.630859	177.478	56.5648	1.100780	0.027207	0.026863	56.1529	17912.9	0.024856	0.030755	1825.82	93321.7
238	2.000000	1.111071	7.36738e+06	-50539.1	955.82	-29755.7	0.000000	0.000000	7.114961	81.7969	NaN	0.000000	0.001546	0.001660	28.0787	43.3059	0.001848	23436.2	5.657897	177.684	81.4981	1.110793	0.037153	0.036875	81.7969	23436.2	0.034535	0.050670	1614.32	95123.2
238	2.000000	1.120968	7.36738e+06	-50539.1	955.819	-29755.7	0.000000	0.000000	7.127169	137.986	NaN	0.000000	0.001545	0.001627	28.0786	53.3626	0.001783	29924.3	4.536022	176.391	133.905	1.120816	0.047051	0.046899	137.986	29924.3	0.043592	0.073641	1873.76	100748
238	2.000000	1.130997	7.36738e+06	-50539.1	955.821	-29755.7	0.000000	0.000000	7.139806	201.408	NaN	0.000000	0.001574	0.001634	28.0786	62.9467	0.001786	35238.6	2.748545	177.363	199.247	1.130737	0.057080	0.056819	201.408	35238.6	0.052793	0.101241	1989.38	101184
238	2.000000	1.141017	7.36738e+06	-50539.1	955.82	-29755.7	0.000000	0.000000	7.152999	278.58	NaN	0.000000	0.001621	0.001623	28.0798	74.8442	0.001900	39384.8	6.783683	172.55	276.315	1.140598	0.067099	0.066680	278.58	39384.8	0.061794	0.132320	2105.35	98921.2
238	2.000000	1.151064	7.36738e+06	-50539.1	955.82	-29755.7	0.000000	0.000000	7.166821	370.363	NaN	0.000000	0.001630	0.001635	28.0797	84.4798	0.001794	47097.4	8.185793	170.113	373.553	1.150603	0.077146	0.076686	370.363	47097.4	0.071249	0.169204	2188.86	104608
238	2.000000	1.160995	7.36738e+06	-50539.1	955.82	-29755.7	0.000000	0.000000	7.180458	460.516	NaN	0.000000	0.001618	0.001674	28.0796	93.8174	0.001817	51639.1	5.535832	171.334	457.726	1.160672	0.087077	0.086755	460.516	51639.1	0.080388	0.208895	2204.53	103226
238	2.000000	1.171023	7.36738e+06	-50539.1	955.82	-29755.7	0.000000	0.000000	7.194918	568.263	NaN	0.000000	0.001545	0.001652	28.0786	103.142	0.001733	59525.4	5.704202	170.162	566.874	1.170735	0.097106	0.096817	568.263	59525.4	0.089946	0.254557	2232.36	107791
238	2.000000	1.178910	7.36738e+06	-50539.1	955.819	-29755.7	0.000000	0.000000	7.206705	663.112	NaN	0.000000	0.001610	0.001605	28.0787	109.731	0.001615	67961.9	3.881920	171.459	657.249	1.178640	0.104992	0.104722	663.112	67961.9	0.097675	0.294553	2251.25	114408