Folder: unikorn_login/remote_trans/data/nanoindenter/0828-1/data/Data_2025-08-06,11h17m57s (part 27)

File: 2025-07-22_16-23-58_1_52.txt
2025-07-22, 16:23:58, 1
Index	Phase	Displacement	Time	Pos X	Pos Y	Pos Z	Rot A	Rot B	Piezo Z	Force A	Force B	Gripper	Voltage A	Voltage B	Temperature	Amplitude force	Amplitude pos	Stiffness	Phase shift	Phase excitation	Force A raw	Displacement raw	HMax	HMax raw	Real Force	Real Stiffness	Contact Depth	Area	Hardness	Reduced Mod.
[#]	[#]	[um]	[s]	[um]	[um]	[um]	[m°]	[m°]	[um]	[uN]	[uN]	[V]	[V]	[V]	[°C]	[uN]	[um]	[N/m]	[°]	[°]	[uN]	[um]	[um]	[um]	[uN]	[N/m]	[um]	[um^2]	[MPa]	[MPa]
52	1.000000	0.002741	7.36555e+06	-41239.1	955.819	-29787.6	0.000000	0.000000	6.002822	0.019630	NaN	0.000000	0.001614	0.001656	28.131	0.137404	0.001050	130.864	-163.062	-161.416	0.005395	0.001460	-1.006073	-1.007353	0.019630	130.864	-1.006186	-2.748148E+13	-7.143082E-16	NaN
52	1.000000	0.040698	7.36555e+06	-41239.1	955.818	-29787.6	0.000000	0.000000	6.040778	-0.016389	NaN	0.000000	0.001632	0.001710	28.0955	0.054580	0.001954	27.9258	145.249	15.7101	-0.038275	0.039341	-0.968116	-0.969473	-0.016389	27.9258	-0.967676	-8.324049E+12	1.968876E-15	NaN
52	1.000000	0.078706	7.36555e+06	-41239.1	955.818	-29787.6	0.000000	0.000000	6.078786	-0.008839	NaN	0.000000	0.001597	0.001684	28.0804	0.034687	0.001956	17.7315	-80.0706	-165.059	-0.052389	0.077397	-0.930108	-0.931417	-0.008839	17.7315	-0.929734	-2.562171E+12	3.449914E-15	NaN
52	1.000000	0.116675	7.36555e+06	-41239.1	955.818	-29787.6	0.000000	0.000000	6.116754	-0.020868	NaN	0.000000	0.001626	0.001689	28.0979	0.056972	0.001889	30.1566	-67.8512	14.3631	-0.041873	0.115402	-0.892139	-0.893412	-0.020868	30.1566	-0.891620	-7.830920E+11	2.664758E-14	NaN
52	1.000000	0.154700	7.36555e+06	-41239.1	955.818	-29787.6	0.000000	0.000000	6.154779	-0.041516	NaN	0.000000	0.001657	0.001708	28.1298	0.081329	0.001942	41.8854	-75.0114	-164.899	0.036228	0.153431	-0.854113	-0.855382	-0.041516	41.8854	-0.853370	-2.378859E+11	1.745197E-13	NaN
52	1.000000	0.192732	7.36555e+06	-41239.1	955.817	-29787.6	0.000000	0.000000	6.192812	-0.001017	NaN	0.000000	0.001661	0.001649	28.0971	0.044799	0.002005	22.3463	-21.9108	16.9491	-0.011475	0.191355	-0.816082	-0.817459	-0.001017	22.3463	-0.816048	-7.423497E+10	1.370546E-14	NaN
52	1.000000	0.230775	7.36555e+06	-41239.1	955.818	-29787.6	0.000000	0.000000	6.230856	0.014717	NaN	0.000000	0.001578	0.001683	28.079	0.046872	0.002038	23.004	29.5519	-163.24	0.015649	0.229446	-0.778039	-0.779368	0.014717	23.004	-0.778518	-2.296662E+10	-6.407948E-13	NaN
52	1.000000	0.268737	7.36555e+06	-41239.1	955.819	-29787.6	0.000000	0.000000	6.268818	0.003389	NaN	0.000000	0.001679	0.001672	28.0978	0.071874	0.001988	36.1627	-66.9458	16.8936	0.002843	0.267379	-0.740076	-0.741434	0.003389	36.1627	-0.740147	-6.903243E+9	-4.909229E-13	NaN
52	1.000000	0.306759	7.36555e+06	-41239.1	955.818	-29787.6	0.000000	0.000000	6.306842	0.063060	NaN	0.000000	0.001665	0.001661	28.1288	0.101725	0.001930	52.7075	171.984	-165.244	0.066871	0.305468	-0.702055	-0.703346	0.063060	52.7075	-0.702952	-2.147054E+9	-2.937070E-11	NaN
52	1.000000	0.344796	7.36555e+06	-41239.1	955.819	-29787.6	0.000000	0.000000	6.344876	-0.017233	NaN	0.000000	0.001680	0.001636	28.0956	0.039398	0.001995	19.7506	173.94	15.9162	0.017842	0.343457	-0.664017	-0.665357	-0.017233	19.7506	-0.663363	-6.173398E+8	2.791507E-11	NaN
52	1.000000	0.382828	7.36556e+06	-41239.1	955.819	-29787.6	0.000000	0.000000	6.382908	0.003033	NaN	0.000000	0.001615	0.001701	28.0791	0.111457	0.002010	55.4414	-0.688913	-165.08	-0.006736	0.381536	-0.625986	-0.627278	0.003033	55.4414	-0.626027	-1.898683E+8	-1.597461E-11	NaN
52	1.000000	0.420878	7.36556e+06	-41239.1	955.818	-29787.6	0.000000	0.000000	6.420960	0.033059	NaN	0.000000	0.001634	0.001710	28.0996	0.125664	0.002114	59.456	-120.575	14.7785	0.066700	0.419464	-0.587936	-0.589350	0.033059	59.456	-0.588353	-5.753829E+7	-5.745584E-10	NaN
52	1.000000	0.458840	7.36556e+06	-41239.1	955.818	-29787.6	0.000000	0.000000	6.458921	-0.000565	NaN	0.000000	0.001595	0.001706	28.1297	0.038485	0.001966	19.5797	120.018	-163.043	0.014670	0.457498	-0.549973	-0.551315	-0.000565	19.5797	-0.549952	-1.695453E+7	3.330474E-11	NaN
52	1.000000	0.496870	7.36556e+06	-41239.1	955.818	-29787.6	0.000000	0.000000	6.496951	0.010316	NaN	0.000000	0.001609	0.001691	28.0936	0.100818	0.001999	50.432	18.9575	16.3781	-0.002313	0.495501	-0.511943	-0.513312	0.010316	50.432	-0.512097	-5.05378e+06	-2.041194E-9	NaN
52	1.000000	0.534903	7.36556e+06	-41239.1	955.819	-29787.6	0.000000	0.000000	6.534983	-0.010500	NaN	0.000000	0.001587	0.001718	28.0781	0.041348	0.001930	21.4245	-97.4965	-164.125	0.000384	0.533561	-0.473910	-0.475252	-0.010500	21.4245	-0.473543	-1.46244e+06	7.179584E-9	NaN
52	1.000000	0.572899	7.36556e+06	-41239.1	955.818	-29787.6	0.000000	0.000000	6.572975	-0.103983	NaN	0.000000	0.001534	0.001668	28.0992	0.080510	0.002093	38.4744	-140.374	13.834	-0.154373	0.571508	-0.435915	-0.437306	-0.103983	38.4744	-0.433888	-404612	2.569951E-7	NaN
52	1.000000	0.610884	7.36556e+06	-41239.1	955.819	-29787.6	0.000000	0.000000	6.610966	0.031792	NaN	0.000000	0.001532	0.001623	28.1284	0.010957	0.002077	5.274872	-136.942	-165.424	-0.000387	0.609554	-0.397930	-0.399259	0.031792	5.274872	-0.402450	-144852	-2.194801E-7	NaN
52	1.000000	0.648923	7.36556e+06	-41239.1	955.818	-29787.6	0.000000	0.000000	6.649004	0.030418	NaN	0.000000	0.001507	0.001650	28.0953	0.029117	0.002080	13.996	-7.380987	15.3248	-0.014365	0.647575	-0.359891	-0.361239	0.030418	13.996	-0.361521	-37482.3	-8.115241E-7	NaN
52	1.000000	0.686935	7.36556e+06	-41239.1	955.819	-29787.6	0.000000	0.000000	6.687015	-0.015690	NaN	0.000000	0.001533	0.001673	28.0794	0.062219	0.002028	30.6749	-129.609	-165.907	-0.089647	0.685629	-0.321879	-0.323184	-0.015690	30.6749	-0.321495	-9786.72	1.603185E-6	NaN
52	1.000000	0.724926	7.36556e+06	-41239.1	955.818	-29787.6	0.000000	0.000000	6.725005	-0.048998	NaN	0.000000	0.001552	0.001697	28.1011	0.045741	0.002069	22.1096	172.569	13.0256	-0.088436	0.723569	-0.283887	-0.285245	-0.048998	22.1096	-0.282225	-2549.83	1.921637E-5	NaN
52	1.000000	0.762962	7.36556e+06	-41239.1	955.817	-29787.6	0.000000	0.000000	6.763043	0.016541	NaN	0.000000	0.001593	0.001660	28.1286	0.079162	0.002118	37.3744	111.124	-167.9	0.021542	0.761622	-0.245852	-0.247192	0.016541	37.3744	-0.246184	-717.527	-2.305214E-5	NaN
52	1.000000	0.800971	7.36556e+06	-41239.1	955.818	-29787.6	0.000000	0.000000	6.801051	-0.014529	NaN	0.000000	0.001574	0.001693	28.0916	0.050728	0.001900	26.7014	7.777117	13.7916	-0.041034	0.799627	-0.207843	-0.209187	-0.014529	26.7014	-0.207435	-174.26	8.337592E-5	NaN
52	1.000000	0.839021	7.36556e+06	-41239.1	955.819	-29787.6	0.000000	0.000000	6.839102	0.001044	NaN	0.000000	0.001547	0.001673	28.0789	0.051399	0.001963	26.1809	-167.549	-168.28	0.073684	0.837688	-0.169792	-0.171125	0.001044	26.1809	-0.169822	-40.7871	-2.559061E-5	NaN
52	1.000000	0.877027	7.36556e+06	-41239.1	955.818	-29787.6	0.000000	0.000000	6.877108	0.010664	NaN	0.000000	0.001609	0.001670	28.0995	0.113098	0.002000	56.5623	-35.739	13.8338	-0.015346	0.875593	-0.131786	-0.133221	0.010664	56.5623	-0.131928	-8.304763	-0.001284	NaN
52	1.000000	0.915040	7.36556e+06	-41239.1	955.818	-29787.6	0.000000	0.000000	6.915116	-0.094549	NaN	0.000000	0.001512	0.001702	28.131	0.050278	0.001879	26.7527	86.2623	-163.659	-0.003991	0.913764	-0.093774	-0.095049	-0.094549	26.7527	-0.091123	-1.148370	0.082333	NaN
52	1.000000	0.953047	7.36556e+06	-41239.1	955.818	-29787.6	0.000000	0.000000	6.953128	0.011424	NaN	0.000000	0.001582	0.001669	28.0931	0.050299	0.002015	24.9645	-69.2871	15.8353	0.017677	0.951706	-0.055767	-0.057107	0.011424	24.9645	-0.056110	-0.138849	-0.082277	NaN
52	1.000000	0.991058	7.36556e+06	-41239.1	955.819	-29787.6	0.000000	0.000000	6.991135	-0.082560	NaN	0.000000	0.001690	0.001644	28.081	0.092820	0.001990	46.6551	-150.659	-164.819	-0.048372	0.989786	-0.017756	-0.019027	-0.082560	46.6551	-0.016429	-0.010149	8.134441	NaN
52	2.000000	1.020224	7.36556e+06	-41239.1	955.819	-29787.6	0.000000	0.000000	7.020789	11.7849	NaN	0.000000	0.001645	0.001673	28.1012	12.2525	0.001832	6689.24	10.7447	3.665801	11.899	1.019859	0.011410	0.011046	11.7849	6689.24	0.010089	0.009281	1269.86	63440.1
52	2.000000	1.029680	7.36556e+06	-41239.1	955.818	-29787.6	0.000000	0.000000	7.030976	29.5732	NaN	0.000000	0.001617	0.001695	28.1289	20.4335	0.001786	11442.6	4.691166	-174.574	29.3393	1.029400	0.020866	0.020586	29.5732	11442.6	0.018928	0.020885	1415.99	72340.3
52	2.000000	1.039143	7.36556e+06	-41239.1	955.818	-29787.6	0.000000	0.000000	7.041386	52.6197	NaN	0.000000	0.001604	0.001678	28.0908	29.2477	0.001648	17745.6	8.714158	-1.788520	53.5206	1.038731	0.030329	0.029917	52.6197	17745.6	0.028105	0.036908	1425.71	84392.8
52	2.000000	1.048570	7.36556e+06	-41239.1	955.819	-29787.6	0.000000	0.000000	7.052036	82.3796	NaN	0.000000	0.001628	0.001662	28.0794	37.44	0.001796	20847.4	4.303218	179.86	80.1375	1.048235	0.039757	0.039422	82.3796	20847.4	0.036793	0.056003	1470.98	80485.6
52	2.000000	1.058034	7.36556e+06	-41239.1	955.818	-29787.6	0.000000	0.000000	7.063082	120.852	NaN	0.000000	0.001628	0.001717	28.1023	46.3278	0.001757	26373.9	4.067067	-1.815346	116.906	1.057728	0.049221	0.048914	120.852	26373.9	0.045784	0.079829	1513.9	85284.1
52	2.000000	1.067613	7.36556e+06	-41239.1	955.818	-29787.6	0.000000	0.000000	7.074730	171.214	NaN	0.000000	0.001604	0.001720	28.1298	56.1172	0.001808	31035	4.282787	177.074	171.72	1.067211	0.058799	0.058397	171.214	31035	0.054661	0.107364	1594.7	86535.8
52	2.000000	1.077040	7.36556e+06	-41239.1	955.819	-29787.6	0.000000	0.000000	7.086469	227.481	NaN	0.000000	0.001568	0.001675	28.0914	65.9355	0.001779	37066.7	6.104387	-6.372240	224.681	1.076636	0.068226	0.067822	227.481	37066.7	0.063623	0.139121	1635.13	90794.7
52	2.000000	1.086568	7.36556e+06	-41239.1	955.819	-29787.6	0.000000	0.000000	7.098149	279.83	NaN	0.000000	0.001713	0.001660	28.0808	75.0884	0.001966	38192.7	6.969034	172.956	279.64	1.086219	0.077755	0.077405	279.83	38192.7	0.072260	0.173401	1613.77	83796.6
52	2.000000	1.096019	7.36556e+06	-41239.1	955.82	-29787.6	0.000000	0.000000	7.110086	340.318	NaN	0.000000	0.001625	0.001663	28.1028	81.3614	0.001748	46549.6	3.517296	-5.302083	337.215	1.095687	0.087206	0.086873	340.318	46549.6	0.081722	0.215015	1582.77	91718.1
52	2.000000	1.105512	7.36556e+06	-41239.1	955.819	-29787.6	0.000000	0.000000	7.122491	411.188	NaN	0.000000	0.001595	0.001718	28.1287	90.391	0.001818	49716.4	6.621272	171.509	410.368	1.105099	0.096698	0.096286	411.188	49716.4	0.090495	0.257311	1598.02	89545.6
52	2.000000	1.114992	7.36556e+06	-41239.1	955.819	-29787.6	0.000000	0.000000	7.134491	472.498	NaN	0.000000	0.001605	0.001669	28.0898	98.0782	0.001711	57317.8	1.990930	-5.745753	467.618	1.114683	0.106178	0.105869	472.498	57317.8	0.099996	0.307095	1538.6	94498.8
52	2.000000	1.115475	7.36556e+06	-41239.1	955.819	-29787.6	0.000000	0.000000	7.135235	478.838	NaN	0.000000	0.001604	0.001662	28.1271	98.5534	0.001774	55540.7	3.610015	173.23	475.678	1.115167	0.106662	0.106353	478.838	55540.7	0.100196	0.308188	1553.72	91406.4

File: 2025-07-22_16-23-58_1_53.txt
2025-07-22, 16:23:58, 1
Index	Phase	Displacement	Time	Pos X	Pos Y	Pos Z	Rot A	Rot B	Piezo Z	Force A	Force B	Gripper	Voltage A	Voltage B	Temperature	Amplitude force	Amplitude pos	Stiffness	Phase shift	Phase excitation	Force A raw	Displacement raw	HMax	HMax raw	Real Force	Real Stiffness	Contact Depth	Area	Hardness	Reduced Mod.
[#]	[#]	[um]	[s]	[um]	[um]	[um]	[m°]	[m°]	[um]	[uN]	[uN]	[V]	[V]	[V]	[°C]	[uN]	[um]	[N/m]	[°]	[°]	[uN]	[um]	[um]	[um]	[uN]	[N/m]	[um]	[um^2]	[MPa]	[MPa]
53	1.000000	0.003141	7.36556e+06	-41289.1	955.818	-29787.4	0.000000	0.000000	6.002821	0.007205	NaN	0.000000	0.001637	0.001677	28.129	0.025763	0.001005	25.6365	71.4549	-165.584	-0.011023	0.001894	-0.989055	-0.990303	0.007205	25.6365	-0.989266	-1.626406E+13	-4.430072E-16	NaN
53	1.000000	0.041077	7.36556e+06	-41289.1	955.819	-29787.4	0.000000	0.000000	6.040755	-0.016630	NaN	0.000000	0.001610	0.001680	28.0878	0.058652	0.002048	28.6426	99.489	13.0191	-0.059374	0.039763	-0.951120	-0.952433	-0.016630	28.6426	-0.950684	-4.911968E+12	3.385517E-15	NaN
53	1.000000	0.079103	7.36556e+06	-41289.1	955.817	-29787.4	0.000000	0.000000	6.078784	0.042381	NaN	0.000000	0.001582	0.001719	28.0788	0.041153	0.001937	21.2405	-123.178	-163.562	0.070585	0.077752	-0.913093	-0.914445	0.042381	21.2405	-0.914590	-1.600110E+12	-2.648655E-14	NaN
53	1.000000	0.117077	7.36556e+06	-41289.1	955.817	-29787.4	0.000000	0.000000	6.116756	0.004167	NaN	0.000000	0.001607	0.001669	28.1045	0.041491	0.001981	20.9494	-89.4148	12.1351	-0.029981	0.115754	-0.875120	-0.876443	0.004167	20.9494	-0.875269	-4.706756E+11	-8.852463E-15	NaN
53	1.000000	0.155089	7.36556e+06	-41289.1	955.818	-29787.4	0.000000	0.000000	6.154768	0.009823	NaN	0.000000	0.001611	0.001700	28.1293	0.048213	0.002028	23.776	-14.4314	-164.178	-0.046870	0.153769	-0.837108	-0.838428	0.009823	23.776	-0.837418	-1.446471E+11	-6.791013E-14	NaN
53	1.000000	0.193144	7.36556e+06	-41289.1	955.819	-29787.4	0.000000	0.000000	6.192825	0.055723	NaN	0.000000	0.001593	0.001678	28.0891	0.026170	0.002049	12.7708	-160.785	12.7008	0.014689	0.191822	-0.799053	-0.800374	0.055723	12.7708	-0.802325	-4.835313E+10	-1.152416E-12	NaN
53	1.000000	0.231152	7.36556e+06	-41289.1	955.819	-29787.4	0.000000	0.000000	6.230833	0.047433	NaN	0.000000	0.001624	0.001656	28.0818	0.037059	0.001962	18.8853	-85.8004	-164.576	0.058256	0.229855	-0.761044	-0.762342	0.047433	18.8853	-0.762928	-1.409718E+10	-3.364720E-12	NaN
53	1.000000	0.269151	7.36556e+06	-41289.1	955.818	-29787.4	0.000000	0.000000	6.268831	0.044075	NaN	0.000000	0.001614	0.001675	28.1068	0.079240	0.001970	40.2217	60.737	17.5269	-0.014740	0.267762	-0.723046	-0.724435	0.044075	40.2217	-0.723868	-4.142053E+9	-1.064080E-11	NaN
53	1.000000	0.307173	7.36556e+06	-41289.1	955.818	-29787.4	0.000000	0.000000	6.306851	-0.012411	NaN	0.000000	0.001571	0.001672	28.1269	0.058534	0.001889	30.993	-150.185	-163.861	-0.013723	0.305871	-0.685024	-0.686326	-0.012411	30.993	-0.684724	-1.210038E+9	1.025655E-11	NaN
53	1.000000	0.345210	7.36556e+06	-41289.1	955.818	-29787.4	0.000000	0.000000	6.344889	0.003918	NaN	0.000000	0.001588	0.001677	28.0888	0.153412	0.001992	77.0297	-93.3099	13.242	-0.058237	0.343830	-0.646987	-0.648366	0.003918	77.0297	-0.647025	-3.686773E+8	-1.062599E-11	NaN
53	1.000000	0.383252	7.36556e+06	-41289.1	955.818	-29787.4	0.000000	0.000000	6.382931	0.012739	NaN	0.000000	0.001567	0.001698	28.0793	0.119115	0.001997	59.6484	-64.9619	-165.173	0.021349	0.381938	-0.608945	-0.610259	0.012739	59.6484	-0.609105	-1.111225E+8	-1.146369E-10	NaN
53	1.000000	0.421226	7.36556e+06	-41289.1	955.818	-29787.4	0.000000	0.000000	6.420904	-0.020816	NaN	0.000000	0.001554	0.001694	28.1089	0.032175	0.001951	16.4905	76.8242	12.1499	0.062657	0.419841	-0.570971	-0.572356	-0.020816	16.4905	-0.570024	-3.213410E+7	6.477937E-10	NaN
53	1.000000	0.459237	7.36556e+06	-41289.1	955.818	-29787.4	0.000000	0.000000	6.458914	-0.042933	NaN	0.000000	0.001590	0.001675	28.128	0.079619	0.002126	37.4551	102.176	-167.499	0.022611	0.457947	-0.532960	-0.534250	-0.042933	37.4551	-0.532100	-9.58826e+06	4.477687E-9	NaN
53	1.000000	0.497258	7.36556e+06	-41289.1	955.818	-29787.4	0.000000	0.000000	6.496939	0.054331	NaN	0.000000	0.001606	0.001699	28.0907	0.016276	0.002017	8.068495	87.8362	12.2146	-0.038200	0.495861	-0.494939	-0.496336	0.054331	8.068495	-0.499989	-3.42659e+06	-1.585567E-8	NaN
53	1.000000	0.535273	7.36557e+06	-41289.1	955.818	-29787.4	0.000000	0.000000	6.534952	-0.000279	NaN	0.000000	0.001685	0.001635	28.0802	0.061720	0.002125	29.0489	39.0002	-165.284	0.012092	0.533992	-0.456923	-0.458205	-0.000279	29.0489	-0.456916	-854415	3.264008E-10	NaN
53	1.000000	0.573292	7.36557e+06	-41289.1	955.818	-29787.4	0.000000	0.000000	6.572972	0.015679	NaN	0.000000	0.001662	0.001717	28.1086	0.046512	0.001983	23.4596	-149.45	13.6746	-0.043484	0.571961	-0.418904	-0.420235	0.015679	23.4596	-0.419406	-252340	-6.213518E-8	NaN
53	1.000000	0.611313	7.36557e+06	-41289.1	955.819	-29787.4	0.000000	0.000000	6.610992	0.002428	NaN	0.000000	0.001649	0.001685	28.1268	0.056806	0.002083	27.2687	-79.572	-163.679	-0.027789	0.609941	-0.380884	-0.382255	0.002428	27.2687	-0.380951	-71373	-3.401225E-8	NaN
53	1.000000	0.649314	7.36557e+06	-41289.1	955.817	-29787.4	0.000000	0.000000	6.648993	-0.010138	NaN	0.000000	0.001593	0.001650	28.0875	0.096431	0.002013	47.9051	148.747	17.5244	0.050447	0.647979	-0.342882	-0.344218	-0.010138	47.9051	-0.342724	-20009.3	5.066785E-7	NaN
53	1.000000	0.687358	7.36557e+06	-41289.1	955.818	-29787.4	0.000000	0.000000	6.687038	0.034035	NaN	0.000000	0.001631	0.001652	28.0801	0.080483	0.002001	40.227	17.1237	-167.427	0.051315	0.686057	-0.304839	-0.306140	0.034035	40.227	-0.305474	-5675.23	-5.997035E-6	NaN
53	1.000000	0.725368	7.36557e+06	-41289.1	955.817	-29787.4	0.000000	0.000000	6.725049	0.041719	NaN	0.000000	0.001598	0.001668	28.1107	0.029444	0.002056	14.3219	23.0193	15.8976	0.076265	0.724046	-0.266829	-0.268151	0.041719	14.3219	-0.269013	-1608.94	-2.592973E-5	NaN
53	1.000000	0.763387	7.36557e+06	-41289.1	955.819	-29787.4	0.000000	0.000000	6.763066	0.003343	NaN	0.000000	0.001621	0.001676	28.1272	0.054365	0.002119	25.6601	54.721	-163.794	-0.059779	0.762013	-0.228809	-0.230184	0.003343	25.6601	-0.228907	-384.812	-8.687461E-6	NaN
53	1.000000	0.801388	7.36557e+06	-41289.1	955.819	-29787.5	0.000000	0.000000	6.801070	0.066111	NaN	0.000000	0.001592	0.001711	28.0885	0.111956	0.002004	55.8577	60.5236	15.3474	0.012793	0.800055	-0.190808	-0.192141	0.066111	55.8577	-0.191696	-96.011	-0.000689	NaN
53	1.000000	0.839411	7.36557e+06	-41289.1	955.818	-29787.5	0.000000	0.000000	6.839092	0.037921	NaN	0.000000	0.001618	0.001689	28.0784	0.133424	0.001938	68.8385	-157.536	-166.082	0.068648	0.838077	-0.152785	-0.154120	0.037921	68.8385	-0.153198	-20.7054	-0.001831	NaN
53	1.000000	0.877422	7.36557e+06	-41289.1	955.818	-29787.4	0.000000	0.000000	6.877105	0.095961	NaN	0.000000	0.001563	0.001698	28.1103	0.055916	0.002045	27.3363	-20.2714	15.3947	0.152025	0.876022	-0.114775	-0.116175	0.095961	27.3363	-0.117408	-4.280372	-0.022419	NaN
53	1.000000	0.915431	7.36557e+06	-41289.1	955.817	-29787.5	0.000000	0.000000	6.915108	-0.041710	NaN	0.000000	0.001557	0.001723	28.1255	0.086270	0.001968	43.8347	-87.325	-165.495	-0.060831	0.914113	-0.076766	-0.078084	-0.041710	43.8347	-0.076052	-0.491641	0.084838	NaN
53	1.000000	0.953474	7.36557e+06	-41289.1	955.819	-29787.5	0.000000	0.000000	6.953154	0.025593	NaN	0.000000	0.001594	0.001757	28.0878	0.076882	0.002003	38.383	177.68	16.0027	0.072676	0.952067	-0.038723	-0.040129	0.025593	38.383	-0.039223	-0.042833	-0.597498	NaN
53	1.000000	0.991464	7.36557e+06	-41289.1	955.819	-29787.5	0.000000	0.000000	6.991143	-0.003987	NaN	0.000000	0.001523	0.001737	28.0817	0.144681	0.002100	68.8958	37.4653	-164.907	-0.064536	0.990206	-0.000733	-0.001991	-0.003987	68.8958	-0.000689	-0.000508	7.843740	NaN
53	2.000000	1.008527	7.36557e+06	-41289.1	955.819	-29787.4	0.000000	0.000000	7.008927	17.544	NaN	0.000000	0.001576	0.001705	28.1108	14.883	0.001777	8376.07	2.010535	11.2469	16.9612	1.008204	0.016330	0.016007	17.544	8376.07	0.014759	0.014966	1172.26	62554.9
53	2.000000	1.017989	7.36557e+06	-41289.1	955.819	-29787.4	0.000000	0.000000	7.019201	37.2911	NaN	0.000000	0.001565	0.001752	28.1272	25.2066	0.001806	13954.1	8.403085	-179.859	37.6482	1.017649	0.025793	0.025453	37.2911	13954.1	0.023788	0.028848	1292.67	75061.2
53	2.000000	1.027465	7.36557e+06	-41289.1	955.82	-29787.5	0.000000	0.000000	7.029936	67.9343	NaN	0.000000	0.001606	0.001730	28.0855	33.7563	0.001766	19119.3	2.934188	1.881330	68.3367	1.027096	0.035268	0.034899	67.9343	19119.3	0.032603	0.046313	1466.86	81170
53	2.000000	1.036930	7.36557e+06	-41289.1	955.819	-29787.4	0.000000	0.000000	7.040887	104.1	NaN	0.000000	0.001553	0.001756	28.0794	42.1707	0.001734	24320.1	7.240352	175.74	104.469	1.036581	0.044733	0.044384	104.1	24320.1	0.041523	0.068023	1530.37	85194.3
53	2.000000	1.046358	7.36557e+06	-41289.1	955.819	-29787.4	0.000000	0.000000	7.051902	142.709	NaN	0.000000	0.001563	0.001708	28.1105	50.9562	0.001713	29752.9	4.728608	-3.929181	138.143	1.046065	0.054161	0.053869	142.709	29752.9	0.050564	0.094164	1515.55	88585.2
53	2.000000	1.055874	7.36557e+06	-41289.1	955.819	-29787.4	0.000000	0.000000	7.063507	193.529	NaN	0.000000	0.001596	0.001702	28.1253	60.9738	0.001851	32945.8	4.952773	175.659	192.54	1.055500	0.063677	0.063304	193.529	32945.8	0.059272	0.123210	1570.73	85753.4
53	2.000000	1.065402	7.36557e+06	-41289.1	955.819	-29787.4	0.000000	0.000000	7.075287	248.316	NaN	0.000000	0.001578	0.001673	28.0857	70.4222	0.001934	36409	10.8393	-10.9888	247.147	1.064938	0.073206	0.072741	248.316	36409	0.068091	0.156408	1587.62	84111.1
53	2.000000	1.074832	7.36557e+06	-41289.1	955.82	-29787.4	0.000000	0.000000	7.087201	308.781	NaN	0.000000	0.001558	0.001725	28.0817	76.7244	0.001834	41830.3	6.412069	172.034	305.214	1.074513	0.082636	0.082317	308.781	41830.3	0.077099	0.194160	1590.34	86732.9
53	2.000000	1.084357	7.36557e+06	-41289.1	955.819	-29787.4	0.000000	0.000000	7.099685	380.781	NaN	0.000000	0.001599	0.001654	28.113	84.3527	0.001732	48707.5	5.555091	-7.097787	377.7	1.083897	0.092160	0.091700	380.781	48707.5	0.086297	0.236627	1609.2	91482.2
53	2.000000	1.093872	7.36557e+06	-41289.1	955.821	-29787.4	0.000000	0.000000	7.112160	452.806	NaN	0.000000	0.001639	0.001694	28.1252	91.369	0.001745	52369.7	5.163630	172.488	453.59	1.093559	0.101675	0.101362	452.806	52369.7	0.095190	0.281400	1609.12	90196.8
53	2.000000	1.099830	7.36557e+06	-41289.1	955.82	-29787.4	0.000000	0.000000	7.119844	494.806	NaN	0.000000	0.001613	0.001713	28.1236	99.049	0.001862	53182.5	6.372166	170.203	494.501	1.099525	0.107633	0.107329	494.806	53182.5	0.100655	0.310704	1592.53	87170.4