Folder: unikorn_login/remote_trans/data/nanoindenter/0828-1/data/Data_2025-08-06,11h17m57s (part 49)

File: 2025-07-22_16-23-58_1_115.txt
2025-07-22, 16:23:58, 1
Index	Phase	Displacement	Time	Pos X	Pos Y	Pos Z	Rot A	Rot B	Piezo Z	Force A	Force B	Gripper	Voltage A	Voltage B	Temperature	Amplitude force	Amplitude pos	Stiffness	Phase shift	Phase excitation	Force A raw	Displacement raw	HMax	HMax raw	Real Force	Real Stiffness	Contact Depth	Area	Hardness	Reduced Mod.
[#]	[#]	[um]	[s]	[um]	[um]	[um]	[m°]	[m°]	[um]	[uN]	[uN]	[V]	[V]	[V]	[°C]	[uN]	[um]	[N/m]	[°]	[°]	[uN]	[um]	[um]	[um]	[uN]	[N/m]	[um]	[um^2]	[MPa]	[MPa]
115	1.000000	0.002519	7.36616e+06	-44389.1	955.818	-29776.4	0.000000	0.000000	6.002777	-0.009975	NaN	0.000000	0.001623	0.001675	28.0883	0.062079	0.000950	65.3306	-12.8997	-159.979	-0.028227	0.001284	-1.158386	-1.159621	-0.009975	65.3306	-1.158271	-3.031759E+15	3.290054E-18	NaN
115	1.000000	0.046486	7.36616e+06	-44389.1	955.818	-29776.4	0.000000	0.000000	6.046746	0.022678	NaN	0.000000	0.001618	0.001718	28.1108	0.033745	0.001922	17.5592	-20.4634	-164.215	-0.033039	0.045212	-1.114418	-1.115693	0.022678	17.5592	-1.115387	-8.064392E+14	-2.812156E-17	NaN
115	1.000000	0.090492	7.36616e+06	-44389.1	955.819	-29776.4	0.000000	0.000000	6.090750	-0.003049	NaN	0.000000	0.001612	0.001686	28.0856	0.157956	0.002027	77.9217	134.502	-165.779	0.065224	0.089224	-1.070413	-1.071680	-0.003049	77.9217	-1.070383	-2.006046E+14	1.519768E-17	NaN
115	1.000000	0.134545	7.36616e+06	-44389.1	955.819	-29776.4	0.000000	0.000000	6.134802	-0.044048	NaN	0.000000	0.001594	0.001669	28.1112	0.027737	0.002000	13.8662	-63.4934	-166.92	-0.063349	0.133205	-1.026360	-1.027700	-0.044048	13.8662	-1.023977	-4.769358E+13	9.235657E-16	NaN
115	1.000000	0.178550	7.36616e+06	-44389.1	955.818	-29776.4	0.000000	0.000000	6.178810	0.034424	NaN	0.000000	0.001610	0.001671	28.0872	0.022654	0.001966	11.5237	146.904	-163.524	-0.046219	0.177271	-0.982355	-0.983634	0.034424	11.5237	-0.984595	-1.407059E+13	-2.446497E-15	NaN
115	1.000000	0.222555	7.36616e+06	-44389.1	955.818	-29776.4	0.000000	0.000000	6.222816	0.045289	NaN	0.000000	0.001650	0.001685	28.1131	0.093065	0.002004	46.4407	153.642	-165.143	-0.009187	0.221230	-0.938350	-0.939675	0.045289	46.4407	-0.939081	-3.425604E+12	-1.322068E-14	NaN
115	1.000000	0.266595	7.36616e+06	-44389.1	955.819	-29776.4	0.000000	0.000000	6.266850	-0.078503	NaN	0.000000	0.001637	0.001687	28.085	0.083656	0.001944	43.0333	-5.482935	-163.009	0.010367	0.265237	-0.894310	-0.895667	-0.078503	43.0333	-0.892942	-8.159744E+11	9.620759E-14	NaN
115	1.000000	0.310628	7.36616e+06	-44389.1	955.819	-29776.4	0.000000	0.000000	6.310891	0.087374	NaN	0.000000	0.001651	0.001738	28.1126	0.085626	0.002002	42.7772	-83.2458	-165.339	0.120374	0.309283	-0.850276	-0.851621	0.087374	42.7772	-0.851808	-2.265806E+11	-3.856202E-13	NaN
115	1.000000	0.354619	7.36616e+06	-44389.1	955.818	-29776.4	0.000000	0.000000	6.354877	-0.016119	NaN	0.000000	0.001596	0.001707	28.0833	0.086591	0.001877	46.1373	-73.5014	-160.526	-0.023614	0.353286	-0.806285	-0.807619	-0.016119	46.1373	-0.806023	-5.427674E+10	2.969741E-13	NaN
115	1.000000	0.398639	7.36616e+06	-44389.1	955.818	-29776.4	0.000000	0.000000	6.398900	0.052031	NaN	0.000000	0.001623	0.001678	28.1135	0.088536	0.001934	45.7787	62.1727	-163.888	0.011719	0.397338	-0.762265	-0.763566	0.052031	45.7787	-0.763117	-1.418105E+10	-3.669044E-12	NaN
115	1.000000	0.442638	7.36616e+06	-44389.1	955.818	-29776.4	0.000000	0.000000	6.442893	-0.084046	NaN	0.000000	0.001607	0.001684	28.0837	0.117799	0.001944	60.6104	159.896	-165.596	-0.119323	0.441381	-0.718267	-0.719523	-0.084046	60.6104	-0.717227	-3.362380E+9	2.499587E-11	NaN
115	1.000000	0.486698	7.36616e+06	-44389.1	955.818	-29776.4	0.000000	0.000000	6.486956	-0.011560	NaN	0.000000	0.001627	0.001694	28.1151	0.055683	0.001888	29.4865	-93.423	-163.783	0.018347	0.485359	-0.674206	-0.675545	-0.011560	29.4865	-0.673912	-8.608572E+8	1.342869E-11	NaN
115	1.000000	0.530670	7.36616e+06	-44389.1	955.818	-29776.4	0.000000	0.000000	6.530930	0.021265	NaN	0.000000	0.001638	0.001709	28.0847	0.029712	0.002009	14.7859	-67.1506	-164.557	0.079736	0.529365	-0.630234	-0.631540	0.021265	14.7859	-0.631313	-2.244152E+8	-9.475665E-11	NaN
115	1.000000	0.574686	7.36616e+06	-44389.1	955.819	-29776.4	0.000000	0.000000	6.574948	0.057757	NaN	0.000000	0.001654	0.001709	28.1139	0.078084	0.002064	37.8274	-17.8262	-164.644	0.094772	0.573413	-0.586218	-0.587491	0.057757	37.8274	-0.587363	-5.575804E+7	-1.035855E-9	NaN
115	1.000000	0.618720	7.36616e+06	-44389.1	955.818	-29776.4	0.000000	0.000000	6.618982	0.056815	NaN	0.000000	0.001600	0.001731	28.0818	0.156524	0.001912	81.8524	-9.671327	-168.284	0.050340	0.617417	-0.542184	-0.543488	0.056815	81.8524	-0.542705	-1.345434E+7	-4.222799E-9	NaN
115	1.000000	0.662768	7.36616e+06	-44389.1	955.818	-29776.4	0.000000	0.000000	6.663027	0.017337	NaN	0.000000	0.001574	0.001730	28.1143	0.086313	0.002046	42.1774	-113.505	-166.296	0.052645	0.661430	-0.498137	-0.499474	0.017337	42.1774	-0.498445	-3.26079e+06	-5.316854E-9	NaN
115	1.000000	0.706763	7.36617e+06	-44389.1	955.818	-29776.4	0.000000	0.000000	6.707024	0.058424	NaN	0.000000	0.001613	0.001714	28.0848	0.045394	0.001987	22.8484	76.3398	-163.462	0.042679	0.705432	-0.454141	-0.455472	0.058424	22.8484	-0.456059	-831027	-7.030368E-8	NaN
115	1.000000	0.750808	7.36617e+06	-44389.1	955.818	-29776.4	0.000000	0.000000	6.751067	0.016591	NaN	0.000000	0.001614	0.001724	28.1156	0.060197	0.001988	30.2763	1.706102	-159.53	0.033282	0.749478	-0.410096	-0.411426	0.016591	30.2763	-0.410507	-188633	-8.795205E-8	NaN
115	1.000000	0.794798	7.36617e+06	-44389.1	955.819	-29776.4	0.000000	0.000000	6.795057	0.001817	NaN	0.000000	0.001646	0.001705	28.0852	0.106333	0.002043	52.0393	-86.0728	-163.81	0.099978	0.793522	-0.366106	-0.367382	0.001817	52.0393	-0.366132	-43690.2	-4.159728E-8	NaN
115	1.000000	0.838838	7.36617e+06	-44389.1	955.818	-29776.4	0.000000	0.000000	6.839098	0.041780	NaN	0.000000	0.001605	0.001733	28.1164	0.069315	0.001980	35.0038	-138.741	-166.011	0.005701	0.837483	-0.322067	-0.323422	0.041780	35.0038	-0.322962	-10284.9	-4.062272E-6	NaN
115	1.000000	0.882819	7.36617e+06	-44389.1	955.818	-29776.4	0.000000	0.000000	6.883080	0.053124	NaN	0.000000	0.001600	0.001721	28.0829	0.069649	0.002043	34.0949	-35.8106	-166.469	0.147672	0.881517	-0.278085	-0.279387	0.053124	34.0949	-0.279254	-2299.92	-2.309800E-5	NaN
115	1.000000	0.926862	7.36617e+06	-44389.1	955.819	-29776.4	0.000000	0.000000	6.927122	0.023398	NaN	0.000000	0.001635	0.001753	28.115	0.142568	0.002032	70.1706	106.75	-162.193	0.003257	0.925518	-0.234042	-0.235386	0.023398	70.1706	-0.234292	-467.88	-5.000822E-5	NaN
115	1.000000	0.970902	7.36617e+06	-44389.1	955.819	-29776.4	0.000000	0.000000	6.971164	0.080443	NaN	0.000000	0.001563	0.001724	28.0823	0.046785	0.002051	22.8086	-104.505	-164.681	0.056294	0.969548	-0.190002	-0.191357	0.080443	22.8086	-0.192647	-99.5758	-0.000808	NaN
115	1.000000	1.014887	7.36617e+06	-44389.1	955.818	-29776.4	0.000000	0.000000	7.015146	-0.017682	NaN	0.000000	0.001585	0.001740	28.1165	0.062224	0.002094	29.7141	43.8641	-164.468	-0.025067	1.013511	-0.146017	-0.147394	-0.017682	29.7141	-0.145571	-15.0216	0.001177	NaN
115	1.000000	1.058925	7.36617e+06	-44389.1	955.818	-29776.4	0.000000	0.000000	7.059184	-0.007419	NaN	0.000000	0.001610	0.001783	28.0846	0.066972	0.002011	33.2997	164.564	-165.33	-0.061433	1.057611	-0.101979	-0.103294	-0.007419	33.2997	-0.101812	-2.003341	0.003703	NaN
115	1.000000	1.102943	7.36617e+06	-44389.1	955.819	-29776.4	0.000000	0.000000	7.103206	0.100206	NaN	0.000000	0.001632	0.001749	28.1175	0.018934	0.001899	9.972125	58.6999	-162.746	0.100200	1.101597	-0.057961	-0.059307	0.100206	9.972125	-0.065498	-0.257250	-0.389527	NaN
115	1.000000	1.146903	7.36617e+06	-44389.1	955.819	-29776.4	0.000000	0.000000	7.147163	0.046616	NaN	0.000000	0.001642	0.001716	28.0821	0.051131	0.002013	25.4019	-107.986	-164.3	0.128174	1.145649	-0.014002	-0.015255	0.046616	25.4019	-0.015378	-0.009503	-4.905327	NaN
115	2.000000	1.179491	7.36617e+06	-44389.1	955.82	-29776.4	0.000000	0.000000	7.180247	12.1015	NaN	0.000000	0.001639	0.001735	28.1176	13.4524	0.001816	7409.69	6.455009	-171.771	12.3046	1.179205	0.018587	0.018301	12.1015	7409.69	0.017362	0.018565	651.845	49685
115	2.000000	1.190416	7.36617e+06	-44389.1	955.82	-29776.4	0.000000	0.000000	7.192111	34.935	NaN	0.000000	0.001609	0.001781	28.0812	25.5601	0.001753	14577.8	7.946651	178.696	33.4837	1.190100	0.029512	0.029196	34.935	14577.8	0.027714	0.036139	966.68	70061.1
115	2.000000	1.201432	7.36617e+06	-44389.1	955.819	-29776.4	0.000000	0.000000	7.204343	64.4969	NaN	0.000000	0.001642	0.001769	28.1189	36.0782	0.001850	19505.8	3.988892	-178.848	65.7728	1.201135	0.040528	0.040231	64.4969	19505.8	0.038048	0.059082	1091.66	73317.9
115	2.000000	1.212382	7.36617e+06	-44389.1	955.819	-29776.4	0.000000	0.000000	7.217278	112.814	NaN	0.000000	0.001635	0.001766	28.0832	47.0722	0.001751	26884.3	4.903665	177.286	113.308	1.212029	0.051477	0.051125	112.814	26884.3	0.048330	0.087322	1291.93	83121.2
115	2.000000	1.223343	7.36617e+06	-44389.1	955.82	-29776.4	0.000000	0.000000	7.230074	157.463	NaN	0.000000	0.001628	0.001734	28.1196	58.027	0.001916	30282.9	6.960831	174.089	156.576	1.223075	0.062438	0.062171	157.463	30282.9	0.058538	0.120620	1305.45	79664.1
115	2.000000	1.234354	7.36617e+06	-44389.1	955.82	-29776.4	0.000000	0.000000	7.243521	216.705	NaN	0.000000	0.001629	0.001725	28.0819	65.9793	0.001829	36073.8	5.949793	174.084	215.578	1.233937	0.073450	0.073032	216.705	36073.8	0.068945	0.159821	1355.92	82442
115	2.000000	1.245289	7.36617e+06	-44389.1	955.82	-29776.4	0.000000	0.000000	7.256932	276.946	NaN	0.000000	0.001597	0.001749	28.1194	78.5758	0.001782	44089.8	4.649572	173.78	274.597	1.245083	0.084385	0.084178	276.946	44089.8	0.079674	0.205651	1346.68	88827.3
115	2.000000	1.256351	7.36617e+06	-44389.1	955.82	-29776.4	0.000000	0.000000	7.270939	348.604	NaN	0.000000	0.001621	0.001752	28.0815	88.0945	0.001676	52569.9	1.939688	174.965	350.2	1.256077	0.095447	0.095172	348.604	52569.9	0.090473	0.257201	1355.37	94705.2
115	2.000000	1.267196	7.36617e+06	-44389.1	955.821	-29776.4	0.000000	0.000000	7.285309	434.363	NaN	0.000000	0.001704	0.001720	28.1206	99.5813	0.001811	54991.9	4.915654	171.856	428.863	1.266906	0.106292	0.106001	434.363	54991.9	0.100368	0.309128	1405.12	90365.6
115	2.000000	1.274310	7.36617e+06	-44389.1	955.821	-29776.4	0.000000	0.000000	7.294557	486.267	NaN	0.000000	0.001712	0.001764	28.082	105.644	0.001810	58377.6	2.379212	173.863	486.294	1.274023	0.113406	0.113118	486.267	58377.6	0.107159	0.347345	1399.95	90498

File: 2025-07-22_16-23-58_1_116.txt
2025-07-22, 16:23:58, 1
Index	Phase	Displacement	Time	Pos X	Pos Y	Pos Z	Rot A	Rot B	Piezo Z	Force A	Force B	Gripper	Voltage A	Voltage B	Temperature	Amplitude force	Amplitude pos	Stiffness	Phase shift	Phase excitation	Force A raw	Displacement raw	HMax	HMax raw	Real Force	Real Stiffness	Contact Depth	Area	Hardness	Reduced Mod.
[#]	[#]	[um]	[s]	[um]	[um]	[um]	[m°]	[m°]	[um]	[uN]	[uN]	[V]	[V]	[V]	[°C]	[uN]	[um]	[N/m]	[°]	[°]	[uN]	[um]	[um]	[um]	[uN]	[N/m]	[um]	[um^2]	[MPa]	[MPa]
116	1.000000	0.001910	7.36617e+06	-44439.1	955.819	-29776.3	0.000000	0.000000	6.002790	-0.093980	NaN	0.000000	0.001630	0.001761	28.0845	0.135041	0.000946	142.706	-54.3321	-163.776	-0.054417	0.000690	-1.091556	-1.092776	-0.093980	142.706	-1.091062	-3.802538E+14	2.471501E-16	NaN
116	1.000000	0.043888	7.36617e+06	-44439.1	955.818	-29776.3	0.000000	0.000000	6.044771	-0.025853	NaN	0.000000	0.001646	0.001768	28.0849	0.099626	0.001885	52.8554	133.575	6.647359	0.039624	0.042514	-1.049578	-1.050952	-0.025853	52.8554	-1.049211	-1.041871E+14	2.481362E-16	NaN
116	1.000000	0.085875	7.36617e+06	-44439.1	955.818	-29776.3	0.000000	0.000000	6.086757	-0.039688	NaN	0.000000	0.001648	0.001766	28.1188	0.100464	0.002005	50.1066	31.2141	-162.419	-0.133772	0.084577	-1.007591	-1.008889	-0.039688	50.1066	-1.006997	-2.818139E+13	1.408305E-15	NaN
116	1.000000	0.127910	7.36617e+06	-44439.1	955.818	-29776.3	0.000000	0.000000	6.128793	-0.019386	NaN	0.000000	0.001603	0.001747	28.1247	0.073485	0.001894	38.7941	15.3114	14.8385	0.000745	0.126541	-0.965556	-0.966925	-0.019386	38.7941	-0.965181	-7.704034E+12	2.516385E-15	NaN
116	1.000000	0.169926	7.36617e+06	-44439.1	955.819	-29776.3	0.000000	0.000000	6.170807	-0.051837	NaN	0.000000	0.001639	0.001742	28.0856	0.030769	0.001998	15.4005	-89.3476	-163.514	0.006933	0.168617	-0.923541	-0.924850	-0.051837	15.4005	-0.921016	-1.954001E+12	2.652840E-14	NaN
116	1.000000	0.211956	7.36617e+06	-44439.1	955.818	-29776.3	0.000000	0.000000	6.212838	-0.035357	NaN	0.000000	0.001638	0.001735	28.0828	0.142552	0.002027	70.3303	-161.765	14.4069	-0.011699	0.210579	-0.881511	-0.882887	-0.035357	70.3303	-0.881134	-5.649925E+11	6.257963E-14	NaN
116	1.000000	0.253958	7.36617e+06	-44439.1	955.818	-29776.3	0.000000	0.000000	6.254841	-0.018976	NaN	0.000000	0.001624	0.001779	28.1166	0.062125	0.002094	29.6639	-149.519	-163.841	-0.040722	0.252582	-0.839508	-0.840884	-0.018976	29.6639	-0.839029	-1.521010E+11	1.247607E-13	NaN
116	1.000000	0.295963	7.36617e+06	-44439.1	955.819	-29776.3	0.000000	0.000000	6.296846	-0.014324	NaN	0.000000	0.001608	0.001803	28.1244	0.046609	0.002016	23.1151	-121.752	13.7301	-0.054988	0.294605	-0.797503	-0.798861	-0.014324	23.1151	-0.797038	-4.098800E+10	3.494773E-13	NaN
116	1.000000	0.338006	7.36617e+06	-44439.1	955.818	-29776.3	0.000000	0.000000	6.338888	-0.042739	NaN	0.000000	0.001609	0.001815	28.0847	0.055902	0.002014	27.7539	103.735	-167.432	-0.046726	0.336694	-0.755460	-0.756772	-0.042739	27.7539	-0.754305	-1.076015E+10	3.972009E-12	NaN
116	1.000000	0.380028	7.36617e+06	-44439.1	955.818	-29776.3	0.000000	0.000000	6.380912	0.025214	NaN	0.000000	0.001601	0.001818	28.0829	0.124479	0.001873	66.4575	38.195	17.1432	0.065051	0.378644	-0.713439	-0.714823	0.025214	66.4575	-0.713723	-3.012004E+9	-8.371294E-12	NaN
116	1.000000	0.422031	7.36617e+06	-44439.1	955.818	-29776.3	0.000000	0.000000	6.422909	-0.132598	NaN	0.000000	0.001617	0.001796	28.1161	0.017135	0.002009	8.529733	84.1045	-163.106	-0.071190	0.420684	-0.671436	-0.672783	-0.132598	8.529733	-0.659777	-5.513288E+8	2.405064E-10	NaN
116	1.000000	0.464015	7.36617e+06	-44439.1	955.818	-29776.3	0.000000	0.000000	6.464896	-0.042651	NaN	0.000000	0.001641	0.001780	28.1246	0.095166	0.002001	47.5703	143.474	11.2852	-0.043175	0.462671	-0.629452	-0.630796	-0.042651	47.5703	-0.628779	-2.071387E+8	2.059056E-10	NaN
116	1.000000	0.506044	7.36617e+06	-44439.1	955.818	-29776.3	0.000000	0.000000	6.506927	-0.003537	NaN	0.000000	0.001599	0.001775	28.0847	0.054331	0.002040	26.6374	-69.9383	-166.125	0.034149	0.504772	-0.587423	-0.588695	-0.003537	26.6374	-0.587323	-5.568779E+7	6.351003E-11	NaN
116	1.000000	0.548077	7.36617e+06	-44439.1	955.818	-29776.3	0.000000	0.000000	6.548960	-0.004891	NaN	0.000000	0.001625	0.001734	28.0826	0.035817	0.002115	16.9375	-83.2543	16.9946	-0.040735	0.546710	-0.545390	-0.546756	-0.004891	16.9375	-0.545173	-1.455727E+7	3.359719E-10	NaN
116	1.000000	0.590088	7.36617e+06	-44439.1	955.817	-29776.3	0.000000	0.000000	6.590970	-0.042454	NaN	0.000000	0.001581	0.001755	28.114	0.064111	0.001917	33.4476	-177.812	-164.632	-0.079938	0.588821	-0.503378	-0.504646	-0.042454	33.4476	-0.502426	-3.70561e+06	1.145654E-8	NaN
116	1.000000	0.632136	7.36617e+06	-44439.1	955.818	-29776.3	0.000000	0.000000	6.633019	-0.013692	NaN	0.000000	0.001590	0.001774	28.1265	0.068762	0.002016	34.1112	-119.184	13.4065	0.016015	0.630761	-0.461330	-0.462705	-0.013692	34.1112	-0.461029	-976071	1.402792E-8	NaN
116	1.000000	0.674127	7.36618e+06	-44439.1	955.818	-29776.3	0.000000	0.000000	6.675009	-0.028089	NaN	0.000000	0.001698	0.001744	28.0866	0.041183	0.001839	22.3897	-119.53	-164.431	0.009080	0.672838	-0.419340	-0.420628	-0.028089	22.3897	-0.418399	-244176	1.150374E-7	NaN
116	1.000000	0.716179	7.36618e+06	-44439.1	955.819	-29776.3	0.000000	0.000000	6.717062	-0.003651	NaN	0.000000	0.001625	0.001751	28.0832	0.030684	0.002038	15.0563	165.875	13.1006	0.007786	0.714826	-0.377287	-0.378641	-0.003651	15.0563	-0.377106	-62853.6	5.808383E-8	NaN
116	1.000000	0.758198	7.36618e+06	-44439.1	955.818	-29776.3	0.000000	0.000000	6.759079	-0.046966	NaN	0.000000	0.001615	0.001770	28.114	0.014776	0.002027	7.290606	-54.6253	-165.83	-0.027096	0.756886	-0.335269	-0.336581	-0.046966	7.290606	-0.330437	-13239	3.547558E-6	NaN
116	1.000000	0.800171	7.36618e+06	-44439.1	955.818	-29776.3	0.000000	0.000000	6.801053	-0.020742	NaN	0.000000	0.001555	0.001745	28.1256	0.102192	0.001925	53.08	58.4097	15.5449	0.057469	0.798822	-0.293296	-0.294644	-0.020742	53.08	-0.293003	-3700.38	5.605342E-6	NaN
116	1.000000	0.842165	7.36618e+06	-44439.1	955.818	-29776.3	0.000000	0.000000	6.843047	-0.033899	NaN	0.000000	0.001620	0.001741	28.0866	0.060941	0.001955	31.1695	88.2175	-164.988	-0.011265	0.840874	-0.251302	-0.252593	-0.033899	31.1695	-0.250486	-836.528	4.052339E-5	NaN
116	1.000000	0.884220	7.36618e+06	-44439.1	955.818	-29776.3	0.000000	0.000000	6.885103	-0.011484	NaN	0.000000	0.001603	0.001736	28.0813	0.099702	0.001997	49.9206	-89.2306	15.8601	-0.010183	0.882869	-0.209247	-0.210597	-0.011484	49.9206	-0.209074	-185.276	6.198406E-5	NaN
116	1.000000	0.926239	7.36618e+06	-44439.1	955.818	-29776.3	0.000000	0.000000	6.927119	-0.089385	NaN	0.000000	0.001616	0.001733	28.1145	0.038569	0.002010	19.1837	-141.518	-163.438	-0.084022	0.924935	-0.167227	-0.168532	-0.089385	19.1837	-0.163733	-31.9166	0.002801	NaN
116	1.000000	0.968265	7.36618e+06	-44439.1	955.819	-29776.3	0.000000	0.000000	6.969149	0.008160	NaN	0.000000	0.001694	0.001708	28.1273	0.049086	0.001946	25.2234	-82.6544	14.1711	-0.048506	0.966841	-0.125202	-0.126626	0.008160	25.2234	-0.125444	-6.205543	-0.001315	NaN
116	1.000000	1.010274	7.36618e+06	-44439.1	955.819	-29776.3	0.000000	0.000000	7.011156	-0.032225	NaN	0.000000	0.001684	0.001744	28.0865	0.050783	0.002057	24.6855	-155.648	-166.46	-0.054923	1.008948	-0.083192	-0.084519	-0.032225	24.6855	-0.082213	-0.702469	0.045875	NaN
116	1.000000	1.052305	7.36618e+06	-44439.1	955.818	-29776.3	0.000000	0.000000	7.053186	-0.072813	NaN	0.000000	0.001697	0.001734	28.0814	0.097679	0.001979	49.3582	-148.187	12.1814	-0.038888	1.050917	-0.041161	-0.042549	-0.072813	49.3582	-0.040055	-0.045396	1.603963	NaN
116	1.000000	1.094282	7.36618e+06	-44439.1	955.818	-29776.3	0.000000	0.000000	7.095190	0.581593	NaN	0.000000	0.001636	0.001760	28.1124	1.021816	0.002003	510.109	15.6886	-165.91	0.164720	1.092976	0.000816	-0.000491	0.581593	510.109	-3.945617E-5	-2.946349E-5	-19739.5	NaN
116	2.000000	1.110396	7.36618e+06	-44439.1	955.818	-29776.3	0.000000	0.000000	7.112271	24.1301	NaN	0.000000	0.001645	0.001689	28.127	15.829	0.001773	8929	3.715660	7.847361	23.4165	1.110076	0.016930	0.016609	24.1301	8929	0.014903	0.015156	1592.13	66265.1
116	2.000000	1.120840	7.36618e+06	-44439.1	955.819	-29776.3	0.000000	0.000000	7.124036	56.2608	NaN	0.000000	0.001599	0.001712	28.0898	27.2012	0.001844	14749.4	5.293369	-178.371	55.4909	1.120542	0.027374	0.027075	56.2608	14749.4	0.024513	0.030136	1866.91	77626.2
116	2.000000	1.131307	7.36618e+06	-44439.1	955.819	-29776.3	0.000000	0.000000	7.136556	106.209	NaN	0.000000	0.001655	0.001689	28.0814	38.4752	0.001892	20339.9	4.279409	-0.227910	104.683	1.131057	0.037841	0.037590	106.209	20339.9	0.033924	0.049271	2155.62	83719.5
116	2.000000	1.141728	7.36618e+06	-44439.1	955.818	-29776.3	0.000000	0.000000	7.149690	172.188	NaN	0.000000	0.001600	0.001692	28.1136	47.3806	0.001768	26805.4	0.450651	-178.394	168.602	1.141447	0.048262	0.047980	172.188	26805.4	0.043444	0.073232	2351.26	90499.2
116	2.000000	1.152326	7.36618e+06	-44439.1	955.819	-29776.3	0.000000	0.000000	7.163903	260.144	NaN	0.000000	0.001681	0.001761	28.1268	60.3017	0.001951	30912.1	7.961491	-7.302850	260.177	1.151881	0.058860	0.058414	260.144	30912.1	0.052548	0.100451	2589.76	89109.6
116	2.000000	1.162701	7.36618e+06	-44439.1	955.821	-29776.3	0.000000	0.000000	7.178209	355.77	NaN	0.000000	0.001718	0.001713	28.0883	68.0398	0.001757	38720	3.901141	174.984	349.511	1.162428	0.069235	0.068961	355.77	38720	0.062344	0.134346	2648.16	96515.2
116	2.000000	1.173295	7.36618e+06	-44439.1	955.82	-29776.3	0.000000	0.000000	7.193363	466.735	NaN	0.000000	0.001667	0.001711	28.081	80.127	0.001846	43408.6	7.073887	-9.646123	464.96	1.172948	0.079828	0.079481	466.735	43408.6	0.071764	0.171338	2724.07	95812.5
116	2.000000	1.183690	7.36618e+06	-44439.1	955.82	-29776.3	0.000000	0.000000	7.207608	560.388	NaN	0.000000	0.001691	0.001755	28.112	86.9078	0.001817	47827.3	2.300693	174.764	555.092	1.183371	0.090224	0.089904	560.388	47827.3	0.081436	0.213694	2622.39	94526.5
116	2.000000	1.194210	7.36618e+06	-44439.1	955.819	-29776.3	0.000000	0.000000	7.222299	661.871	NaN	0.000000	0.001657	0.001741	28.1286	95.1196	0.001737	54751.3	4.477632	-8.066723	655.684	1.193873	0.100743	0.100406	661.871	54751.3	0.091677	0.263278	2513.97	97490.2
116	2.000000	1.200229	7.36618e+06	-44439.1	955.82	-29776.3	0.000000	0.000000	7.230878	724.135	NaN	0.000000	0.001661	0.001777	28.1294	101.865	0.001793	56820.3	3.682066	-7.390744	721.178	1.199953	0.106762	0.106487	724.135	56820.3	0.097204	0.292040	2479.57	96062.9