Folder: unikorn_login/remote_trans/data/nanoindenter/0828-1/data/Data_2025-08-06,11h17m57s (part 159)

File: 2025-07-22_16-23-58_1_335.txt
2025-07-22, 16:23:58, 1
Index	Phase	Displacement	Time	Pos X	Pos Y	Pos Z	Rot A	Rot B	Piezo Z	Force A	Force B	Gripper	Voltage A	Voltage B	Temperature	Amplitude force	Amplitude pos	Stiffness	Phase shift	Phase excitation	Force A raw	Displacement raw	HMax	HMax raw	Real Force	Real Stiffness	Contact Depth	Area	Hardness	Reduced Mod.
[#]	[#]	[um]	[s]	[um]	[um]	[um]	[m°]	[m°]	[um]	[uN]	[uN]	[V]	[V]	[V]	[°C]	[uN]	[um]	[N/m]	[°]	[°]	[uN]	[um]	[um]	[um]	[uN]	[N/m]	[um]	[um^2]	[MPa]	[MPa]
335	1.000000	0.002676	7.36834e+06	-55389.1	955.819	-29741.9	0.000000	0.000000	6.002800	-0.016603	NaN	0.000000	0.001654	0.001638	28.0816	0.029874	0.000919	32.5187	-5.458354	-168.125	0.003141	0.001424	-1.132495	-1.133747	-0.016603	32.5187	-1.132113	-1.351938E+15	1.228071E-17	NaN
335	1.000000	0.044630	7.36834e+06	-55389.1	955.819	-29741.9	0.000000	0.000000	6.044758	0.074816	NaN	0.000000	0.001656	0.001647	28.0816	0.112641	0.001899	59.3258	170.968	15.2774	0.056217	0.043264	-1.090542	-1.091907	0.074816	59.3258	-1.091487	-3.852859E+14	-1.941836E-16	NaN
335	1.000000	0.086634	7.36834e+06	-55389.1	955.818	-29741.9	0.000000	0.000000	6.086758	-0.027188	NaN	0.000000	0.001618	0.001648	28.0815	0.045147	0.001941	23.2561	28.5199	-168.13	-0.026554	0.085274	-1.048537	-1.049897	-0.027188	23.2561	-1.047660	-9.930289E+13	2.737883E-16	NaN
335	1.000000	0.128633	7.36834e+06	-55389.1	955.819	-29741.9	0.000000	0.000000	6.128758	0.008163	NaN	0.000000	0.001569	0.001661	28.0806	0.077644	0.001930	40.2371	-168.572	13.5219	-0.038249	0.127346	-1.006539	-1.007825	0.008163	40.2371	-1.006691	-2.791517E+13	-2.924291E-16	NaN
335	1.000000	0.170667	7.36834e+06	-55389.1	955.818	-29741.9	0.000000	0.000000	6.170792	0.002785	NaN	0.000000	0.001593	0.001621	28.0804	0.125639	0.002037	61.6715	146.708	-169.565	-0.070220	0.169342	-0.964504	-0.965829	0.002785	61.6715	-0.964538	-7.551737E+12	-3.688091E-16	NaN
335	1.000000	0.212674	7.36834e+06	-55389.1	955.818	-29741.9	0.000000	0.000000	6.212797	-0.038948	NaN	0.000000	0.001566	0.001605	28.0803	0.042361	0.001982	21.3781	-110.281	14.7618	-0.048813	0.211370	-0.922498	-0.923802	-0.038948	21.3781	-0.921132	-1.961025E+12	1.986079E-14	NaN
335	1.000000	0.254694	7.36834e+06	-55389.1	955.818	-29741.9	0.000000	0.000000	6.254820	0.018812	NaN	0.000000	0.001633	0.001624	28.0818	0.076014	0.001959	38.8052	167.512	-166.69	0.047630	0.253398	-0.880477	-0.881774	0.018812	38.8052	-0.880841	-5.598550E+11	-3.360090E-14	NaN
335	1.000000	0.296747	7.36834e+06	-55389.1	955.817	-29741.9	0.000000	0.000000	6.296872	-0.003502	NaN	0.000000	0.001571	0.001624	28.0815	0.051594	0.001801	28.6508	-105.481	11.2109	0.062232	0.295407	-0.838425	-0.839765	-0.003502	28.6508	-0.838333	-1.488358E+11	2.353082E-14	NaN
335	1.000000	0.338737	7.36834e+06	-55389.1	955.819	-29741.9	0.000000	0.000000	6.338864	0.039383	NaN	0.000000	0.001599	0.001623	28.0815	0.021997	0.001924	11.4342	97.1382	-167.582	-0.020962	0.337470	-0.796434	-0.797701	0.039383	11.4342	-0.799018	-4.360394E+10	-9.032068E-13	NaN
335	1.000000	0.380782	7.36834e+06	-55389.1	955.818	-29741.9	0.000000	0.000000	6.380909	0.029824	NaN	0.000000	0.001619	0.001616	28.0815	0.050280	0.001926	26.0993	38.5654	12.3359	0.052692	0.379390	-0.754389	-0.755781	0.029824	26.0993	-0.755246	-1.108209E+10	-2.691200E-12	NaN
335	1.000000	0.422767	7.36834e+06	-55389.1	955.819	-29741.9	0.000000	0.000000	6.422891	-0.024584	NaN	0.000000	0.001572	0.001631	28.0811	0.071951	0.001956	36.7766	25.0656	-164.792	-0.039711	0.421472	-0.712404	-0.713700	-0.024584	36.7766	-0.711903	-2.844554E+9	8.642409E-12	NaN
335	1.000000	0.464788	7.36834e+06	-55389.1	955.819	-29741.9	0.000000	0.000000	6.464912	-0.030938	NaN	0.000000	0.001565	0.001681	28.0803	0.081493	0.001932	42.188	147.576	11.4523	-0.021735	0.463440	-0.670384	-0.671732	-0.030938	42.188	-0.669834	-7.570286E+8	4.086791E-11	NaN
335	1.000000	0.506830	7.36834e+06	-55389.1	955.819	-29741.9	0.000000	0.000000	6.506957	0.046476	NaN	0.000000	0.001596	0.001713	28.08	0.030636	0.002066	14.828	-127.098	-164.87	0.021096	0.505462	-0.628342	-0.629710	0.046476	14.828	-0.630692	-2.200549E+8	-2.112012E-10	NaN
335	1.000000	0.548833	7.36834e+06	-55389.1	955.819	-29741.9	0.000000	0.000000	6.548956	-0.050281	NaN	0.000000	0.001631	0.001707	28.0814	0.097816	0.001925	50.8228	-19.6006	10.6834	-0.007422	0.547502	-0.586338	-0.587669	-0.050281	50.8228	-0.585596	-5.271591E+7	9.538101E-10	NaN
335	1.000000	0.590846	7.36834e+06	-55389.1	955.819	-29741.9	0.000000	0.000000	6.590973	0.050233	NaN	0.000000	0.001622	0.001710	28.0812	0.049883	0.001882	26.5053	-127.588	-168.345	-0.005474	0.589583	-0.544326	-0.545589	0.050233	26.5053	-0.545747	-1.482637E+7	-3.388060E-9	NaN
335	1.000000	0.632884	7.36834e+06	-55389.1	955.818	-29741.9	0.000000	0.000000	6.633006	-0.086142	NaN	0.000000	0.001611	0.001696	28.0813	0.074289	0.002026	36.6734	69.8167	16.8869	-0.053831	0.631503	-0.502287	-0.503668	-0.086142	36.6734	-0.500526	-3.48619e+06	2.470952E-8	NaN
335	1.000000	0.674904	7.36834e+06	-55389.1	955.818	-29741.9	0.000000	0.000000	6.675029	0.019119	NaN	0.000000	0.001578	0.001632	28.0804	0.059817	0.001964	30.4632	-167.813	-167.345	0.005821	0.673563	-0.460268	-0.461609	0.019119	30.4632	-0.460739	-966936	-1.977236E-8	NaN
335	1.000000	0.716879	7.36834e+06	-55389.1	955.817	-29741.9	0.000000	0.000000	6.717003	-0.033465	NaN	0.000000	0.001581	0.001675	28.0804	0.102280	0.002111	48.4571	-168.891	15.3911	-0.027777	0.715520	-0.418292	-0.419652	-0.033465	48.4571	-0.417774	-239241	1.398795E-7	NaN
335	1.000000	0.758905	7.36834e+06	-55389.1	955.817	-29741.9	0.000000	0.000000	6.759028	-0.059322	NaN	0.000000	0.001623	0.001618	28.0804	0.034836	0.002074	16.7986	-26.3519	-161.349	-0.010523	0.757584	-0.376266	-0.377587	-0.059322	16.7986	-0.373618	-56001	1.059304E-6	NaN
335	1.000000	0.800947	7.36834e+06	-55389.1	955.818	-29741.9	0.000000	0.000000	6.801071	-0.026419	NaN	0.000000	0.001583	0.001644	28.0817	0.127656	0.001914	66.7108	-78.6232	15.2607	-0.087159	0.799575	-0.334225	-0.335597	-0.026419	66.7108	-0.333928	-14890.8	1.774180E-6	NaN
335	1.000000	0.842983	7.36834e+06	-55389.1	955.819	-29741.9	0.000000	0.000000	6.843110	0.052665	NaN	0.000000	0.001613	0.001633	28.0817	0.111478	0.001960	56.8752	-106.501	-165.418	-0.010940	0.841633	-0.292189	-0.293539	0.052665	56.8752	-0.292883	-3685.17	-1.429100E-5	NaN
335	1.000000	0.884981	7.36834e+06	-55389.1	955.817	-29741.9	0.000000	0.000000	6.885108	0.026782	NaN	0.000000	0.001650	0.001628	28.0817	0.139100	0.001989	69.9509	101.04	13.9035	-0.025218	0.883612	-0.250190	-0.251559	0.026782	69.9509	-0.250477	-836.266	-3.202552E-5	NaN
335	1.000000	0.927022	7.36834e+06	-55389.1	955.818	-29741.9	0.000000	0.000000	6.927152	0.118233	NaN	0.000000	0.001572	0.001607	28.0822	0.078851	0.002008	39.2688	-117.488	-168.185	0.101684	0.925652	-0.208149	-0.209520	0.118233	39.2688	-0.210407	-194.722	-0.000607	NaN
335	1.000000	0.969015	7.36835e+06	-55389.1	955.818	-29741.9	0.000000	0.000000	6.969140	0.000597	NaN	0.000000	0.001568	0.001628	28.0805	0.041564	0.001878	22.137	150.376	16.0366	-0.020367	0.967686	-0.166157	-0.167485	0.000597	22.137	-0.166177	-35.2329	-1.693667E-5	NaN
335	1.000000	1.011029	7.36835e+06	-55389.1	955.819	-29741.9	0.000000	0.000000	7.011157	0.080110	NaN	0.000000	0.001586	0.001627	28.0804	0.099921	0.001982	50.4113	132.27	-165.889	0.043154	1.009748	-0.124143	-0.125424	0.080110	50.4113	-0.125335	-6.174601	-0.012974	NaN
335	1.000000	1.053019	7.36835e+06	-55389.1	955.817	-29741.9	0.000000	0.000000	7.053145	0.022150	NaN	0.000000	0.001594	0.001589	28.0803	0.019561	0.002049	9.547894	135.153	12.7726	-0.044433	1.051660	-0.082152	-0.083512	0.022150	9.547894	-0.083892	-0.772269	-0.028682	NaN
335	1.000000	1.095068	7.36835e+06	-55389.1	955.819	-29741.9	0.000000	0.000000	7.095194	0.014114	NaN	0.000000	0.001614	0.001577	28.0813	0.027785	0.001937	14.3426	-173.071	-164.296	0.058901	1.093803	-0.040103	-0.041369	0.014114	14.3426	-0.040841	-0.047966	-0.294248	NaN
335	1.000000	1.137065	7.36835e+06	-55389.1	955.817	-29741.9	0.000000	0.000000	7.137218	0.674817	NaN	0.000000	0.001604	0.001598	28.0814	1.196517	0.002014	593.991	15.0989	13.4739	0.186179	1.135756	0.001894	0.000585	0.674817	593.991	0.001042	0.000795	849.194	19251.5
335	2.000000	1.152669	7.36835e+06	-55389.1	955.817	-29741.9	0.000000	0.000000	7.153565	18.7396	NaN	0.000000	0.001620	0.001610	28.0821	16.9032	0.001717	9842.7	4.596972	-175.005	18.4027	1.152312	0.017497	0.017141	18.7396	9842.7	0.016070	0.016738	1119.58	69507.8
335	2.000000	1.163086	7.36835e+06	-55389.1	955.818	-29741.9	0.000000	0.000000	7.164927	41.6965	NaN	0.000000	0.001572	0.001588	28.0804	27.2168	0.001760	15460.7	6.989695	-1.458195	38.6106	1.162794	0.027915	0.027623	41.6965	15460.7	0.025892	0.032659	1276.72	78163.1
335	2.000000	1.173656	7.36835e+06	-55389.1	955.818	-29741.9	0.000000	0.000000	7.176822	73.9217	NaN	0.000000	0.001585	0.001587	28.0804	37.6372	0.001795	20968.9	5.004290	178.365	76.3008	1.173331	0.038485	0.038160	73.9217	20968.9	0.035841	0.053721	1376.02	82656.3
335	2.000000	1.184111	7.36835e+06	-55389.1	955.817	-29741.9	0.000000	0.000000	7.189149	119.442	NaN	0.000000	0.001573	0.001598	28.0803	46.4477	0.001784	26035.5	4.376672	-1.824950	118.7	1.183641	0.048939	0.048470	119.442	26035.5	0.045498	0.079009	1511.76	84625.5
335	2.000000	1.194617	7.36835e+06	-55389.1	955.818	-29741.9	0.000000	0.000000	7.201720	169.619	NaN	0.000000	0.001584	0.001551	28.0817	58.3528	0.001761	33129.3	5.433702	174.436	169.36	1.194172	0.059445	0.059001	169.619	33129.3	0.055605	0.110523	1534.7	91045.6
335	2.000000	1.205145	7.36835e+06	-55389.1	955.818	-29741.9	0.000000	0.000000	7.214314	219.849	NaN	0.000000	0.001581	0.001536	28.0818	68.3993	0.001772	38595.1	3.602657	-5.552626	220.932	1.204843	0.069974	0.069672	219.849	38595.1	0.065701	0.147043	1495.13	91956.6
335	2.000000	1.215494	7.36835e+06	-55389.1	955.819	-29741.9	0.000000	0.000000	7.227855	297.436	NaN	0.000000	0.001576	0.001629	28.0818	77.9453	0.001749	44559.6	5.685613	171.849	292.815	1.215080	0.080323	0.079908	297.436	44559.6	0.075317	0.186385	1595.82	94299.4
335	2.000000	1.226074	7.36835e+06	-55389.1	955.819	-29741.9	0.000000	0.000000	7.241154	363.542	NaN	0.000000	0.001557	0.001600	28.0819	86.4336	0.001721	50228.7	4.535761	-7.359435	363.611	1.225700	0.090902	0.090528	363.542	50228.7	0.085474	0.232668	1562.5	95138.6
335	2.000000	1.236525	7.36835e+06	-55389.1	955.819	-29741.9	0.000000	0.000000	7.254816	441.589	NaN	0.000000	0.001523	0.001593	28.0806	97.2629	0.001681	57857.2	5.003855	170.895	441.745	1.236263	0.101354	0.101091	441.589	57857.2	0.095629	0.283704	1556.51	99242.5
335	2.000000	1.242419	7.36835e+06	-55389.1	955.819	-29741.9	0.000000	0.000000	7.262974	496.61	NaN	0.000000	0.001524	0.001561	28.0804	103.737	0.001895	54736.7	2.947981	173.481	490.556	1.242122	0.107248	0.106951	496.61	54736.7	0.100443	0.309542	1604.33	89885.9

File: 2025-07-22_16-23-58_1_336.txt
2025-07-22, 16:23:58, 1
Index	Phase	Displacement	Time	Pos X	Pos Y	Pos Z	Rot A	Rot B	Piezo Z	Force A	Force B	Gripper	Voltage A	Voltage B	Temperature	Amplitude force	Amplitude pos	Stiffness	Phase shift	Phase excitation	Force A raw	Displacement raw	HMax	HMax raw	Real Force	Real Stiffness	Contact Depth	Area	Hardness	Reduced Mod.
[#]	[#]	[um]	[s]	[um]	[um]	[um]	[m°]	[m°]	[um]	[uN]	[uN]	[V]	[V]	[V]	[°C]	[uN]	[um]	[N/m]	[°]	[°]	[uN]	[um]	[um]	[um]	[uN]	[N/m]	[um]	[um^2]	[MPa]	[MPa]
336	1.000000	0.002635	7.36835e+06	-55439.1	955.818	-29741.9	0.000000	0.000000	6.002783	0.012419	NaN	0.000000	0.001528	0.001703	28.0799	0.090454	0.000862	104.983	-12.5966	-157.843	0.037178	0.001377	-1.015962	-1.017221	0.012419	104.983	-1.016051	-3.730939E+13	-3.328695E-16	NaN
336	1.000000	0.042623	7.36835e+06	-55439.1	955.819	-29741.9	0.000000	0.000000	6.042775	0.096333	NaN	0.000000	0.001533	0.001708	28.0795	0.072110	0.002041	35.332	-83.0878	-162.596	0.108143	0.041304	-0.975974	-0.977294	0.096333	35.332	-0.978019	-1.147427E+13	-8.395562E-15	NaN
336	1.000000	0.082592	7.36835e+06	-55439.1	955.82	-29741.9	0.000000	0.000000	6.082739	-0.010173	NaN	0.000000	0.001522	0.001701	28.078	0.069575	0.002011	34.594	-50.2569	-163.649	-0.052745	0.081342	-0.936006	-0.937256	-0.010173	34.594	-0.935785	-3.092236E+12	3.289968E-15	NaN
336	1.000000	0.122619	7.36835e+06	-55439.1	955.819	-29741.9	0.000000	0.000000	6.122767	0.019017	NaN	0.000000	0.001521	0.001712	28.0777	0.057836	0.001977	29.2526	-54.4686	-166.827	-0.007410	0.121339	-0.895979	-0.897258	0.019017	29.2526	-0.896466	-9.105694E+11	-2.088475E-14	NaN
336	1.000000	0.162627	7.36835e+06	-55439.1	955.819	-29741.9	0.000000	0.000000	6.162775	0.026176	NaN	0.000000	0.001508	0.001704	28.0777	0.075143	0.002059	36.5012	89.0416	-165.175	0.027391	0.161317	-0.855971	-0.857281	0.026176	36.5012	-0.856509	-2.623371E+11	-9.978185E-14	NaN
336	1.000000	0.202666	7.36835e+06	-55439.1	955.818	-29741.9	0.000000	0.000000	6.202815	0.036284	NaN	0.000000	0.001551	0.001724	28.0776	0.071289	0.002086	34.1699	-70.2875	-162.432	-0.042357	0.201340	-0.815931	-0.817257	0.036284	34.1699	-0.816728	-7.582850E+10	-4.785068E-13	NaN
336	1.000000	0.242663	7.36835e+06	-55439.1	955.817	-29741.9	0.000000	0.000000	6.242813	0.056452	NaN	0.000000	0.001486	0.001727	28.0789	0.134338	0.001985	67.6753	177.554	-165.897	-0.032844	0.241366	-0.775935	-0.777232	0.056452	67.6753	-0.776560	-2.160161E+10	-2.613329E-12	NaN
336	1.000000	0.282716	7.36835e+06	-55439.1	955.819	-29741.9	0.000000	0.000000	6.282862	-0.029469	NaN	0.000000	0.001496	0.001673	28.0789	0.066956	0.002112	31.6954	-142.424	-162.918	-0.029368	0.281377	-0.735881	-0.737221	-0.029469	31.6954	-0.735184	-5.908147E+9	4.987898E-12	NaN
336	1.000000	0.322750	7.36835e+06	-55439.1	955.819	-29741.9	0.000000	0.000000	6.322896	-0.038283	NaN	0.000000	0.001528	0.001717	28.079	0.022976	0.002006	11.4562	128.131	-164.451	-0.034516	0.321372	-0.695848	-0.697226	-0.038283	11.4562	-0.693342	-1.587007E+9	2.412260E-11	NaN
336	1.000000	0.362742	7.36835e+06	-55439.1	955.819	-29741.9	0.000000	0.000000	6.362891	0.040265	NaN	0.000000	0.001593	0.001717	28.0776	0.035476	0.002102	16.8735	9.354822	-166.137	-0.022568	0.361445	-0.655855	-0.657152	0.040265	16.8735	-0.657645	-5.154755E+8	-7.811144E-11	NaN
336	1.000000	0.402755	7.36835e+06	-55439.1	955.819	-29741.9	0.000000	0.000000	6.402904	0.036769	NaN	0.000000	0.001595	0.001696	28.0777	0.070946	0.001997	35.52	-97.34	-165.296	0.086156	0.401383	-0.615842	-0.617214	0.036769	35.52	-0.616619	-1.409776E+8	-2.608177E-10	NaN
336	1.000000	0.442750	7.36835e+06	-55439.1	955.82	-29741.9	0.000000	0.000000	6.442899	0.022040	NaN	0.000000	0.001551	0.001668	28.0783	0.080734	0.001932	41.7885	-96.1089	-164.261	-0.054119	0.441463	-0.575847	-0.577134	0.022040	41.7885	-0.576243	-3.916160E+7	-5.627906E-10	NaN
336	1.000000	0.482751	7.36835e+06	-55439.1	955.819	-29741.9	0.000000	0.000000	6.482900	0.035057	NaN	0.000000	0.001569	0.001677	28.0782	0.023237	0.002089	11.1253	-115.584	-164.224	-0.013878	0.481457	-0.535846	-0.537140	0.035057	11.1253	-0.538210	-1.165532E+7	-3.007833E-9	NaN
336	1.000000	0.522799	7.36835e+06	-55439.1	955.818	-29741.9	0.000000	0.000000	6.522949	0.081349	NaN	0.000000	0.001552	0.001733	28.0792	0.089385	0.001922	46.5035	-4.984325	-163.623	0.106330	0.521466	-0.495799	-0.497132	0.081349	46.5035	-0.497111	-3.12395e+06	-2.604052E-8	NaN
336	1.000000	0.562808	7.36835e+06	-55439.1	955.819	-29741.9	0.000000	0.000000	6.562953	-0.074414	NaN	0.000000	0.001535	0.001684	28.0791	0.005816	0.001951	2.980197	-126.229	-163.595	0.024363	0.561475	-0.455789	-0.457122	-0.074414	2.980197	-0.437062	-448626	1.658714E-7	NaN
336	1.000000	0.602866	7.36835e+06	-55439.1	955.819	-29741.9	0.000000	0.000000	6.603017	0.091023	NaN	0.000000	0.001473	0.001749	28.079	0.084004	0.002034	41.2932	86.114	-163.24	0.070816	0.601567	-0.415732	-0.417031	0.091023	41.2932	-0.417385	-236219	-3.853318E-7	NaN
336	1.000000	0.642884	7.36835e+06	-55439.1	955.818	-29741.9	0.000000	0.000000	6.643031	-0.023711	NaN	0.000000	0.001499	0.001711	28.0775	0.120918	0.002042	59.2134	-161.826	-167.47	0.016513	0.641534	-0.375714	-0.377063	-0.023711	59.2134	-0.375413	-59430.8	3.989662E-7	NaN
336	1.000000	0.682860	7.36835e+06	-55439.1	955.819	-29741.9	0.000000	0.000000	6.683006	-0.028507	NaN	0.000000	0.001525	0.001677	28.0777	0.052218	0.002040	25.6027	-70.9054	-162.371	0.022939	0.681505	-0.335737	-0.337092	-0.028507	25.6027	-0.334902	-15387.3	1.852616E-6	NaN
336	1.000000	0.722891	7.36835e+06	-55439.1	955.819	-29741.9	0.000000	0.000000	6.723037	-0.032745	NaN	0.000000	0.001535	0.001719	28.0777	0.083943	0.001999	42.0005	110.853	-163.307	-0.012682	0.721607	-0.295707	-0.296990	-0.032745	42.0005	-0.295122	-3980.22	8.227030E-6	NaN
336	1.000000	0.762932	7.36835e+06	-55439.1	955.818	-29741.9	0.000000	0.000000	6.763079	-0.009797	NaN	0.000000	0.001526	0.001718	28.078	0.113119	0.002016	56.1004	-92.1415	-164.679	0.012817	0.761545	-0.255665	-0.257052	-0.009797	56.1004	-0.255534	-1000.79	9.789064E-6	NaN
336	1.000000	0.802910	7.36835e+06	-55439.1	955.818	-29741.9	0.000000	0.000000	6.803057	0.005955	NaN	0.000000	0.001523	0.001750	28.0791	0.065903	0.002153	30.6109	-125.734	-162.489	-0.047230	0.801596	-0.215688	-0.217002	0.005955	30.6109	-0.215834	-238.187	-2.500016E-5	NaN
336	1.000000	0.842895	7.36835e+06	-55439.1	955.819	-29741.9	0.000000	0.000000	6.843041	-0.030320	NaN	0.000000	0.001535	0.001725	28.0795	0.063022	0.002116	29.7831	129.895	-166.073	0.025177	0.841676	-0.175703	-0.176921	-0.030320	29.7831	-0.174939	-49.9959	0.000606	NaN
336	1.000000	0.882963	7.36835e+06	-55439.1	955.819	-29741.9	0.000000	0.000000	6.883109	-0.019180	NaN	0.000000	0.001494	0.001731	28.0794	0.041433	0.001848	22.4197	26.2765	-164.295	-0.012107	0.881641	-0.135635	-0.136956	-0.019180	22.4197	-0.134993	-9.509662	0.002017	NaN
336	1.000000	0.922990	7.36835e+06	-55439.1	955.819	-29741.9	0.000000	0.000000	6.923135	-0.054644	NaN	0.000000	0.001531	0.001695	28.0783	0.056655	0.002092	27.0848	107.124	-163.301	-0.052528	0.921658	-0.095607	-0.096940	-0.054644	27.0848	-0.094094	-1.344999	0.040628	NaN
336	1.000000	0.962973	7.36835e+06	-55439.1	955.819	-29741.9	0.000000	0.000000	6.963121	0.027804	NaN	0.000000	0.001527	0.001707	28.0784	0.050740	0.001859	27.2989	-121.95	-166.658	-0.017952	0.961705	-0.055625	-0.056893	0.027804	27.2989	-0.056389	-0.141490	-0.196509	NaN
336	1.000000	1.002965	7.36835e+06	-55439.1	955.819	-29741.9	0.000000	0.000000	7.003112	-0.008348	NaN	0.000000	0.001504	0.001699	28.0785	0.082288	0.002036	40.4064	105.297	-165.334	0.025530	1.001723	-0.015632	-0.016874	-0.008348	40.4064	-0.015477	-0.009563	0.872952	NaN
336	2.000000	1.032565	7.36836e+06	-55439.1	955.818	-29741.9	0.000000	0.000000	7.033193	11.6782	NaN	0.000000	0.001459	0.001727	28.08	12.7572	0.001729	7378.79	6.612351	-174.198	10.7666	1.032371	0.013967	0.013773	11.6782	7378.79	0.012780	0.012438	938.901	60447.8
336	2.000000	1.042498	7.36836e+06	-55439.1	955.819	-29741.9	0.000000	0.000000	7.043813	28.3697	NaN	0.000000	0.001499	0.001707	28.0799	22.8037	0.001799	12675.7	6.415916	-178.007	27.3385	1.042256	0.023901	0.023658	28.3697	12675.7	0.022222	0.026155	1084.67	71608.7
336	2.000000	1.052494	7.36836e+06	-55439.1	955.819	-29741.9	0.000000	0.000000	7.054741	51.0468	NaN	0.000000	0.001467	0.001786	28.0794	31.311	0.001820	17206.8	8.156678	178.333	49.7554	1.052153	0.033896	0.033555	51.0468	17206.8	0.031671	0.044278	1152.87	74710.2
336	2.000000	1.062480	7.36836e+06	-55439.1	955.819	-29741.9	0.000000	0.000000	7.066140	85.3845	NaN	0.000000	0.001499	0.001743	28.0794	42.115	0.001791	23520.6	5.302706	178.175	85.1159	1.062152	0.043883	0.043555	85.3845	23520.6	0.041160	0.067060	1273.25	82982.9
336	2.000000	1.072494	7.36836e+06	-55439.1	955.819	-29741.9	0.000000	0.000000	7.078005	130.376	NaN	0.000000	0.001457	0.001741	28.0778	50.086	0.001718	29154.8	3.882197	178.289	130.431	1.072050	0.053896	0.053452	130.376	29154.8	0.050542	0.094097	1385.55	86834.9
336	2.000000	1.082488	7.36836e+06	-55439.1	955.819	-29741.9	0.000000	0.000000	7.089702	171.775	NaN	0.000000	0.001546	0.001742	28.0778	63.0615	0.001874	33656.7	6.027733	174.001	173.218	1.082215	0.063890	0.063618	171.775	33656.7	0.060063	0.126033	1362.94	86617.1
336	2.000000	1.092422	7.36836e+06	-55439.1	955.819	-29741.9	0.000000	0.000000	7.101973	228.604	NaN	0.000000	0.001510	0.001760	28.0779	70.702	0.001786	39579.6	2.123625	176.976	227.999	1.092065	0.073824	0.073467	228.604	39579.6	0.069492	0.162028	1410.89	89835.7
336	2.000000	1.102391	7.36836e+06	-55439.1	955.82	-29741.9	0.000000	0.000000	7.114489	290.506	NaN	0.000000	0.001483	0.001720	28.0793	81.5375	0.001802	45242	8.067231	169.627	287.508	1.102049	0.083793	0.083451	290.506	45242	0.078977	0.202512	1434.51	91852.2
336	2.000000	1.112396	7.36836e+06	-55439.1	955.819	-29741.9	0.000000	0.000000	7.127542	364.599	NaN	0.000000	0.001516	0.001797	28.0792	90.0946	0.001825	49357.5	8.840973	168.736	362.111	1.112075	0.093798	0.093477	364.599	49357.5	0.088258	0.246187	1480.98	90885.3
336	2.000000	1.122380	7.36836e+06	-55439.1	955.82	-29741.9	0.000000	0.000000	7.140638	440.251	NaN	0.000000	0.001533	0.001783	28.079	99.1496	0.001759	56370.9	6.679890	170.329	438.766	1.122035	0.103782	0.103437	440.251	56370.9	0.097925	0.295893	1487.87	94680.5
336	2.000000	1.127405	7.36836e+06	-55439.1	955.821	-29741.9	0.000000	0.000000	7.147238	478.524	NaN	0.000000	0.001497	0.001740	28.0792	102.195	0.001621	63063.7	3.176452	172.758	477.575	1.127168	0.108808	0.108571	478.524	63063.7	0.103117	0.324348	1475.34	101169