Folder: unikorn_login/remote_trans/data/nanoindenter/0828-1/data/Data_2025-08-06,11h17m57s (part 82)

File: 2025-07-22_16-23-58_1_181.txt
2025-07-22, 16:23:58, 1
Index	Phase	Displacement	Time	Pos X	Pos Y	Pos Z	Rot A	Rot B	Piezo Z	Force A	Force B	Gripper	Voltage A	Voltage B	Temperature	Amplitude force	Amplitude pos	Stiffness	Phase shift	Phase excitation	Force A raw	Displacement raw	HMax	HMax raw	Real Force	Real Stiffness	Contact Depth	Area	Hardness	Reduced Mod.
[#]	[#]	[um]	[s]	[um]	[um]	[um]	[m°]	[m°]	[um]	[uN]	[uN]	[V]	[V]	[V]	[°C]	[uN]	[um]	[N/m]	[°]	[°]	[uN]	[um]	[um]	[um]	[uN]	[N/m]	[um]	[um^2]	[MPa]	[MPa]
181	1.000000	0.002268	7.36681e+06	-47689.1	955.819	-29764.9	0.000000	0.000000	6.002816	-0.033954	NaN	0.000000	0.001623	0.001691	28.0823	0.073995	0.000971	76.2311	-155.708	-167.387	0.027644	0.000948	-1.768728	-1.770048	-0.033954	76.2311	-1.768394	-4.117822E+23	8.245659E-26	NaN
181	1.000000	0.062191	7.36681e+06	-47689.1	955.819	-29764.9	0.000000	0.000000	6.062742	0.033035	NaN	0.000000	0.001601	0.001685	28.1172	0.069234	0.001907	36.3133	108.643	-165.295	0.005724	0.060921	-1.708805	-1.710075	0.033035	36.3133	-1.709488	-6.799364E+22	-4.858495E-25	NaN
181	1.000000	0.122241	7.36681e+06	-47689.1	955.818	-29764.9	0.000000	0.000000	6.122793	0.078908	NaN	0.000000	0.001577	0.001646	28.0828	0.037437	0.001933	19.3689	-26.1298	-166.972	0.010132	0.120905	-1.648756	-1.650092	0.078908	19.3689	-1.651811	-1.164404E+22	-6.776717E-24	NaN
181	1.000000	0.182260	7.36681e+06	-47689.1	955.817	-29764.8	0.000000	0.000000	6.182809	-0.018595	NaN	0.000000	0.001596	0.001648	28.118	0.104694	0.001900	55.1103	-147.465	-168.733	0.058123	0.180944	-1.588736	-1.590053	-0.018595	55.1103	-1.588483	-1.675084E+21	1.110065E-23	NaN
181	1.000000	0.242277	7.36681e+06	-47689.1	955.817	-29764.8	0.000000	0.000000	6.242827	0.008087	NaN	0.000000	0.001617	0.001657	28.0827	0.081345	0.001997	40.738	4.763964	-165.113	0.035461	0.240989	-1.528719	-1.530007	0.008087	40.738	-1.528868	-2.695934E+20	-2.999637E-23	NaN
181	1.000000	0.302301	7.36681e+06	-47689.1	955.818	-29764.8	0.000000	0.000000	6.302852	0.052143	NaN	0.000000	0.001582	0.001669	28.1175	0.147460	0.001992	74.0422	91.6394	-167.502	0.081075	0.301001	-1.468695	-1.469996	0.052143	74.0422	-1.469223	-4.328400E+19	-1.204675E-21	NaN
181	1.000000	0.362309	7.36681e+06	-47689.1	955.819	-29764.8	0.000000	0.000000	6.362859	0.020505	NaN	0.000000	0.001676	0.001654	28.0765	0.055306	0.001987	27.8279	-151.713	-165.599	-0.006064	0.361041	-1.408688	-1.409956	0.020505	27.8279	-1.409240	-6.866127E+18	-2.986361E-21	NaN
181	1.000000	0.422336	7.36681e+06	-47689.1	955.818	-29764.8	0.000000	0.000000	6.422886	0.039017	NaN	0.000000	0.001650	0.001648	28.0769	0.029035	0.002091	13.8847	170.023	-164.998	0.060990	0.421079	-1.348661	-1.349918	0.039017	13.8847	-1.350769	-1.138913E+18	-3.425853E-20	NaN
181	1.000000	0.482379	7.36681e+06	-47689.1	955.818	-29764.8	0.000000	0.000000	6.482930	0.067217	NaN	0.000000	0.001557	0.001670	28.0778	0.048392	0.002018	23.9758	92.0932	-166.084	0.018606	0.481014	-1.288618	-1.289983	0.067217	23.9758	-1.290721	-1.796338E+17	-3.741868E-19	NaN
181	1.000000	0.542409	7.36681e+06	-47689.1	955.819	-29764.8	0.000000	0.000000	6.542961	0.067569	NaN	0.000000	0.001546	0.001666	28.0783	0.020543	0.002144	9.583099	-45.6152	-167.403	-0.012916	0.541115	-1.228587	-1.229882	0.067569	9.583099	-1.233875	-3.120310E+16	-2.165449E-18	NaN
181	1.000000	0.602434	7.36681e+06	-47689.1	955.817	-29764.8	0.000000	0.000000	6.602986	0.074991	NaN	0.000000	0.001582	0.001703	28.0766	0.128163	0.002051	62.5001	107.784	-166.181	0.037472	0.601149	-1.168563	-1.169847	0.074991	62.5001	-1.169463	-4.282424E+15	-1.751131E-17	NaN
181	1.000000	0.662436	7.36681e+06	-47689.1	955.819	-29764.8	0.000000	0.000000	6.662983	-0.035232	NaN	0.000000	0.001629	0.001686	28.0763	0.098357	0.002007	49.008	-84.7817	-165.751	-0.056064	0.661154	-1.108561	-1.109843	-0.035232	49.008	-1.108022	-6.423035E+14	5.485190E-17	NaN
181	1.000000	0.722456	7.36681e+06	-47689.1	955.817	-29764.8	0.000000	0.000000	6.723011	0.147589	NaN	0.000000	0.001618	0.001689	28.0776	0.042412	0.002100	20.1996	58.0117	-164.176	0.106383	0.721144	-1.048540	-1.049852	0.147589	20.1996	-1.054020	-1.209080E+14	-1.220672E-15	NaN
181	1.000000	0.782514	7.36681e+06	-47689.1	955.819	-29764.8	0.000000	0.000000	6.783063	-0.002207	NaN	0.000000	0.001602	0.001678	28.0773	0.071399	0.001994	35.8025	28.5176	-163.17	0.021362	0.781206	-0.988483	-0.989791	-0.002207	35.8025	-0.988436	-1.585085E+13	1.392432E-16	NaN
181	1.000000	0.842556	7.36681e+06	-47689.1	955.818	-29764.8	0.000000	0.000000	6.843105	-0.000105	NaN	0.000000	0.001601	0.001666	28.0785	0.052048	0.002013	25.855	145.848	-162.259	0.055612	0.841298	-0.928440	-0.929699	-0.000105	25.855	-0.928437	-2.460953E+12	4.272465E-17	NaN
181	1.000000	0.902566	7.36681e+06	-47689.1	955.818	-29764.8	0.000000	0.000000	6.903115	-0.004288	NaN	0.000000	0.001627	0.001703	28.0765	0.091882	0.002140	42.9393	167.857	-167.592	0.019801	0.901243	-0.868431	-0.869754	-0.004288	42.9393	-0.868356	-3.794893E+11	1.129903E-14	NaN
181	1.000000	0.962565	7.36681e+06	-47689.1	955.818	-29764.8	0.000000	0.000000	6.963113	-0.015221	NaN	0.000000	0.001669	0.001646	28.0765	0.088491	0.002003	44.1806	40.4776	-163.993	0.012211	0.961301	-0.808432	-0.809696	-0.015221	44.1806	-0.808174	-5.804874E+10	2.622040E-13	NaN
181	1.000000	1.022602	7.36681e+06	-47689.1	955.817	-29764.8	0.000000	0.000000	7.023155	0.100558	NaN	0.000000	0.001649	0.001673	28.078	0.033792	0.002057	16.4285	179.195	-164.816	-0.010971	1.021282	-0.748395	-0.749714	0.100558	16.4285	-0.752986	-1.032430E+10	-9.739926E-12	NaN
181	1.000000	1.082635	7.36681e+06	-47689.1	955.816	-29764.8	0.000000	0.000000	7.083184	0.001415	NaN	0.000000	0.001555	0.001689	28.0778	0.070124	0.001987	35.2914	-66.8401	-168.098	0.017649	1.081361	-0.688362	-0.689636	0.001415	35.2914	-0.688392	-1.358135E+9	-1.041678E-12	NaN
181	1.000000	1.142692	7.36681e+06	-47689.1	955.817	-29764.8	0.000000	0.000000	7.143241	0.016019	NaN	0.000000	0.001564	0.001695	28.0766	0.043418	0.001934	22.4547	36.7837	-168.068	0.037782	1.141385	-0.628305	-0.629612	0.016019	22.4547	-0.628840	-2.075366E+8	-7.718458E-11	NaN
181	1.000000	1.202693	7.36681e+06	-47689.1	955.818	-29764.8	0.000000	0.000000	7.203242	0.009798	NaN	0.000000	0.001549	0.001713	28.0764	0.068794	0.002044	33.6501	-6.864365	-164.925	-0.000172	1.201338	-0.568304	-0.569659	0.009798	33.6501	-0.568522	-3.063450E+7	-3.198485E-10	NaN
181	1.000000	1.262686	7.36682e+06	-47689.1	955.818	-29764.8	0.000000	0.000000	7.263234	-0.007795	NaN	0.000000	0.001551	0.001730	28.0767	0.058704	0.001950	30.1025	31.2697	-165.456	-0.009287	1.261462	-0.508311	-0.509534	-0.007795	30.1025	-0.508117	-4.44818e+06	1.752437E-9	NaN
181	1.000000	1.322728	7.36682e+06	-47689.1	955.817	-29764.8	0.000000	0.000000	7.323280	0.074587	NaN	0.000000	0.001587	0.001730	28.0781	0.076020	0.001956	38.868	146.872	-164.134	0.069237	1.321399	-0.448269	-0.449598	0.074587	38.868	-0.449708	-676449	-1.102624E-7	NaN
181	1.000000	1.382805	7.36682e+06	-47689.1	955.817	-29764.8	0.000000	0.000000	7.383354	0.001394	NaN	0.000000	0.001555	0.001672	28.0778	0.055715	0.001988	28.0304	-145.637	-166.031	-0.008251	1.381462	-0.388191	-0.389535	0.001394	28.0304	-0.388229	-90744.8	-1.536151E-8	NaN
181	1.000000	1.442791	7.36682e+06	-47689.1	955.819	-29764.8	0.000000	0.000000	7.443338	-0.047499	NaN	0.000000	0.001618	0.001689	28.0766	0.011420	0.001969	5.800606	104.858	-166.646	-0.041774	1.441441	-0.328205	-0.329556	-0.047499	5.800606	-0.322064	-9977.02	4.760871E-6	NaN
181	1.000000	1.502803	7.36682e+06	-47689.1	955.818	-29764.8	0.000000	0.000000	7.503354	0.051438	NaN	0.000000	0.001553	0.001746	28.0767	0.107366	0.001957	54.8646	56.6569	-164.08	0.075267	1.501522	-0.268194	-0.269475	0.051438	54.8646	-0.268897	-1602.4	-3.210052E-5	NaN
181	1.000000	1.562848	7.36682e+06	-47689.1	955.818	-29764.8	0.000000	0.000000	7.563398	0.016831	NaN	0.000000	0.001599	0.001677	28.0775	0.039419	0.002087	18.8881	-134.422	-165.652	0.086421	1.561515	-0.208148	-0.209481	0.016831	18.8881	-0.208817	-183.502	-9.171851E-5	NaN
181	1.000000	1.622879	7.36682e+06	-47689.1	955.818	-29764.8	0.000000	0.000000	7.623430	0.041569	NaN	0.000000	0.001651	0.001689	28.0777	0.076712	0.002109	36.375	170.081	-166.511	0.003265	1.621541	-0.148118	-0.149455	0.041569	36.375	-0.148975	-17.3492	-0.002396	NaN
181	1.000000	1.682920	7.36682e+06	-47689.1	955.818	-29764.8	0.000000	0.000000	7.683470	0.029401	NaN	0.000000	0.001570	0.001727	28.0765	0.050715	0.002116	23.9726	-117.437	-164.083	0.057905	1.681576	-0.088076	-0.089421	0.029401	23.9726	-0.088996	-1.023742	-0.028719	NaN
181	1.000000	1.742920	7.36682e+06	-47689.1	955.818	-29764.8	0.000000	0.000000	7.743471	0.038963	NaN	0.000000	0.001622	0.001635	28.0767	0.078659	0.002084	37.751	-127.258	-164.216	-0.046858	1.741682	-0.028077	-0.029315	0.038963	37.751	-0.028851	-0.021389	-1.821695	NaN
181	2.000000	1.785432	7.36682e+06	-47689.1	955.818	-29764.8	0.000000	0.000000	7.786732	18.2729	NaN	0.000000	0.001599	0.001682	28.0767	15.5706	0.001745	8923.68	2.979493	-173.407	17.3741	1.785089	0.014435	0.014092	18.2729	8923.68	0.012899	0.012585	1451.96	72675.9
181	2.000000	1.800355	7.36682e+06	-47689.1	955.819	-29764.8	0.000000	0.000000	7.803060	52.4374	NaN	0.000000	0.001615	0.001690	28.0777	29.4165	0.001662	17696.6	4.890183	179.993	52.186	1.800046	0.029358	0.029050	52.4374	17696.6	0.027136	0.035016	1497.52	86402.8
181	2.000000	1.815347	7.36682e+06	-47689.1	955.819	-29764.8	0.000000	0.000000	7.820042	100.854	NaN	0.000000	0.001597	0.001712	28.0782	42.8248	0.001803	23755.2	-0.511038	-177.565	99.1983	1.814991	0.044350	0.043995	100.854	23755.2	0.041166	0.067076	1503.57	83800.7
181	2.000000	1.830297	7.36682e+06	-47689.1	955.819	-29764.8	0.000000	0.000000	7.837363	158.509	NaN	0.000000	0.001632	0.001668	28.0766	55.4344	0.001803	30739.3	4.755629	175.636	158.514	1.830079	0.059300	0.059082	158.509	30739.3	0.055433	0.109943	1441.74	84700.2
181	2.000000	1.845266	7.36682e+06	-47689.1	955.819	-29764.8	0.000000	0.000000	7.855691	240.211	NaN	0.000000	0.001633	0.001698	28.0769	69.5655	0.001830	38020.5	1.995834	175.809	237.23	1.845030	0.074270	0.074033	240.211	38020.5	0.069531	0.162186	1481.08	86254.9
181	2.000000	1.860292	7.36682e+06	-47689.1	955.82	-29764.8	0.000000	0.000000	7.874330	328.093	NaN	0.000000	0.001634	0.001659	28.078	81.5916	0.001889	43187.5	1.642957	176.467	328.324	1.860010	0.089295	0.089014	328.093	43187.5	0.083598	0.223758	1466.29	83414.6
181	2.000000	1.875225	7.36682e+06	-47689.1	955.82	-29764.8	0.000000	0.000000	7.893326	426.929	NaN	0.000000	0.001624	0.001653	28.0781	96.4193	0.001823	52901.5	6.125840	169.707	424.366	1.875046	0.104228	0.104049	426.929	52901.5	0.098175	0.297237	1436.33	88652.2
181	2.000000	1.878234	7.36682e+06	-47689.1	955.819	-29764.8	0.000000	0.000000	7.897542	456.259	NaN	0.000000	0.001582	0.001658	28.078	99.1835	0.001825	54351.8	7.376493	168.45	455.226	1.877959	0.107238	0.106963	456.259	54351.8	0.100942	0.312278	1461.07	88862.1

File: 2025-07-22_16-23-58_1_182.txt
2025-07-22, 16:23:58, 1
Index	Phase	Displacement	Time	Pos X	Pos Y	Pos Z	Rot A	Rot B	Piezo Z	Force A	Force B	Gripper	Voltage A	Voltage B	Temperature	Amplitude force	Amplitude pos	Stiffness	Phase shift	Phase excitation	Force A raw	Displacement raw	HMax	HMax raw	Real Force	Real Stiffness	Contact Depth	Area	Hardness	Reduced Mod.
[#]	[#]	[um]	[s]	[um]	[um]	[um]	[m°]	[m°]	[um]	[uN]	[uN]	[V]	[V]	[V]	[°C]	[uN]	[um]	[N/m]	[°]	[°]	[uN]	[um]	[um]	[um]	[uN]	[N/m]	[um]	[um^2]	[MPa]	[MPa]
182	1.000000	0.002452	7.36682e+06	-47739.1	955.819	-29765.3	0.000000	0.000000	6.002814	0.054428	NaN	0.000000	0.001566	0.001721	28.0781	0.089801	0.000913	98.409	-91.4308	-169.012	0.086521	0.001169	-1.076571	-1.077854	0.054428	98.409	-1.076986	-2.460581E+14	-2.212015E-16	NaN
182	1.000000	0.042415	7.36682e+06	-47739.1	955.818	-29765.3	0.000000	0.000000	6.042772	-0.047873	NaN	0.000000	0.001567	0.001703	28.078	0.103624	0.001947	53.2225	-174.838	-168.295	-0.053090	0.041101	-1.036608	-1.037922	-0.047873	53.2225	-1.035934	-6.906950E+13	6.931095E-16	NaN
182	1.000000	0.082425	7.36682e+06	-47739.1	955.818	-29765.3	0.000000	0.000000	6.082788	0.072886	NaN	0.000000	0.001606	0.001685	28.0792	0.091584	0.001992	45.9661	14.6203	-163.463	0.114739	0.081048	-0.996598	-0.997976	0.072886	45.9661	-0.997787	-2.118258E+13	-3.440836E-15	NaN
182	1.000000	0.122402	7.36682e+06	-47739.1	955.818	-29765.3	0.000000	0.000000	6.122765	0.071672	NaN	0.000000	0.001562	0.001683	28.0789	0.071253	0.002133	33.4061	57.5115	-165.596	0.072538	0.121110	-0.956621	-0.957913	0.071672	33.4061	-0.958230	-6.208800E+12	-1.154363E-14	NaN
182	1.000000	0.162444	7.36682e+06	-47739.1	955.818	-29765.3	0.000000	0.000000	6.162807	0.089707	NaN	0.000000	0.001607	0.001727	28.0789	0.016814	0.002095	8.025893	34.2114	-165.266	0.039631	0.161113	-0.916579	-0.917910	0.089707	8.025893	-0.924962	-2.209006E+12	-4.060950E-14	NaN
182	1.000000	0.202442	7.36682e+06	-47739.1	955.819	-29765.3	0.000000	0.000000	6.202805	0.076037	NaN	0.000000	0.001621	0.001698	28.0778	0.070967	0.001940	36.5818	-98.7444	-164.406	0.093369	0.201137	-0.876581	-0.877886	0.076037	36.5818	-0.878140	-5.147025E+11	-1.477304E-13	NaN
182	1.000000	0.242459	7.36682e+06	-47739.1	955.819	-29765.3	0.000000	0.000000	6.242821	0.046010	NaN	0.000000	0.001572	0.001670	28.0779	0.083076	0.002100	39.5515	-160.211	-168.504	0.006055	0.241159	-0.836564	-0.837864	0.046010	39.5515	-0.837437	-1.447310E+11	-3.178974E-13	NaN
182	1.000000	0.282483	7.36682e+06	-47739.1	955.817	-29765.3	0.000000	0.000000	6.282846	0.089473	NaN	0.000000	0.001597	0.001676	28.0779	0.071502	0.001945	36.7621	-25.6932	-163.198	0.181165	0.281199	-0.796540	-0.797825	0.089473	36.7621	-0.798366	-4.272450E+10	-2.094194E-12	NaN
182	1.000000	0.322505	7.36682e+06	-47739.1	955.819	-29765.3	0.000000	0.000000	6.322868	0.073009	NaN	0.000000	0.001639	0.001701	28.0778	0.123939	0.002116	58.5587	-172.957	-166.716	0.000862	0.321199	-0.756518	-0.757824	0.073009	58.5587	-0.757453	-1.187556E+10	-6.147826E-12	NaN
182	1.000000	0.362517	7.36682e+06	-47739.1	955.817	-29765.3	0.000000	0.000000	6.362876	0.005083	NaN	0.000000	0.001576	0.001658	28.0792	0.041591	0.002080	19.9939	-142.232	-168.678	0.025719	0.361220	-0.716507	-0.717803	0.005083	19.9939	-0.716698	-3.306966E+9	-1.536997E-12	NaN
182	1.000000	0.402514	7.36682e+06	-47739.1	955.818	-29765.3	0.000000	0.000000	6.402877	0.083983	NaN	0.000000	0.001604	0.001662	28.0789	0.147275	0.002079	70.8381	84.2922	-166.023	0.041217	0.401188	-0.676509	-0.677836	0.083983	70.8381	-0.677398	-9.607723E+8	-8.741249E-11	NaN
182	1.000000	0.442552	7.36682e+06	-47739.1	955.818	-29765.3	0.000000	0.000000	6.442913	0.034374	NaN	0.000000	0.001558	0.001662	28.0794	0.013974	0.001886	7.408278	56.4626	-164.195	0.064282	0.441267	-0.636471	-0.637756	0.034374	7.408278	-0.639951	-2.948621E+8	-1.165757E-10	NaN
182	1.000000	0.482559	7.36682e+06	-47739.1	955.819	-29765.3	0.000000	0.000000	6.482919	0.032271	NaN	0.000000	0.001595	0.001680	28.0773	0.095766	0.001926	49.7144	73.081	-162.096	0.059929	0.481290	-0.596465	-0.597733	0.032271	49.7144	-0.596952	-7.559099E+7	-4.269135E-10	NaN
182	1.000000	0.522584	7.36682e+06	-47739.1	955.819	-29765.3	0.000000	0.000000	6.522946	0.057121	NaN	0.000000	0.001565	0.001717	28.0774	0.045397	0.002026	22.4028	-62.393	-162.392	0.067755	0.521227	-0.556439	-0.557796	0.057121	22.4028	-0.558351	-2.215997E+7	-2.577668E-9	NaN
182	1.000000	0.562637	7.36682e+06	-47739.1	955.817	-29765.3	0.000000	0.000000	6.563000	0.089704	NaN	0.000000	0.001583	0.001707	28.0779	0.062566	0.002023	30.9265	115.789	-166.862	0.079688	0.561305	-0.516387	-0.517718	0.089704	30.9265	-0.518562	-6.21722e+06	-1.442832E-8	NaN
182	1.000000	0.602638	7.36682e+06	-47739.1	955.818	-29765.3	0.000000	0.000000	6.602998	0.028140	NaN	0.000000	0.001617	0.001721	28.079	0.123476	0.002037	60.6283	138.706	-164.418	-0.022892	0.601238	-0.476386	-0.477785	0.028140	60.6283	-0.476734	-1.62102e+06	-1.735936E-8	NaN
182	1.000000	0.642639	7.36682e+06	-47739.1	955.817	-29765.3	0.000000	0.000000	6.642999	0.023442	NaN	0.000000	0.001613	0.001692	28.079	0.040893	0.002034	20.1052	74.3508	-166.61	0.048903	0.641292	-0.436384	-0.437732	0.023442	20.1052	-0.437259	-451507	-5.192056E-8	NaN
182	1.000000	0.682662	7.36683e+06	-47739.1	955.817	-29765.3	0.000000	0.000000	6.683023	0.030823	NaN	0.000000	0.001618	0.001712	28.079	0.089673	0.002095	42.7981	-142.149	-164.195	0.032853	0.681310	-0.396361	-0.397714	0.030823	42.7981	-0.396901	-120721	-2.553256E-7	NaN
182	1.000000	0.722673	7.36683e+06	-47739.1	955.818	-29765.3	0.000000	0.000000	6.723037	0.105596	NaN	0.000000	0.001622	0.001695	28.0789	0.067677	0.002005	33.7541	3.724547	-162.979	0.033557	0.721352	-0.356350	-0.357671	0.105596	33.7541	-0.358697	-34119.1	-3.094922E-6	NaN
182	1.000000	0.762690	7.36683e+06	-47739.1	955.817	-29765.3	0.000000	0.000000	6.763053	0.093295	NaN	0.000000	0.001593	0.001697	28.078	0.111894	0.002007	55.7391	169.648	-164.617	0.006370	0.761363	-0.316333	-0.317661	0.093295	55.7391	-0.317589	-8572.84	-1.088261E-5	NaN
182	1.000000	0.802692	7.36683e+06	-47739.1	955.819	-29765.3	0.000000	0.000000	6.803052	0.019556	NaN	0.000000	0.001679	0.001686	28.0778	0.048077	0.002030	23.6841	-58.1813	-166.638	0.099815	0.801358	-0.276331	-0.277666	0.019556	23.6841	-0.276950	-2122.81	-9.212418E-6	NaN
182	1.000000	0.842713	7.36683e+06	-47739.1	955.818	-29765.3	0.000000	0.000000	6.843074	0.035876	NaN	0.000000	0.001643	0.001705	28.078	0.090527	0.001938	46.7112	-61.9651	-166.157	0.120415	0.841436	-0.236310	-0.237587	0.035876	46.7112	-0.236886	-513.854	-6.981692E-5	NaN
182	1.000000	0.882767	7.36683e+06	-47739.1	955.818	-29765.3	0.000000	0.000000	6.883126	-0.012951	NaN	0.000000	0.001648	0.001695	28.0797	0.071882	0.001936	37.1312	3.583194	-165.3	0.054421	0.881452	-0.196257	-0.197571	-0.012951	37.1312	-0.195995	-113.155	0.000114	NaN
182	1.000000	0.922781	7.36683e+06	-47739.1	955.818	-29765.3	0.000000	0.000000	6.923145	0.101019	NaN	0.000000	0.001655	0.001717	28.0796	0.043742	0.002041	21.4284	77.8558	-166.451	0.145845	0.921471	-0.156242	-0.157552	0.101019	21.4284	-0.159778	-27.1667	-0.003718	NaN
182	1.000000	0.962776	7.36683e+06	-47739.1	955.818	-29765.3	0.000000	0.000000	6.963136	0.009926	NaN	0.000000	0.001635	0.001689	28.0798	0.085078	0.001964	43.3149	84.3567	-165.102	-0.050906	0.961405	-0.116248	-0.117619	0.009926	43.3149	-0.116419	-4.085796	-0.002429	NaN
182	1.000000	1.002801	7.36683e+06	-47739.1	955.818	-29765.3	0.000000	0.000000	7.003159	-0.030318	NaN	0.000000	0.001601	0.001691	28.0791	0.093172	0.002003	46.5162	94.6977	-165.256	0.045002	1.001455	-0.076222	-0.077569	-0.030318	46.5162	-0.075734	-0.482448	0.062843	NaN
182	1.000000	1.042793	7.36683e+06	-47739.1	955.819	-29765.3	0.000000	0.000000	7.043154	0.040443	NaN	0.000000	0.001651	0.001689	28.0775	0.023615	0.002101	11.2407	-34.7338	-164.072	0.183764	1.041530	-0.036231	-0.037494	0.040443	11.2407	-0.038929	-0.041965	-0.963715	NaN
182	1.000000	1.082799	7.36683e+06	-47739.1	955.818	-29765.3	0.000000	0.000000	7.083283	3.034210	NaN	0.000000	0.001645	0.001788	28.0774	3.799577	0.001606	2365.59	5.623263	-164.056	1.594455	1.081515	0.003776	0.002492	3.034210	2365.59	0.002814	0.002224	1364.52	45833.1
182	2.000000	1.096377	7.36683e+06	-47739.1	955.819	-29765.3	0.000000	0.000000	7.097753	24.7158	NaN	0.000000	0.001627	0.001675	28.0774	18.9951	0.001818	10445.9	5.921155	-175.586	24.0633	1.096049	0.017354	0.017025	24.7158	10445.9	0.015579	0.016065	1538.45	75296
182	2.000000	1.106342	7.36683e+06	-47739.1	955.819	-29765.3	0.000000	0.000000	7.108658	47.6018	NaN	0.000000	0.001598	0.001722	28.0788	29.7082	0.001912	15538.7	5.881890	179.597	47.5417	1.106067	0.027318	0.027044	47.6018	15538.7	0.025021	0.031053	1532.92	80563.1
182	2.000000	1.116280	7.36683e+06	-47739.1	955.818	-29765.3	0.000000	0.000000	7.120083	83.7702	NaN	0.000000	0.001619	0.001711	28.0786	39.5725	0.001823	21709.8	5.240957	177.706	81.4266	1.115915	0.037257	0.036891	83.7702	21709.8	0.034363	0.050272	1666.34	88463.9
182	2.000000	1.126276	7.36683e+06	-47739.1	955.819	-29765.3	0.000000	0.000000	7.131613	121.049	NaN	0.000000	0.001646	0.001690	28.0788	48.9232	0.001868	26190.2	1.405070	-179.351	120.802	1.126008	0.047253	0.046984	121.049	26190.2	0.043787	0.074180	1631.83	87855.5
182	2.000000	1.136247	7.36683e+06	-47739.1	955.82	-29765.3	0.000000	0.000000	7.143673	171.876	NaN	0.000000	0.001667	0.001715	28.0774	57.3075	0.001765	32477.7	0.980714	178.961	169.804	1.136051	0.057223	0.057028	171.876	32477.7	0.053254	0.102737	1672.97	92575.3
182	2.000000	1.146340	7.36683e+06	-47739.1	955.82	-29765.3	0.000000	0.000000	7.156039	227.164	NaN	0.000000	0.001671	0.001709	28.0773	68.3537	0.001838	37195.7	5.498781	173.802	231.07	1.145953	0.067317	0.066929	227.164	37195.7	0.062736	0.135803	1672.74	92217
182	2.000000	1.156291	7.36683e+06	-47739.1	955.82	-29765.3	0.000000	0.000000	7.169016	300.763	NaN	0.000000	0.001680	0.001655	28.0779	76.71	0.001790	42852.3	6.838696	171.475	302.981	1.155841	0.077268	0.076817	300.763	42852.3	0.072004	0.172334	1745.23	94310.8
182	2.000000	1.166244	7.36683e+06	-47739.1	955.82	-29765.3	0.000000	0.000000	7.182082	376.51	NaN	0.000000	0.001648	0.001684	28.0773	86.9836	0.001740	49990.3	2.374480	174.286	375.889	1.165883	0.087220	0.086860	376.51	49990.3	0.081571	0.214317	1756.79	98657.6
182	2.000000	1.176229	7.36683e+06	-47739.1	955.82	-29765.3	0.000000	0.000000	7.195414	457.891	NaN	0.000000	0.001675	0.001691	28.079	96.1384	0.001774	54183.2	2.715146	174.316	455.396	1.175749	0.097206	0.096726	457.891	54183.2	0.090868	0.259185	1766.66	97237.3
182	2.000000	1.186381	7.36683e+06	-47739.1	955.818	-29765.3	0.000000	0.000000	7.208212	522.248	NaN	0.000000	0.001659	0.001667	28.0791	107.263	0.001820	58922.5	5.094273	171.142	531.207	1.186021	0.107357	0.106998	522.248	58922.5	0.100710	0.311004	1679.23	96532