Folder: unikorn_login/remote_trans/data/nanoindenter/0828-1/data/Data_2025-08-06,11h17m57s (part 43)

File: 2025-07-22_16-23-58_1_103.txt
2025-07-22, 16:23:58, 1
Index	Phase	Displacement	Time	Pos X	Pos Y	Pos Z	Rot A	Rot B	Piezo Z	Force A	Force B	Gripper	Voltage A	Voltage B	Temperature	Amplitude force	Amplitude pos	Stiffness	Phase shift	Phase excitation	Force A raw	Displacement raw	HMax	HMax raw	Real Force	Real Stiffness	Contact Depth	Area	Hardness	Reduced Mod.
[#]	[#]	[um]	[s]	[um]	[um]	[um]	[m°]	[m°]	[um]	[uN]	[uN]	[V]	[V]	[V]	[°C]	[uN]	[um]	[N/m]	[°]	[°]	[uN]	[um]	[um]	[um]	[uN]	[N/m]	[um]	[um^2]	[MPa]	[MPa]
103	1.000000	0.002356	7.36604e+06	-43789.1	955.82	-29778.4	0.000000	0.000000	6.002805	0.002860	NaN	0.000000	0.001567	0.001667	28.085	0.064862	0.000904	71.784	-178.938	-168.238	0.041154	0.001158	-1.148759	-1.149958	0.002860	71.784	-1.148789	-2.262495E+15	-1.264115E-18	NaN
103	1.000000	0.044304	7.36604e+06	-43789.1	955.818	-29778.4	0.000000	0.000000	6.044753	-0.006512	NaN	0.000000	0.001558	0.001651	28.1191	0.055038	0.002045	26.9187	83.3427	15.6817	-0.006902	0.042891	-1.106811	-1.108225	-0.006512	26.9187	-1.106630	-6.152613E+14	1.058349E-17	NaN
103	1.000000	0.086331	7.36604e+06	-43789.1	955.818	-29778.4	0.000000	0.000000	6.086784	0.101445	NaN	0.000000	0.001554	0.001652	28.1231	0.121151	0.002120	57.1383	-148.732	-163.979	0.049797	0.085051	-1.064785	-1.066064	0.101445	57.1383	-1.066116	-1.757956E+14	-5.770599E-16	NaN
103	1.000000	0.128356	7.36604e+06	-43789.1	955.818	-29778.4	0.000000	0.000000	6.128808	0.075172	NaN	0.000000	0.001564	0.001642	28.0825	0.060348	0.001957	30.8432	-133.467	12.5503	0.094458	0.126990	-1.022759	-1.024126	0.075172	30.8432	-1.024587	-4.860377E+13	-1.546630E-15	NaN
103	1.000000	0.170385	7.36604e+06	-43789.1	955.818	-29778.4	0.000000	0.000000	6.170836	0.066678	NaN	0.000000	0.001549	0.001602	28.0833	0.042545	0.001936	21.9795	150.821	-164.896	-0.002722	0.169071	-0.980731	-0.982045	0.066678	21.9795	-0.983006	-1.339379E+13	-4.978246E-15	NaN
103	1.000000	0.212386	7.36604e+06	-43789.1	955.819	-29778.4	0.000000	0.000000	6.212836	0.040639	NaN	0.000000	0.001595	0.001630	28.117	0.089705	0.002084	43.0353	-113.322	14.8323	0.024273	0.211036	-0.938730	-0.940080	0.040639	43.0353	-0.939438	-3.463842E+12	-1.173222E-14	NaN
103	1.000000	0.254388	7.36604e+06	-43789.1	955.818	-29778.4	0.000000	0.000000	6.254838	0.026249	NaN	0.000000	0.001574	0.001640	28.1221	0.080291	0.002095	38.334	-123.832	-163.866	-0.003133	0.253105	-0.896728	-0.898010	0.026249	38.334	-0.897241	-9.328000E+11	-2.813972E-14	NaN
103	1.000000	0.296400	7.36605e+06	-43789.1	955.819	-29778.4	0.000000	0.000000	6.296847	-0.029442	NaN	0.000000	0.001590	0.001687	28.0853	0.099885	0.002077	48.0952	96.978	16.7805	-0.039315	0.295044	-0.854716	-0.856072	-0.029442	48.0952	-0.854257	-2.445555E+11	1.203919E-13	NaN
103	1.000000	0.338403	7.36605e+06	-43789.1	955.817	-29778.4	0.000000	0.000000	6.338851	-0.012389	NaN	0.000000	0.001586	0.001690	28.0843	0.048794	0.002200	22.1763	115.527	-165.638	-0.054194	0.337159	-0.812713	-0.813957	-0.012389	22.1763	-0.812294	-6.602231E+10	1.876447E-13	NaN
103	1.000000	0.380441	7.36605e+06	-43789.1	955.819	-29778.4	0.000000	0.000000	6.380890	0.017678	NaN	0.000000	0.001532	0.001628	28.1175	0.098474	0.001942	50.6986	174.032	16.3123	-0.047572	0.379074	-0.770675	-0.772042	0.017678	50.6986	-0.770937	-1.811507E+10	-9.758490E-13	NaN
103	1.000000	0.422457	7.36605e+06	-43789.1	955.818	-29778.4	0.000000	0.000000	6.422906	0.000227	NaN	0.000000	0.001576	0.001680	28.1209	0.104505	0.001983	52.7039	-3.749355	-164.41	-0.095720	0.421156	-0.728659	-0.729960	0.000227	52.7039	-0.728662	-4.814707E+9	-4.705784E-14	NaN
103	1.000000	0.464467	7.36605e+06	-43789.1	955.818	-29778.4	0.000000	0.000000	6.464917	0.039394	NaN	0.000000	0.001643	0.001672	28.0843	0.035825	0.002050	17.4774	36.0378	15.102	0.040454	0.463045	-0.686649	-0.688071	0.039394	17.4774	-0.688339	-1.355882E+9	-2.905383E-11	NaN
103	1.000000	0.506478	7.36605e+06	-43789.1	955.818	-29778.4	0.000000	0.000000	6.506925	-0.028996	NaN	0.000000	0.001591	0.001613	28.0803	0.083481	0.002068	40.3732	70.2413	-161.288	-0.017044	0.505179	-0.644638	-0.645936	-0.028996	40.3732	-0.644099	-3.361417E+8	8.626165E-11	NaN
103	1.000000	0.548514	7.36605e+06	-43789.1	955.819	-29778.4	0.000000	0.000000	6.548962	-0.014283	NaN	0.000000	0.001599	0.001664	28.1167	0.107947	0.001895	56.9625	142.511	14.4695	-0.019470	0.547108	-0.602602	-0.604008	-0.014283	56.9625	-0.602414	-8.988772E+7	1.589028E-10	NaN
103	1.000000	0.590504	7.36605e+06	-43789.1	955.819	-29778.4	0.000000	0.000000	6.590955	0.064426	NaN	0.000000	0.001532	0.001694	28.1235	0.137923	0.001932	71.4067	37.2033	-163.998	-0.028372	0.589197	-0.560612	-0.561919	0.064426	71.4067	-0.561289	-2.433360E+7	-2.647602E-9	NaN
103	1.000000	0.632554	7.36605e+06	-43789.1	955.818	-29778.4	0.000000	0.000000	6.633003	-0.007378	NaN	0.000000	0.001563	0.001671	28.0877	0.178497	0.002127	83.9256	159.654	14.4867	-0.048914	0.631227	-0.518561	-0.519889	-0.007378	83.9256	-0.518495	-6.20396e+06	1.189239E-9	NaN
103	1.000000	0.674574	7.36605e+06	-43789.1	955.818	-29778.4	0.000000	0.000000	6.675023	0.028234	NaN	0.000000	0.001548	0.001639	28.0816	0.049665	0.002016	24.6312	-50.5684	-167.728	0.014307	0.673315	-0.476542	-0.477801	0.028234	24.6312	-0.477402	-1.65632e+06	-1.704601E-8	NaN
103	1.000000	0.716573	7.36605e+06	-43789.1	955.818	-29778.4	0.000000	0.000000	6.717021	-0.011508	NaN	0.000000	0.001565	0.001654	28.1145	0.039074	0.002010	19.4421	-105.982	13.9998	0.019114	0.715242	-0.434543	-0.435874	-0.011508	19.4421	-0.434099	-407395	2.824759E-8	NaN
103	1.000000	0.758584	7.36605e+06	-43789.1	955.818	-29778.4	0.000000	0.000000	6.759035	0.052300	NaN	0.000000	0.001550	0.001662	28.1222	0.054809	0.001900	28.8509	82.1187	-167.789	-0.014750	0.757339	-0.392531	-0.393776	0.052300	28.8509	-0.393891	-109344	-4.783111E-7	NaN
103	1.000000	0.800617	7.36605e+06	-43789.1	955.818	-29778.4	0.000000	0.000000	6.801065	-0.030336	NaN	0.000000	0.001578	0.001645	28.0855	0.077614	0.002027	38.2961	-147.627	17.3282	-0.008909	0.799261	-0.350498	-0.351855	-0.030336	38.2961	-0.349904	-25445.6	1.192202E-6	NaN
103	1.000000	0.842621	7.36605e+06	-43789.1	955.818	-29778.4	0.000000	0.000000	6.843070	-0.004048	NaN	0.000000	0.001592	0.001637	28.0823	0.117821	0.002074	56.8002	-36.629	-164.783	0.057894	0.841363	-0.308494	-0.309753	-0.004048	56.8002	-0.308441	-6280.19	6.446265E-7	NaN
103	1.000000	0.884650	7.36605e+06	-43789.1	955.819	-29778.4	0.000000	0.000000	6.885102	0.078583	NaN	0.000000	0.001567	0.001655	28.1152	0.060694	0.001879	32.2933	71.6642	12.4395	0.063120	0.883298	-0.266465	-0.267818	0.078583	32.2933	-0.268291	-1568.71	-5.009434E-5	NaN
103	1.000000	0.926653	7.36605e+06	-43789.1	955.818	-29778.4	0.000000	0.000000	6.927103	0.015854	NaN	0.000000	0.001578	0.001700	28.1242	0.078060	0.001807	43.1909	129.862	-164.984	-0.078069	0.925365	-0.224462	-0.225751	0.015854	43.1909	-0.224738	-330.497	-4.797010E-5	NaN
103	1.000000	0.968703	7.36605e+06	-43789.1	955.818	-29778.4	0.000000	0.000000	6.969151	-0.025151	NaN	0.000000	0.001609	0.001639	28.0859	0.085571	0.001971	43.4075	-132.674	16.4483	0.026898	0.967323	-0.182413	-0.183792	-0.025151	43.4075	-0.181978	-65.9262	0.000382	NaN
103	1.000000	1.010679	7.36605e+06	-43789.1	955.818	-29778.4	0.000000	0.000000	7.011128	0.011445	NaN	0.000000	0.001563	0.001673	28.0801	0.077078	0.002071	37.2229	157.3	-167.128	-0.038493	1.009390	-0.140437	-0.141725	0.011445	37.2229	-0.140668	-12.1758	-0.000940	NaN
103	1.000000	1.052712	7.36605e+06	-43789.1	955.818	-29778.4	0.000000	0.000000	7.053161	0.005361	NaN	0.000000	0.001553	0.001652	28.1119	0.133459	0.002074	64.3615	-149.603	13.6706	0.083975	1.051345	-0.098403	-0.099771	0.005361	64.3615	-0.098466	-1.688987	-0.003174	NaN
103	1.000000	1.094734	7.36605e+06	-43789.1	955.818	-29778.4	0.000000	0.000000	7.095184	0.019063	NaN	0.000000	0.001567	0.001655	28.1252	0.063801	0.002172	29.3698	3.192072	-166.509	0.021521	1.093428	-0.056381	-0.057687	0.019063	29.3698	-0.056868	-0.146141	-0.130439	NaN
103	1.000000	1.136717	7.36605e+06	-43789.1	955.818	-29778.4	0.000000	0.000000	7.137169	0.082433	NaN	0.000000	0.001559	0.001678	28.0877	0.039705	0.002032	19.5375	28.089	16.3835	0.123060	1.135393	-0.014399	-0.015723	0.082433	19.5375	-0.017564	-0.010875	-7.580342	NaN
103	2.000000	1.164222	7.36605e+06	-43789.1	955.819	-29778.4	0.000000	0.000000	7.165233	13.6719	NaN	0.000000	0.001565	0.001602	28.081	13.4542	0.001784	7541.35	4.766288	-171.848	12.591	1.163921	0.013107	0.012805	13.6719	7541.35	0.011747	0.011188	1221.98	65138.8
103	2.000000	1.174684	7.36605e+06	-43789.1	955.818	-29778.4	0.000000	0.000000	7.176664	37.2665	NaN	0.000000	0.001537	0.001608	28.1121	24.7843	0.001770	13999	6.219599	1.049131	35.7463	1.174370	0.023568	0.023255	37.2665	13999	0.021572	0.025072	1486.36	80774.3
103	2.000000	1.185150	7.36605e+06	-43789.1	955.819	-29778.4	0.000000	0.000000	7.188443	69.1962	NaN	0.000000	0.001565	0.001642	28.1257	34.527	0.001645	20984.5	3.114716	179.343	66.6244	1.184853	0.034034	0.033738	69.1962	20984.5	0.031561	0.044042	1571.14	91356.5
103	2.000000	1.195714	7.36605e+06	-43789.1	955.818	-29778.4	0.000000	0.000000	7.200367	102.295	NaN	0.000000	0.001550	0.001581	28.0853	44.2371	0.001886	23455.9	5.205328	-2.514044	101.306	1.195414	0.044598	0.044298	102.295	23455.9	0.041327	0.067503	1515.41	82482.6
103	2.000000	1.206240	7.36605e+06	-43789.1	955.819	-29778.4	0.000000	0.000000	7.212610	144.068	NaN	0.000000	0.001559	0.001629	28.0809	54.3522	0.001741	31224.3	2.119780	177.952	146.321	1.205895	0.055125	0.054779	144.068	31224.3	0.051664	0.097626	1475.72	91302.6
103	2.000000	1.216637	7.36605e+06	-43789.1	955.819	-29778.4	0.000000	0.000000	7.225479	204.228	NaN	0.000000	0.001549	0.001610	28.1109	63.4877	0.001743	36421.5	3.011390	-4.542410	200.396	1.216324	0.065521	0.065208	204.228	36421.5	0.061315	0.130567	1564.16	92090.3
103	2.000000	1.227136	7.36605e+06	-43789.1	955.818	-29778.4	0.000000	0.000000	7.238412	263.435	NaN	0.000000	0.001572	0.001546	28.1271	74.1033	0.001785	41504.8	5.589470	172.236	263.571	1.226829	0.076020	0.075714	263.435	41504.8	0.071260	0.169250	1556.48	92173.7
103	2.000000	1.237594	7.36605e+06	-43789.1	955.818	-29778.4	0.000000	0.000000	7.251785	334.328	NaN	0.000000	0.001536	0.001517	28.0865	81.6992	0.001723	47422.7	-0.041132	-2.822101	330.31	1.237163	0.086479	0.086047	334.328	47422.7	0.081191	0.212568	1572.81	93974.7
103	2.000000	1.248189	7.36605e+06	-43789.1	955.817	-29778.4	0.000000	0.000000	7.265429	408.534	NaN	0.000000	0.001565	0.001538	28.0815	91.4222	0.001741	52519.9	2.250314	174.299	413.585	1.247711	0.097073	0.096595	408.534	52519.9	0.091239	0.261061	1564.9	93913
103	2.000000	1.258043	7.36605e+06	-43789.1	955.817	-29778.4	0.000000	0.000000	7.278738	492.584	NaN	0.000000	0.001537	0.001489	28.0783	101.668	0.001824	55734.7	9.235191	166.902	487.78	1.257588	0.106927	0.106472	492.584	55734.7	0.100299	0.308752	1595.41	91641.9

File: 2025-07-22_16-23-58_1_104.txt
2025-07-22, 16:23:58, 1
Index	Phase	Displacement	Time	Pos X	Pos Y	Pos Z	Rot A	Rot B	Piezo Z	Force A	Force B	Gripper	Voltage A	Voltage B	Temperature	Amplitude force	Amplitude pos	Stiffness	Phase shift	Phase excitation	Force A raw	Displacement raw	HMax	HMax raw	Real Force	Real Stiffness	Contact Depth	Area	Hardness	Reduced Mod.
[#]	[#]	[um]	[s]	[um]	[um]	[um]	[m°]	[m°]	[um]	[uN]	[uN]	[V]	[V]	[V]	[°C]	[uN]	[um]	[N/m]	[°]	[°]	[uN]	[um]	[um]	[um]	[uN]	[N/m]	[um]	[um^2]	[MPa]	[MPa]
104	1.000000	0.002442	7.36605e+06	-43839.1	955.818	-29778.2	0.000000	0.000000	6.002809	-0.071995	NaN	0.000000	0.001513	0.001576	28.1275	0.010848	0.001004	10.8098	-81.7338	-164.715	-0.148904	0.001181	-1.132306	-1.133567	-0.071995	10.8098	-1.127311	-1.165594E+15	6.176692E-17	NaN
104	1.000000	0.044385	7.36605e+06	-43839.1	955.818	-29778.2	0.000000	0.000000	6.044757	0.024849	NaN	0.000000	0.001501	0.001574	28.0887	0.087722	0.001937	45.2774	-51.4561	12.61	-0.023507	0.043008	-1.090362	-1.091739	0.024849	45.2774	-1.090774	-3.768783E+14	-6.593284E-17	NaN
104	1.000000	0.086369	7.36605e+06	-43839.1	955.818	-29778.2	0.000000	0.000000	6.086739	0.005470	NaN	0.000000	0.001499	0.001558	28.078	0.035208	0.002096	16.7947	-86.5687	-163.5	-0.011667	0.085041	-1.048379	-1.049706	0.005470	16.7947	-1.048623	-1.023068E+14	-5.346680E-17	NaN
104	1.000000	0.128422	7.36605e+06	-43839.1	955.819	-29778.2	0.000000	0.000000	6.128793	0.018715	NaN	0.000000	0.001483	0.001615	28.1064	0.020630	0.002036	10.1302	-26.9064	13.9418	-0.010999	0.127017	-1.006325	-1.007731	0.018715	10.1302	-1.007711	-2.881180E+13	-6.495759E-16	NaN
104	1.000000	0.170410	7.36605e+06	-43839.1	955.819	-29778.2	0.000000	0.000000	6.170781	-0.007144	NaN	0.000000	0.001478	0.001604	28.1259	0.107725	0.002028	53.1145	28.819	-167.067	0.005119	0.169088	-0.964337	-0.965660	-0.007144	53.1145	-0.964236	-7.481274E+12	9.548741E-16	NaN
104	1.000000	0.212468	7.36605e+06	-43839.1	955.818	-29778.2	0.000000	0.000000	6.212837	-0.030938	NaN	0.000000	0.001504	0.001588	28.088	0.122654	0.002001	61.3103	146.91	11.809	-0.058742	0.211125	-0.922280	-0.923622	-0.030938	61.3103	-0.921901	-2.008507E+12	1.540328E-14	NaN
104	1.000000	0.254476	7.36605e+06	-43839.1	955.818	-29778.2	0.000000	0.000000	6.254845	-0.032166	NaN	0.000000	0.001507	0.001565	28.0797	0.131474	0.001944	67.6206	-95.6666	-166.604	0.010701	0.253174	-0.880271	-0.881573	-0.032166	67.6206	-0.879915	-5.439451E+11	5.913549E-14	NaN
104	1.000000	0.296490	7.36605e+06	-43839.1	955.819	-29778.2	0.000000	0.000000	6.296859	-0.030979	NaN	0.000000	0.001508	0.001599	28.1053	0.066765	0.002113	31.594	87.1509	14.2521	-0.024030	0.295087	-0.838257	-0.839661	-0.030979	31.594	-0.837522	-1.451175E+11	2.134764E-13	NaN
104	1.000000	0.338496	7.36606e+06	-43839.1	955.818	-29778.2	0.000000	0.000000	6.338869	0.066231	NaN	0.000000	0.001529	0.001517	28.1288	0.101698	0.002073	49.0671	-18.7323	-161.359	0.003317	0.337229	-0.796251	-0.797518	0.066231	49.0671	-0.797264	-4.127780E+10	-1.604529E-12	NaN
104	1.000000	0.380515	7.36606e+06	-43839.1	955.818	-29778.2	0.000000	0.000000	6.380883	-0.039299	NaN	0.000000	0.001501	0.001542	28.0878	0.073167	0.001946	37.5949	-160.013	13.218	0.026303	0.379182	-0.754233	-0.755566	-0.039299	37.5949	-0.753449	-1.047520E+10	3.751661E-12	NaN
104	1.000000	0.422531	7.36606e+06	-43839.1	955.818	-29778.2	0.000000	0.000000	6.422901	-0.002519	NaN	0.000000	0.001526	0.001581	28.0797	0.045179	0.001859	24.3067	136.955	-168.493	-0.044372	0.421256	-0.712217	-0.713491	-0.002519	24.3067	-0.712139	-2.865744E+9	8.790826E-13	NaN
104	1.000000	0.464554	7.36606e+06	-43839.1	955.818	-29778.2	0.000000	0.000000	6.464924	-0.009651	NaN	0.000000	0.001536	0.001604	28.1031	0.078587	0.002028	38.7432	-133.707	13.9499	-0.033322	0.463157	-0.670193	-0.671590	-0.009651	38.7432	-0.670007	-7.611699E+8	1.267978E-11	NaN
104	1.000000	0.506557	7.36606e+06	-43839.1	955.818	-29778.2	0.000000	0.000000	6.506929	0.033082	NaN	0.000000	0.001531	0.001580	28.129	0.089785	0.001966	45.6739	153.276	-165.021	-0.024819	0.505241	-0.628190	-0.629506	0.033082	45.6739	-0.628734	-2.068386E+8	-1.599387E-10	NaN
104	1.000000	0.548588	7.36606e+06	-43839.1	955.818	-29778.2	0.000000	0.000000	6.548961	0.049757	NaN	0.000000	0.001600	0.001577	28.0903	0.162713	0.002007	81.0797	16.7777	15.7649	0.033791	0.547245	-0.586159	-0.587503	0.049757	81.0797	-0.586619	-5.445665E+7	-9.137004E-10	NaN
104	1.000000	0.590610	7.36606e+06	-43839.1	955.818	-29778.2	0.000000	0.000000	6.590982	0.025606	NaN	0.000000	0.001622	0.001597	28.0797	0.049352	0.001956	25.2254	-105.696	-161.798	-0.048550	0.589302	-0.544137	-0.545446	0.025606	25.2254	-0.544898	-1.443020E+7	-1.774441E-9	NaN
104	1.000000	0.632592	7.36606e+06	-43839.1	955.819	-29778.2	0.000000	0.000000	6.632962	-0.008216	NaN	0.000000	0.001519	0.001583	28.1021	0.038740	0.001868	20.7362	-178.369	16.3914	0.008188	0.631261	-0.502156	-0.503486	-0.008216	20.7362	-0.501858	-3.63866e+06	2.257955E-9	NaN
104	1.000000	0.674666	7.36606e+06	-43839.1	955.819	-29778.2	0.000000	0.000000	6.675040	0.083715	NaN	0.000000	0.001515	0.001574	28.1282	0.079572	0.002001	39.77	109.278	-167.691	0.139503	0.673331	-0.460081	-0.461417	0.083715	39.77	-0.461660	-996193	-8.403502E-8	NaN
104	1.000000	0.716655	7.36606e+06	-43839.1	955.819	-29778.2	0.000000	0.000000	6.717026	0.023358	NaN	0.000000	0.001545	0.001567	28.0894	0.058708	0.002072	28.3406	-158.996	14.0173	0.026673	0.715289	-0.418093	-0.419458	0.023358	28.3406	-0.418711	-246676	-9.469251E-8	NaN
104	1.000000	0.758697	7.36606e+06	-43839.1	955.818	-29778.2	0.000000	0.000000	6.759069	0.026914	NaN	0.000000	0.001489	0.001547	28.08	0.061096	0.001835	33.2886	-21.0869	-166.738	0.085003	0.757369	-0.376050	-0.377379	0.026914	33.2886	-0.376656	-61926.5	-4.346086E-7	NaN
104	1.000000	0.800696	7.36606e+06	-43839.1	955.819	-29778.2	0.000000	0.000000	6.801067	0.014236	NaN	0.000000	0.001504	0.001561	28.1023	0.054165	0.002100	25.7931	97.4198	14.2578	0.052557	0.799303	-0.334051	-0.335445	0.014236	25.7931	-0.334465	-15162.5	-9.388881E-7	NaN
104	1.000000	0.842740	7.36606e+06	-43839.1	955.818	-29778.2	0.000000	0.000000	6.843114	0.074111	NaN	0.000000	0.001537	0.001635	28.1298	0.053172	0.002136	24.8965	60.0292	-168.166	0.031227	0.841394	-0.292007	-0.293353	0.074111	24.8965	-0.294240	-3861.29	-1.919323E-5	NaN
104	1.000000	0.884725	7.36606e+06	-43839.1	955.819	-29778.2	0.000000	0.000000	6.885095	-0.016657	NaN	0.000000	0.001527	0.001572	28.0906	0.039243	0.002007	19.5553	109.619	16.5986	0.018956	0.883359	-0.250022	-0.251388	-0.016657	19.5553	-0.249383	-804.317	2.070958E-5	NaN
104	1.000000	0.926741	7.36606e+06	-43839.1	955.818	-29778.2	0.000000	0.000000	6.927110	-0.041632	NaN	0.000000	0.001545	0.001607	28.0782	0.085244	0.002075	41.0757	-161.578	-165.339	-0.057585	0.925423	-0.208006	-0.209324	-0.041632	41.0757	-0.207246	-173.035	0.000241	NaN
104	1.000000	0.968751	7.36606e+06	-43839.1	955.819	-29778.2	0.000000	0.000000	6.969122	0.007154	NaN	0.000000	0.001558	0.001599	28.1011	0.123801	0.002104	58.8379	-22.6037	12.4937	-0.039239	0.967366	-0.165996	-0.167381	0.007154	58.8379	-0.166087	-35.1054	-0.000204	NaN
104	1.000000	1.010759	7.36606e+06	-43839.1	955.82	-29778.2	0.000000	0.000000	7.011127	-0.066166	NaN	0.000000	0.001560	0.001594	28.1285	0.114809	0.002094	54.8401	97.8133	-167.17	-0.025626	1.009502	-0.123988	-0.125246	-0.066166	54.8401	-0.123083	-5.570945	0.011877	NaN
104	1.000000	1.052813	7.36606e+06	-43839.1	955.82	-29778.2	0.000000	0.000000	7.053181	-0.053937	NaN	0.000000	0.001553	0.001568	28.0925	0.077765	0.002044	38.048	38.551	17.8975	-0.012150	1.051455	-0.081935	-0.083293	-0.053937	38.048	-0.080872	-0.650756	0.082884	NaN
104	1.000000	1.094814	7.36606e+06	-43839.1	955.819	-29778.2	0.000000	0.000000	7.095187	0.056342	NaN	0.000000	0.001543	0.001575	28.0812	0.079029	0.002070	38.186	-179.431	-164.284	0.032885	1.093534	-0.039933	-0.041213	0.056342	38.186	-0.041040	-0.048639	-1.158370	NaN
104	1.000000	1.136808	7.36606e+06	-43839.1	955.82	-29778.2	0.000000	0.000000	7.137232	1.292960	NaN	0.000000	0.001525	0.001544	28.1025	1.985836	0.002037	974.926	9.413518	10.8821	0.527212	1.135436	0.002061	0.000689	1.292960	974.926	0.001066	0.000814	1589.27	31228.5
104	2.000000	1.152435	7.36606e+06	-43839.1	955.82	-29778.2	0.000000	0.000000	7.153687	21.4482	NaN	0.000000	0.001518	0.001577	28.128	17.7907	0.001856	9587.55	5.250381	-176.012	21.0239	1.152100	0.017687	0.017352	21.4482	9587.55	0.016009	0.016655	1287.79	67874.7
104	2.000000	1.162898	7.36606e+06	-43839.1	955.819	-29778.2	0.000000	0.000000	7.165086	44.2132	NaN	0.000000	0.001554	0.001589	28.0922	27.575	0.001762	15649.4	6.771509	-0.930992	43.6518	1.162536	0.028151	0.027789	44.2132	15649.4	0.026032	0.032919	1343.08	78803.5
104	2.000000	1.173369	7.36606e+06	-43839.1	955.819	-29778.2	0.000000	0.000000	7.176833	75.2591	NaN	0.000000	0.001532	0.001585	28.0784	37.3132	0.001794	20793.9	6.084725	177.611	74.1366	1.173052	0.038622	0.038305	75.2591	20793.9	0.035907	0.053880	1396.8	81845.8
104	2.000000	1.183823	7.36606e+06	-43839.1	955.819	-29778.2	0.000000	0.000000	7.188918	114.959	NaN	0.000000	0.001495	0.001613	28.0997	47.5475	0.001834	25925.8	7.120476	-6.734440	112.973	1.183525	0.049075	0.048777	114.959	25925.8	0.045750	0.079729	1441.86	83887.2
104	2.000000	1.194319	7.36606e+06	-43839.1	955.82	-29778.2	0.000000	0.000000	7.201698	170.516	NaN	0.000000	0.001539	0.001658	28.1295	57.5318	0.001874	30696.1	4.844858	175.547	169.609	1.193961	0.059572	0.059213	170.516	30696.1	0.055405	0.109850	1552.26	84616.8
104	2.000000	1.204728	7.36606e+06	-43839.1	955.82	-29778.2	0.000000	0.000000	7.214483	228.322	NaN	0.000000	0.001530	0.001678	28.0942	67.5634	0.001887	35811.4	4.827228	-6.198543	223.765	1.204470	0.069980	0.069723	228.322	35811.4	0.065198	0.145106	1573.48	85891.6
104	2.000000	1.215287	7.36606e+06	-43839.1	955.82	-29778.2	0.000000	0.000000	7.227604	290.659	NaN	0.000000	0.001559	0.001661	28.0803	74.7844	0.001868	40039.9	1.933029	175.832	289.359	1.214981	0.080539	0.080234	290.659	40039.9	0.075095	0.185428	1567.5	84953
104	2.000000	1.225749	7.36606e+06	-43839.1	955.821	-29778.2	0.000000	0.000000	7.241485	373.827	NaN	0.000000	0.001584	0.001652	28.0998	84.7911	0.001763	48102	5.071897	-8.782326	369.938	1.225372	0.091002	0.090624	373.827	48102	0.085173	0.231228	1616.7	91393.7
104	2.000000	1.236191	7.36606e+06	-43839.1	955.82	-29778.2	0.000000	0.000000	7.255090	450.793	NaN	0.000000	0.001590	0.001645	28.1287	95.4555	0.001734	55040	1.989328	173.363	446.297	1.235888	0.101443	0.101140	450.793	55040	0.095300	0.281977	1598.69	94698.9
104	2.000000	1.242169	7.36606e+06	-43839.1	955.819	-29778.2	0.000000	0.000000	7.263515	510.302	NaN	0.000000	0.001523	0.001654	28.1292	102.72	0.001797	57168	4.145314	171.115	503.996	1.241868	0.107422	0.107120	510.302	57168	0.100727	0.311098	1640.33	93643.5