Folder: unikorn_login/remote_trans/data/nanoindenter/0828-1/data/Data_2025-08-06,11h17m57s (part 30)

File: 2025-07-22_16-23-58_1_58.txt
2025-07-22, 16:23:58, 1
Index	Phase	Displacement	Time	Pos X	Pos Y	Pos Z	Rot A	Rot B	Piezo Z	Force A	Force B	Gripper	Voltage A	Voltage B	Temperature	Amplitude force	Amplitude pos	Stiffness	Phase shift	Phase excitation	Force A raw	Displacement raw	HMax	HMax raw	Real Force	Real Stiffness	Contact Depth	Area	Hardness	Reduced Mod.
[#]	[#]	[um]	[s]	[um]	[um]	[um]	[m°]	[m°]	[um]	[uN]	[uN]	[V]	[V]	[V]	[°C]	[uN]	[um]	[N/m]	[°]	[°]	[uN]	[um]	[um]	[um]	[uN]	[N/m]	[um]	[um^2]	[MPa]	[MPa]
58	1.000000	0.002554	7.36561e+06	-41539.1	955.82	-29786.5	0.000000	0.000000	6.002814	0.038616	NaN	0.000000	0.001673	0.001601	28.0903	0.075385	0.001033	73.0001	83.839	-163.045	0.015621	0.001277	-1.026123	-1.027400	0.038616	73.0001	-1.026520	-5.160254E+13	-7.483371E-16	NaN
58	1.000000	0.042509	7.36561e+06	-41539.1	955.818	-29786.5	0.000000	0.000000	6.042769	0.023908	NaN	0.000000	0.001627	0.001625	28.0867	0.093188	0.001863	50.008	47.0836	-163.08	0.044624	0.041151	-0.986167	-0.987526	0.023908	50.008	-0.986526	-1.493903E+13	-1.600350E-15	NaN
58	1.000000	0.082514	7.36561e+06	-41539.1	955.818	-29786.5	0.000000	0.000000	6.082775	0.054972	NaN	0.000000	0.001622	0.001675	28.0887	0.055510	0.002018	27.514	-10.2285	-164.184	-0.041280	0.081206	-0.946163	-0.947471	0.054972	27.514	-0.947661	-4.471836E+12	-1.229288E-14	NaN
58	1.000000	0.122523	7.36561e+06	-41539.1	955.818	-29786.5	0.000000	0.000000	6.122783	0.028522	NaN	0.000000	0.001603	0.001639	28.088	0.056003	0.001848	30.3074	41.1356	-160.892	0.009257	0.121195	-0.906154	-0.907482	0.028522	30.3074	-0.906859	-1.258172E+12	-2.266971E-14	NaN
58	1.000000	0.162543	7.36561e+06	-41539.1	955.819	-29786.6	0.000000	0.000000	6.162803	0.034853	NaN	0.000000	0.001622	0.001656	28.0893	0.061310	0.002038	30.0853	-102.759	-166.574	0.089807	0.161207	-0.866134	-0.867470	0.034853	30.0853	-0.867003	-3.638245E+11	-9.579514E-14	NaN
58	1.000000	0.202568	7.36561e+06	-41539.1	955.819	-29786.6	0.000000	0.000000	6.202829	0.056370	NaN	0.000000	0.001606	0.001627	28.0889	0.074386	0.001996	37.2693	83.8637	-164.034	0.058715	0.201238	-0.826109	-0.827439	0.056370	37.2693	-0.827243	-1.052968E+11	-5.353407E-13	NaN
58	1.000000	0.242584	7.36561e+06	-41539.1	955.818	-29786.6	0.000000	0.000000	6.242843	0.001344	NaN	0.000000	0.001613	0.001650	28.0891	0.065193	0.001905	34.2273	104.578	-162.45	-0.102145	0.241297	-0.786093	-0.787380	0.001344	34.2273	-0.786123	-2.913507E+10	-4.612425E-14	NaN
58	1.000000	0.282602	7.36561e+06	-41539.1	955.819	-29786.6	0.000000	0.000000	6.282860	-0.025014	NaN	0.000000	0.001639	0.001668	28.0887	0.039259	0.001960	20.0268	-151.151	-161.293	-0.047393	0.281282	-0.746075	-0.747395	-0.025014	20.0268	-0.745138	-8.072810E+9	3.098570E-12	NaN
58	1.000000	0.322596	7.36561e+06	-41539.1	955.818	-29786.6	0.000000	0.000000	6.322852	-0.052702	NaN	0.000000	0.001624	0.001673	28.0881	0.034208	0.002034	16.822	45.6224	-166.637	0.062899	0.321326	-0.706081	-0.707351	-0.052702	16.822	-0.703732	-2.200319E+9	2.395219E-11	NaN
58	1.000000	0.362644	7.36561e+06	-41539.1	955.818	-29786.6	0.000000	0.000000	6.362901	-0.059931	NaN	0.000000	0.001602	0.001662	28.0878	0.181823	0.001906	95.4197	155.704	-162.414	-0.115417	0.361344	-0.666033	-0.667333	-0.059931	95.4197	-0.665561	-6.616535E+8	9.057786E-11	NaN
58	1.000000	0.402626	7.36561e+06	-41539.1	955.818	-29786.6	0.000000	0.000000	6.402883	-0.045907	NaN	0.000000	0.001567	0.001695	28.0873	0.037210	0.002029	18.3402	-18.4838	-164.11	-0.058993	0.401392	-0.626051	-0.627285	-0.045907	18.3402	-0.624174	-1.790565E+8	2.563839E-10	NaN
58	1.000000	0.442672	7.36561e+06	-41539.1	955.818	-29786.6	0.000000	0.000000	6.442929	-0.037587	NaN	0.000000	0.001649	0.001670	28.0873	0.045452	0.001974	23.0267	103.507	-164.809	-0.040561	0.441334	-0.586005	-0.587343	-0.037587	23.0267	-0.584781	-5.136779E+7	7.317304E-10	NaN
58	1.000000	0.482685	7.36561e+06	-41539.1	955.818	-29786.6	0.000000	0.000000	6.482945	0.027771	NaN	0.000000	0.001614	0.001612	28.0877	0.119085	0.001933	61.5934	-145.845	-160.841	0.052046	0.481371	-0.545992	-0.547306	0.027771	61.5934	-0.546330	-1.510490E+7	-1.838526E-9	NaN
58	1.000000	0.522693	7.36561e+06	-41539.1	955.819	-29786.6	0.000000	0.000000	6.522955	0.058078	NaN	0.000000	0.001678	0.001597	28.0868	0.027074	0.001963	13.7928	79.2419	-165.567	0.066411	0.521386	-0.505984	-0.507291	0.058078	13.7928	-0.509142	-4.59686e+06	-1.263421E-8	NaN
58	1.000000	0.562687	7.36561e+06	-41539.1	955.818	-29786.6	0.000000	0.000000	6.562949	0.071957	NaN	0.000000	0.001620	0.001626	28.0893	0.033520	0.002086	16.0703	-139.448	-165.304	0.007345	0.561405	-0.465990	-0.467272	0.071957	16.0703	-0.469348	-1.27722e+06	-5.633827E-8	NaN
58	1.000000	0.602719	7.36561e+06	-41539.1	955.819	-29786.6	0.000000	0.000000	6.602978	0.005380	NaN	0.000000	0.001588	0.001637	28.0866	0.074362	0.001881	39.5388	-113.42	-162.882	0.027609	0.601420	-0.425958	-0.427257	0.005380	39.5388	-0.426060	-313546	-1.715857E-8	NaN
58	1.000000	0.642753	7.36561e+06	-41539.1	955.818	-29786.6	0.000000	0.000000	6.643011	-0.034185	NaN	0.000000	0.001606	0.001691	28.086	0.035113	0.001906	18.4216	54.1302	-162.913	0.024741	0.641414	-0.385924	-0.387263	-0.034185	18.4216	-0.384532	-80330.8	4.255579E-7	NaN
58	1.000000	0.682766	7.36561e+06	-41539.1	955.819	-29786.6	0.000000	0.000000	6.683029	0.078653	NaN	0.000000	0.001558	0.001656	28.0855	0.038192	0.002168	17.6193	167.332	-163.354	0.045289	0.681421	-0.345910	-0.347256	0.078653	17.6193	-0.349258	-24902.2	-3.158490E-6	NaN
58	1.000000	0.722770	7.36561e+06	-41539.1	955.819	-29786.6	0.000000	0.000000	6.723028	-0.003445	NaN	0.000000	0.001616	0.001710	28.0886	0.018684	0.001899	9.838817	13.4682	-163.47	-0.032678	0.721488	-0.305907	-0.307189	-0.003445	9.838817	-0.305645	-5708.51	6.034047E-7	NaN
58	1.000000	0.762807	7.36561e+06	-41539.1	955.818	-29786.6	0.000000	0.000000	6.763064	-0.036968	NaN	0.000000	0.001596	0.001665	28.0868	0.053440	0.002046	26.1142	31.4801	-164.302	0.020229	0.761490	-0.265870	-0.267187	-0.036968	26.1142	-0.264808	-1388.23	2.662922E-5	NaN
58	1.000000	0.802848	7.36561e+06	-41539.1	955.818	-29786.6	0.000000	0.000000	6.803107	0.019187	NaN	0.000000	0.001610	0.001674	28.0883	0.041215	0.001956	21.0696	97.5625	-164.286	0.043545	0.801484	-0.225829	-0.227193	0.019187	21.0696	-0.226512	-352.642	-5.440828E-5	NaN
58	1.000000	0.842835	7.36561e+06	-41539.1	955.818	-29786.6	0.000000	0.000000	6.843095	0.007384	NaN	0.000000	0.001572	0.001680	28.0869	0.073838	0.002075	35.5787	11.0065	-163.226	0.082750	0.841550	-0.185842	-0.187127	0.007384	35.5787	-0.185997	-77.077	-9.579969E-5	NaN
58	1.000000	0.882844	7.36561e+06	-41539.1	955.819	-29786.6	0.000000	0.000000	6.883098	-0.108288	NaN	0.000000	0.001612	0.001677	28.0869	0.073183	0.002165	33.805	-106.725	-164.047	-0.077162	0.881524	-0.145833	-0.147153	-0.108288	33.805	-0.143431	-13.7109	0.007898	NaN
58	1.000000	0.922843	7.36561e+06	-41539.1	955.819	-29786.6	0.000000	0.000000	6.923100	-0.041187	NaN	0.000000	0.001599	0.001657	28.0848	0.040022	0.001988	20.1318	-1.730723	-164.931	-0.033990	0.921586	-0.105834	-0.107091	-0.041187	20.1318	-0.104299	-2.269923	0.018145	NaN
58	1.000000	0.962882	7.36561e+06	-41539.1	955.819	-29786.6	0.000000	0.000000	6.963141	-0.000457	NaN	0.000000	0.001588	0.001690	28.087	0.061798	0.002015	30.6635	26.8663	-162.73	0.071229	0.961570	-0.065795	-0.067107	-0.000457	30.6635	-0.065784	-0.261973	0.001743	NaN
58	1.000000	1.002877	7.36562e+06	-41539.1	955.819	-29786.6	0.000000	0.000000	7.003139	0.061867	NaN	0.000000	0.001617	0.001735	28.0858	0.036105	0.002039	17.7099	83.4361	-165.621	0.023595	1.001554	-0.025799	-0.027123	0.061867	17.7099	-0.028419	-0.020815	-2.972178	NaN
58	2.000000	1.039497	7.36562e+06	-41539.1	955.82	-29786.6	0.000000	0.000000	7.040152	9.643337	NaN	0.000000	0.001600	0.001720	28.0874	9.748693	0.001740	5604.11	4.793887	-169.355	9.031407	1.039177	0.010820	0.010500	9.643337	5604.11	0.009529	0.008663	1113.19	55011.2
58	2.000000	1.049433	7.36562e+06	-41539.1	955.819	-29786.6	0.000000	0.000000	7.050864	28.5283	NaN	0.000000	0.001621	0.001738	28.086	21.2651	0.001815	11715.9	6.886964	-176.72	28.0717	1.049076	0.020756	0.020399	28.5283	11715.9	0.018930	0.020888	1365.77	74062.6
58	2.000000	1.059407	7.36562e+06	-41539.1	955.82	-29786.6	0.000000	0.000000	7.062139	60.1816	NaN	0.000000	0.001603	0.001731	28.0869	31.7165	0.001834	17290.1	4.687648	-177.958	60.2119	1.059040	0.030730	0.030363	60.1816	17290.1	0.028119	0.036936	1629.34	82194.9
58	2.000000	1.069318	7.36562e+06	-41539.1	955.819	-29786.6	0.000000	0.000000	7.073561	96.9218	NaN	0.000000	0.001602	0.001718	28.0838	41.7933	0.001769	23625.4	3.600646	179.612	94.2661	1.069026	0.040641	0.040350	96.9218	23625.4	0.037565	0.057886	1674.36	89715.2
58	2.000000	1.079317	7.36562e+06	-41539.1	955.82	-29786.6	0.000000	0.000000	7.085351	140.53	NaN	0.000000	0.001632	0.001717	28.0845	51.6907	0.001809	28571.7	9.080821	172.272	137.458	1.079032	0.050640	0.050355	140.53	28571.7	0.046951	0.083222	1688.62	90488.1
58	2.000000	1.089346	7.36562e+06	-41539.1	955.82	-29786.6	0.000000	0.000000	7.097453	190.974	NaN	0.000000	0.001629	0.001709	28.0828	60.8237	0.001844	32982	4.282378	176.389	190.834	1.089045	0.060669	0.060368	190.974	32982	0.056326	0.112964	1690.57	89656.2
58	2.000000	1.099319	7.36562e+06	-41539.1	955.819	-29786.6	0.000000	0.000000	7.110135	256.862	NaN	0.000000	0.001622	0.001726	28.0865	69.6921	0.001685	41366.4	3.027612	175.575	255.975	1.099030	0.070642	0.070353	256.862	41366.4	0.065985	0.148141	1733.9	98193.5
58	2.000000	1.109301	7.36562e+06	-41539.1	955.818	-29786.6	0.000000	0.000000	7.123019	327.479	NaN	0.000000	0.001586	0.001667	28.0864	79.205	0.001731	45764.8	2.964049	174.986	325.586	1.108993	0.080624	0.080316	327.479	45764.8	0.075257	0.186130	1759.41	96916.3
58	2.000000	1.119244	7.36562e+06	-41539.1	955.819	-29786.6	0.000000	0.000000	7.135912	399.255	NaN	0.000000	0.001602	0.001758	28.0866	89.7933	0.001865	48141.1	5.489240	172.372	397.324	1.118996	0.090568	0.090319	399.255	48141.1	0.084347	0.227299	1756.52	92255.1
58	2.000000	1.129362	7.36562e+06	-41539.1	955.819	-29786.6	0.000000	0.000000	7.149428	481.943	NaN	0.000000	0.001603	0.001754	28.0839	99.9998	0.001852	53982.6	5.505578	171.07	483.689	1.129004	0.100685	0.100327	481.943	53982.6	0.093990	0.275144	1751.6	94025.9
58	2.000000	1.136827	7.36562e+06	-41539.1	955.819	-29786.6	0.000000	0.000000	7.159403	543.024	NaN	0.000000	0.001561	0.001746	28.0839	105.734	0.001784	59272.8	3.474630	-7.724000	543.215	1.136552	0.108150	0.107875	543.024	59272.8	0.101279	0.314137	1728.62	96620.5

File: 2025-07-22_16-23-58_1_59.txt
2025-07-22, 16:23:58, 1
Index	Phase	Displacement	Time	Pos X	Pos Y	Pos Z	Rot A	Rot B	Piezo Z	Force A	Force B	Gripper	Voltage A	Voltage B	Temperature	Amplitude force	Amplitude pos	Stiffness	Phase shift	Phase excitation	Force A raw	Displacement raw	HMax	HMax raw	Real Force	Real Stiffness	Contact Depth	Area	Hardness	Reduced Mod.
[#]	[#]	[um]	[s]	[um]	[um]	[um]	[m°]	[m°]	[um]	[uN]	[uN]	[V]	[V]	[V]	[°C]	[uN]	[um]	[N/m]	[°]	[°]	[uN]	[um]	[um]	[um]	[uN]	[N/m]	[um]	[um^2]	[MPa]	[MPa]
59	1.000000	0.002369	7.36562e+06	-41589.1	955.819	-29786.4	0.000000	0.000000	6.002804	-0.052312	NaN	0.000000	0.001592	0.001766	28.0857	0.060449	0.000967	62.5397	97.959	-162.974	-0.092976	0.001094	-1.072031	-1.073306	-0.052312	62.5397	-1.071403	-2.070340E+14	2.526740E-16	NaN
59	1.000000	0.042327	7.36562e+06	-41589.1	955.818	-29786.4	0.000000	0.000000	6.042768	0.083833	NaN	0.000000	0.001583	0.001713	28.0837	0.035174	0.001936	18.1695	13.3394	-166.023	0.001660	0.041017	-1.032073	-1.033383	0.083833	18.1695	-1.035533	-6.821808E+13	-1.228901E-15	NaN
59	1.000000	0.082339	7.36562e+06	-41589.1	955.818	-29786.4	0.000000	0.000000	6.082776	-0.002146	NaN	0.000000	0.001569	0.001681	28.0851	0.041934	0.002084	20.1261	-128.829	-164.417	-0.046693	0.081010	-0.992061	-0.993390	-0.002146	20.1261	-0.991981	-1.769256E+13	1.213201E-16	NaN
59	1.000000	0.122345	7.36562e+06	-41589.1	955.818	-29786.4	0.000000	0.000000	6.122784	0.049551	NaN	0.000000	0.001549	0.001736	28.0835	0.081423	0.001993	40.8591	102.125	-166.642	-0.022211	0.121019	-0.952055	-0.953381	0.049551	40.8591	-0.952964	-5.272344E+12	-9.398211E-15	NaN
59	1.000000	0.162349	7.36562e+06	-41589.1	955.819	-29786.4	0.000000	0.000000	6.162784	-0.049398	NaN	0.000000	0.001576	0.001720	28.0845	0.036789	0.002020	18.2093	-35.595	-167.073	-0.056620	0.161051	-0.912051	-0.913349	-0.049398	18.2093	-0.910016	-1.387963E+12	3.559040E-14	NaN
59	1.000000	0.202381	7.36562e+06	-41589.1	955.819	-29786.4	0.000000	0.000000	6.202815	-0.086435	NaN	0.000000	0.001603	0.001675	28.0838	0.058350	0.001966	29.6846	67.3605	-165.6	-0.015834	0.201056	-0.872018	-0.873344	-0.086435	29.6846	-0.869834	-3.973781E+11	2.175144E-13	NaN
59	1.000000	0.242392	7.36562e+06	-41589.1	955.818	-29786.4	0.000000	0.000000	6.242831	0.020397	NaN	0.000000	0.001608	0.001721	28.0846	0.046832	0.002049	22.8574	-158.133	-163.9	0.052404	0.241036	-0.832007	-0.833364	0.020397	22.8574	-0.832677	-1.247555E+11	-1.634928E-13	NaN
59	1.000000	0.282415	7.36562e+06	-41589.1	955.818	-29786.4	0.000000	0.000000	6.282852	-0.002895	NaN	0.000000	0.001579	0.001724	28.0841	0.146214	0.001973	74.1141	-177.774	-159.28	-0.058594	0.281057	-0.791985	-0.793343	-0.002895	74.1141	-0.791955	-3.496557E+10	8.279583E-14	NaN
59	1.000000	0.322432	7.36562e+06	-41589.1	955.818	-29786.4	0.000000	0.000000	6.322871	0.040798	NaN	0.000000	0.001659	0.001747	28.0849	0.130680	0.002049	63.7648	-149.755	-168.069	-0.030682	0.321149	-0.751968	-0.753251	0.040798	63.7648	-0.752448	-1.015159E+10	-4.018857E-12	NaN
59	1.000000	0.362432	7.36562e+06	-41589.1	955.819	-29786.4	0.000000	0.000000	6.362867	-0.051088	NaN	0.000000	0.001633	0.001749	28.0845	0.051203	0.001962	26.0944	-91.3485	-165.304	-0.006319	0.361133	-0.711967	-0.713267	-0.051088	26.0944	-0.710499	-2.721818E+9	1.876984E-11	NaN
59	1.000000	0.402466	7.36562e+06	-41589.1	955.818	-29786.4	0.000000	0.000000	6.402902	-0.034079	NaN	0.000000	0.001651	0.001713	28.0835	0.123125	0.001915	64.2796	-121.833	-163.515	0.023619	0.401199	-0.671934	-0.673201	-0.034079	64.2796	-0.671536	-7.987504E+8	4.266552E-11	NaN
59	1.000000	0.442469	7.36562e+06	-41589.1	955.818	-29786.4	0.000000	0.000000	6.442904	-0.039723	NaN	0.000000	0.001638	0.001775	28.084	0.036046	0.002098	17.1826	150.556	-168.54	-0.098429	0.441154	-0.631931	-0.633245	-0.039723	17.1826	-0.630197	-2.166360E+8	1.833644E-10	NaN
59	1.000000	0.482507	7.36562e+06	-41589.1	955.818	-29786.4	0.000000	0.000000	6.482943	-0.033877	NaN	0.000000	0.001637	0.001737	28.0845	0.041233	0.002050	20.1168	73.0112	-161.059	-0.004702	0.481208	-0.591893	-0.593191	-0.033877	20.1168	-0.590630	-6.185160E+7	5.477136E-10	NaN
59	1.000000	0.522517	7.36562e+06	-41589.1	955.819	-29786.4	0.000000	0.000000	6.522954	-0.011873	NaN	0.000000	0.001611	0.001711	28.084	0.123652	0.002078	59.5026	177.321	-164.408	0.042473	0.521235	-0.551882	-0.553164	-0.011873	59.5026	-0.551733	-1.794541E+7	6.616145E-10	NaN
59	1.000000	0.562504	7.36562e+06	-41589.1	955.818	-29786.4	0.000000	0.000000	6.562944	0.082564	NaN	0.000000	0.001598	0.001749	28.0855	0.009004	0.002081	4.327798	-63.7429	-161.539	0.001603	0.561225	-0.511896	-0.513175	0.082564	4.327798	-0.526204	-7.94041e+06	-1.039790E-8	NaN
59	1.000000	0.602535	7.36562e+06	-41589.1	955.818	-29786.4	0.000000	0.000000	6.602970	-0.062106	NaN	0.000000	0.001590	0.001727	28.0844	0.031829	0.002114	15.0547	56.3234	-163.456	0.021515	0.601248	-0.471865	-0.473152	-0.062106	15.0547	-0.468771	-1.25362e+06	4.954169E-8	NaN
59	1.000000	0.642541	7.36562e+06	-41589.1	955.819	-29786.4	0.000000	0.000000	6.642978	-0.001828	NaN	0.000000	0.001572	0.001747	28.0857	0.072058	0.001961	36.746	-52.7111	-163.459	0.029050	0.641291	-0.431859	-0.433108	-0.001828	36.746	-0.431821	-378290	4.831440E-9	NaN
59	1.000000	0.682594	7.36562e+06	-41589.1	955.818	-29786.4	0.000000	0.000000	6.683033	0.034284	NaN	0.000000	0.001559	0.001738	28.0827	0.073501	0.002028	36.2463	87.143	-165.478	-0.018326	0.681303	-0.391805	-0.393096	0.034284	36.2463	-0.392515	-104502	-3.280706E-7	NaN
59	1.000000	0.722590	7.36562e+06	-41589.1	955.819	-29786.4	0.000000	0.000000	6.723025	-0.056693	NaN	0.000000	0.001534	0.001754	28.0849	0.010905	0.002080	5.242455	177.64	-162.463	-0.032462	0.721328	-0.351809	-0.353072	-0.056693	5.242455	-0.343699	-20674	2.742235E-6	NaN
59	1.000000	0.762609	7.36562e+06	-41589.1	955.818	-29786.4	0.000000	0.000000	6.763046	0.003138	NaN	0.000000	0.001591	0.001692	28.0842	0.045751	0.002008	22.7876	47.8226	-163.369	-0.024467	0.761326	-0.311791	-0.313073	0.003138	22.7876	-0.311894	-7064.35	-4.441382E-7	NaN
59	1.000000	0.802629	7.36562e+06	-41589.1	955.819	-29786.4	0.000000	0.000000	6.803065	-0.039517	NaN	0.000000	0.001555	0.001694	28.0866	0.045502	0.001841	24.7155	59.6079	-165.56	-0.099663	0.801341	-0.271770	-0.273059	-0.039517	24.7155	-0.270571	-1699.12	2.325715E-5	NaN
59	1.000000	0.842635	7.36562e+06	-41589.1	955.818	-29786.4	0.000000	0.000000	6.843072	-0.018690	NaN	0.000000	0.001600	0.001712	28.0847	0.030814	0.002028	15.196	48.097	-164.86	0.038407	0.841299	-0.231765	-0.233101	-0.018690	15.196	-0.230842	-412.866	4.526874E-5	NaN
59	1.000000	0.882638	7.36562e+06	-41589.1	955.818	-29786.4	0.000000	0.000000	6.883072	-0.082583	NaN	0.000000	0.001592	0.001717	28.0865	0.120364	0.001932	62.2892	-114.417	-167.602	-0.066877	0.881365	-0.191762	-0.193034	-0.082583	62.2892	-0.190767	-92.6481	0.000891	NaN
59	1.000000	0.922657	7.36562e+06	-41589.1	955.819	-29786.4	0.000000	0.000000	6.923095	0.018368	NaN	0.000000	0.001670	0.001711	28.0847	0.042110	0.001936	21.7473	161.064	-165.077	0.052344	0.921374	-0.151743	-0.153025	0.018368	21.7473	-0.152376	-20.0081	-0.000918	NaN
59	1.000000	0.962671	7.36562e+06	-41589.1	955.819	-29786.4	0.000000	0.000000	6.963105	-0.077936	NaN	0.000000	0.001659	0.001676	28.087	0.142050	0.001984	71.6018	146.411	-164.072	-0.129000	0.961374	-0.111729	-0.113026	-0.077936	71.6018	-0.110912	-3.141027	0.024812	NaN
59	1.000000	1.002695	7.36562e+06	-41589.1	955.819	-29786.4	0.000000	0.000000	7.003133	0.013015	NaN	0.000000	0.001652	0.001734	28.0858	0.031269	0.002056	15.2103	-162.842	-165.547	0.044592	1.001368	-0.071704	-0.073032	0.013015	15.2103	-0.072346	-0.393756	-0.033053	NaN
59	1.000000	1.042761	7.36562e+06	-41589.1	955.819	-29786.4	0.000000	0.000000	7.043196	-0.059477	NaN	0.000000	0.001633	0.001742	28.0856	0.040760	0.002070	19.6956	-164.264	-163.563	-0.033663	1.041460	-0.031639	-0.032939	-0.059477	19.6956	-0.029374	-0.022110	2.690003	NaN
59	1.000000	1.082698	7.36562e+06	-41589.1	955.818	-29786.4	0.000000	0.000000	7.083345	5.103671	NaN	0.000000	0.001623	0.001750	28.0867	6.082192	0.001949	3120.24	14.6355	-170.105	3.643201	1.081432	0.008298	0.007033	5.103671	3120.24	0.007072	0.006105	836.028	36486.3
59	2.000000	1.095216	7.36562e+06	-41589.1	955.818	-29786.4	0.000000	0.000000	7.096619	23.5068	NaN	0.000000	0.001607	0.001738	28.0881	19.1193	0.001824	10484	5.180073	-175.58	21.948	1.094825	0.020816	0.020426	23.5068	10484	0.019135	0.021201	1108.78	65785
59	2.000000	1.105184	7.36563e+06	-41589.1	955.818	-29786.4	0.000000	0.000000	7.107557	47.1093	NaN	0.000000	0.001593	0.001723	28.088	29.0669	0.001879	15471.7	4.755372	-178.26	45.4877	1.104877	0.030784	0.030477	47.1093	15471.7	0.028500	0.037693	1249.82	72808.3
59	2.000000	1.115149	7.36563e+06	-41589.1	955.818	-29786.4	0.000000	0.000000	7.118908	80.8302	NaN	0.000000	0.001572	0.001734	28.086	39.736	0.001853	21445.4	6.708690	177.546	80.6665	1.114812	0.040749	0.040413	80.8302	21445.4	0.037922	0.058769	1375.4	80823
59	2.000000	1.125158	7.36563e+06	-41589.1	955.819	-29786.4	0.000000	0.000000	7.130454	118.224	NaN	0.000000	0.001603	0.001719	28.0855	47.991	0.001806	26577.2	5.632259	176.573	118.153	1.124808	0.050758	0.050408	118.224	26577.2	0.047422	0.084611	1397.26	83477.6
59	2.000000	1.135122	7.36563e+06	-41589.1	955.819	-29786.4	0.000000	0.000000	7.142443	167.497	NaN	0.000000	0.001593	0.001729	28.0867	56.7695	0.001895	29952	3.953432	177.377	166.537	1.134935	0.060722	0.060535	167.497	29952	0.056528	0.113654	1473.74	81172.2
59	2.000000	1.145122	7.36563e+06	-41589.1	955.82	-29786.4	0.000000	0.000000	7.154862	226.351	NaN	0.000000	0.001592	0.001706	28.0858	65.9586	0.001842	35814	3.254842	176.796	223.939	1.144832	0.070722	0.070432	226.351	35814	0.065982	0.148128	1528.08	85017.3
59	2.000000	1.155070	7.36563e+06	-41589.1	955.819	-29786.4	0.000000	0.000000	7.167412	289.665	NaN	0.000000	0.001591	0.001688	28.0878	73.9614	0.001814	40771.4	1.875097	176.641	287.935	1.154833	0.080670	0.080433	289.665	40771.4	0.075342	0.186495	1553.21	86257.2
59	2.000000	1.165064	7.36563e+06	-41589.1	955.82	-29786.4	0.000000	0.000000	7.180370	361.78	NaN	0.000000	0.001601	0.001714	28.087	84.352	0.001790	47128.9	4.685925	172.829	359.042	1.164754	0.090664	0.090354	361.78	47128.9	0.084907	0.229959	1573.24	89791.5
59	2.000000	1.175089	7.36563e+06	-41589.1	955.819	-29786.4	0.000000	0.000000	7.193424	435.495	NaN	0.000000	0.001600	0.001656	28.0877	93.601	0.001830	51144.8	4.447602	172.663	433.472	1.174790	0.100689	0.100390	435.495	51144.8	0.094303	0.276771	1573.49	88820.8
59	2.000000	1.184517	7.36563e+06	-41589.1	955.821	-29786.4	0.000000	0.000000	7.206338	520.31	NaN	0.000000	0.001573	0.001731	28.1255	102.49	0.001694	60504.1	2.931480	-6.730818	513.96	1.184139	0.110117	0.109739	520.31	60504.1	0.103667	0.327437	1589.04	96603.9