Folder: unikorn_login/remote_trans/data/nanoindenter/0828-1/data/Data_2025-08-06,11h17m57s (part 167)

File: 2025-07-22_16-23-58_1_351.txt
2025-07-22, 16:23:58, 1
Index	Phase	Displacement	Time	Pos X	Pos Y	Pos Z	Rot A	Rot B	Piezo Z	Force A	Force B	Gripper	Voltage A	Voltage B	Temperature	Amplitude force	Amplitude pos	Stiffness	Phase shift	Phase excitation	Force A raw	Displacement raw	HMax	HMax raw	Real Force	Real Stiffness	Contact Depth	Area	Hardness	Reduced Mod.
[#]	[#]	[um]	[s]	[um]	[um]	[um]	[m°]	[m°]	[um]	[uN]	[uN]	[V]	[V]	[V]	[°C]	[uN]	[um]	[N/m]	[°]	[°]	[uN]	[um]	[um]	[um]	[uN]	[N/m]	[um]	[um^2]	[MPa]	[MPa]
351	1.000000	0.002159	7.36849e+06	-56189.1	955.818	-29739.9	0.000000	0.000000	6.002818	-0.024981	NaN	0.000000	0.001611	0.001806	28.0811	0.061715	0.001046	59.0143	79.9093	-168.987	-0.088962	0.000854	-1.148687	-1.149992	-0.024981	59.0143	-1.148369	-2.233348E+15	1.118525E-17	NaN
351	1.000000	0.044064	7.36849e+06	-56189.1	955.818	-29739.9	0.000000	0.000000	6.044725	0.021273	NaN	0.000000	0.001544	0.001804	28.0811	0.048164	0.001932	24.9254	19.6838	14.5734	-0.033070	0.042742	-1.106782	-1.108104	0.021273	24.9254	-1.107422	-6.305047E+14	-3.373996E-17	NaN
351	1.000000	0.086096	7.36849e+06	-56189.1	955.819	-29739.9	0.000000	0.000000	6.086755	-0.016390	NaN	0.000000	0.001562	0.001794	28.0811	0.032617	0.001989	16.3954	85.1027	-168.728	-0.015220	0.084769	-1.064750	-1.066077	-0.016390	16.3954	-1.064000	-1.646561E+14	9.954219E-17	NaN
351	1.000000	0.128126	7.36849e+06	-56189.1	955.818	-29739.9	0.000000	0.000000	6.128787	0.002000	NaN	0.000000	0.001517	0.001799	28.0814	0.041944	0.002127	19.7154	153.425	15.8183	0.077271	0.126751	-1.022719	-1.024095	0.002000	19.7154	-1.022795	-4.597919E+13	-4.349400E-17	NaN
351	1.000000	0.170140	7.36849e+06	-56189.1	955.819	-29739.9	0.000000	0.000000	6.170800	-0.003106	NaN	0.000000	0.001588	0.001779	28.0796	0.103198	0.001866	55.3067	106.727	-168.856	0.058292	0.168844	-0.980706	-0.982002	-0.003106	55.3067	-0.980664	-1.245538E+13	2.494071E-16	NaN
351	1.000000	0.212096	7.36849e+06	-56189.1	955.819	-29739.9	0.000000	0.000000	6.212754	-0.069179	NaN	0.000000	0.001547	0.001827	28.0797	0.046509	0.002029	22.9236	27.7591	14.1372	-0.006582	0.210741	-0.938750	-0.940105	-0.069179	22.9236	-0.936486	-3.160298E+12	2.188990E-14	NaN
351	1.000000	0.254180	7.36849e+06	-56189.1	955.819	-29739.9	0.000000	0.000000	6.254841	0.025182	NaN	0.000000	0.001553	0.001817	28.0796	0.023556	0.002040	11.5476	78.7753	-166.141	-0.016916	0.252868	-0.896666	-0.897978	0.025182	11.5476	-0.898302	-9.640882E+11	-2.612027E-14	NaN
351	1.000000	0.296191	7.36849e+06	-56189.1	955.818	-29739.9	0.000000	0.000000	6.296850	-0.046211	NaN	0.000000	0.001549	0.001781	28.0807	0.091560	0.002032	45.0635	-175.301	13.9659	0.002203	0.294866	-0.854655	-0.855979	-0.046211	45.0635	-0.853886	-2.417400E+11	1.911595E-13	NaN
351	1.000000	0.338252	7.36849e+06	-56189.1	955.818	-29739.9	0.000000	0.000000	6.338910	-0.058262	NaN	0.000000	0.001550	0.001736	28.0806	0.038136	0.001856	20.5462	22.4877	-166.905	0.115235	0.336881	-0.812594	-0.813965	-0.058262	20.5462	-0.810467	-6.236036E+10	9.342739E-13	NaN
351	1.000000	0.380228	7.36849e+06	-56189.1	955.818	-29739.8	0.000000	0.000000	6.380891	0.068370	NaN	0.000000	0.001627	0.001737	28.0807	0.025721	0.002086	12.3292	-22.3599	11.4251	0.026287	0.378881	-0.770618	-0.771964	0.068370	12.3292	-0.774777	-2.042896E+10	-3.346708E-12	NaN
351	1.000000	0.422228	7.3685e+06	-56189.1	955.818	-29739.8	0.000000	0.000000	6.422888	-0.002902	NaN	0.000000	0.001621	0.001757	28.0796	0.047776	0.002089	22.868	-121.124	-163.814	-0.006274	0.420941	-0.728618	-0.729905	-0.002902	22.868	-0.728523	-4.793708E+9	6.053858E-13	NaN
351	1.000000	0.464275	7.3685e+06	-56189.1	955.818	-29739.8	0.000000	0.000000	6.464935	-0.005410	NaN	0.000000	0.001562	0.001731	28.0796	0.019218	0.001908	10.0738	-176.814	15.3016	0.076814	0.462897	-0.686571	-0.687948	-0.005410	10.0738	-0.686168	-1.266307E+9	4.272061E-12	NaN
351	1.000000	0.506256	7.3685e+06	-56189.1	955.817	-29739.8	0.000000	0.000000	6.506915	-0.044443	NaN	0.000000	0.001613	0.001757	28.0795	0.031974	0.001995	16.0291	-31.5581	-161.394	0.042755	0.504920	-0.644589	-0.645926	-0.044443	16.0291	-0.642510	-3.196858E+8	1.390210E-10	NaN
351	1.000000	0.548280	7.3685e+06	-56189.1	955.819	-29739.8	0.000000	0.000000	6.548938	-0.075715	NaN	0.000000	0.001575	0.001704	28.0807	0.025825	0.001987	12.9981	61.7465	16.6053	-0.024160	0.546944	-0.602565	-0.603901	-0.075715	12.9981	-0.598197	-7.863597E+7	9.628604E-10	NaN
351	1.000000	0.590322	7.3685e+06	-56189.1	955.819	-29739.8	0.000000	0.000000	6.590982	0.001921	NaN	0.000000	0.001532	0.001716	28.0808	0.073351	0.002043	35.896	-170.183	-169.227	0.026593	0.588970	-0.560524	-0.561875	0.001921	35.896	-0.560564	-2.377825E+7	-8.079268E-11	NaN
351	1.000000	0.632367	7.3685e+06	-56189.1	955.82	-29739.8	0.000000	0.000000	6.633029	0.026846	NaN	0.000000	0.001538	0.001729	28.0809	0.032683	0.002048	15.96	55.3378	15.7811	-0.022527	0.630994	-0.518479	-0.519852	0.026846	15.96	-0.519740	-6.45632e+06	-4.158151E-9	NaN
351	1.000000	0.674344	7.3685e+06	-56189.1	955.819	-29739.8	0.000000	0.000000	6.675004	-0.015066	NaN	0.000000	0.001554	0.001718	28.0806	0.117692	0.002020	58.2674	167.19	-164.668	-0.034359	0.673026	-0.476502	-0.477820	-0.015066	58.2674	-0.476308	-1.5989e+06	9.422800E-9	NaN
351	1.000000	0.716343	7.3685e+06	-56189.1	955.819	-29739.8	0.000000	0.000000	6.717006	0.056409	NaN	0.000000	0.001511	0.001774	28.0796	0.158295	0.001919	82.4941	111.152	12.9343	-0.023141	0.715063	-0.434503	-0.435783	0.056409	82.4941	-0.435015	-419733	-1.343920E-7	NaN
351	1.000000	0.758398	7.3685e+06	-56189.1	955.818	-29739.8	0.000000	0.000000	6.759060	0.033597	NaN	0.000000	0.001585	0.001716	28.0794	0.082374	0.002024	40.7013	-79.5109	-166.692	0.066079	0.757084	-0.392447	-0.393762	0.033597	40.7013	-0.393067	-106417	-3.157114E-7	NaN
351	1.000000	0.800413	7.3685e+06	-56189.1	955.818	-29739.8	0.000000	0.000000	6.801074	0.024342	NaN	0.000000	0.001536	0.001712	28.0794	0.064965	0.002012	32.2914	89.0235	12.5835	0.013175	0.799011	-0.350433	-0.351835	0.024342	32.2914	-0.350998	-26393.1	-9.222897E-7	NaN
351	1.000000	0.842413	7.3685e+06	-56189.1	955.818	-29739.8	0.000000	0.000000	6.843073	-0.004738	NaN	0.000000	0.001574	0.001705	28.0805	0.055647	0.002001	27.8074	32.081	-163.197	0.005131	0.841129	-0.308433	-0.309717	-0.004738	27.8074	-0.308305	-6251.08	7.579538E-7	NaN
351	1.000000	0.884442	7.3685e+06	-56189.1	955.817	-29739.8	0.000000	0.000000	6.885104	0.052007	NaN	0.000000	0.001617	0.001741	28.0806	0.022033	0.001955	11.2685	34.0602	14.6438	-0.024317	0.883052	-0.266404	-0.267794	0.052007	11.2685	-0.269865	-1657.67	-3.137337E-5	NaN
351	1.000000	0.926459	7.3685e+06	-56189.1	955.818	-29739.8	0.000000	0.000000	6.927119	0.006640	NaN	0.000000	0.001643	0.001719	28.0805	0.044049	0.001921	22.9303	56.0325	-163.261	-0.007405	0.925159	-0.224387	-0.225687	0.006640	22.9303	-0.224604	-328.886	-2.018931E-5	NaN
351	1.000000	0.968460	7.3685e+06	-56189.1	955.819	-29739.8	0.000000	0.000000	6.969122	0.028491	NaN	0.000000	0.001619	0.001734	28.0796	0.041063	0.002035	20.1733	-45.7343	13.1949	-0.073939	0.967140	-0.182385	-0.183706	0.028491	20.1733	-0.183445	-69.8039	-0.000408	NaN
351	1.000000	1.010491	7.3685e+06	-56189.1	955.82	-29739.8	0.000000	0.000000	7.011154	0.052512	NaN	0.000000	0.001503	0.001689	28.0795	0.074764	0.001904	39.2579	-16.9044	-162.767	-0.032947	1.009136	-0.140355	-0.141710	0.052512	39.2579	-0.141358	-12.5435	-0.004186	NaN
351	1.000000	1.052493	7.3685e+06	-56189.1	955.821	-29739.8	0.000000	0.000000	7.053153	-0.028156	NaN	0.000000	0.001523	0.001728	28.0796	0.090184	0.002115	42.637	-156.392	11.3012	-0.037928	1.051139	-0.098352	-0.099706	-0.028156	42.637	-0.097857	-1.636802	0.017202	NaN
351	1.000000	1.094518	7.3685e+06	-56189.1	955.821	-29739.8	0.000000	0.000000	7.095176	-0.045446	NaN	0.000000	0.001505	0.001750	28.0808	0.068432	0.002094	32.6774	0.479683	-168.129	0.046517	1.093226	-0.056328	-0.057620	-0.045446	32.6774	-0.055285	-0.131295	0.346138	NaN
351	1.000000	1.136503	7.3685e+06	-56189.1	955.82	-29739.8	0.000000	0.000000	7.137164	0.017583	NaN	0.000000	0.001525	0.001754	28.0805	0.072383	0.002006	36.0896	-44.073	10.2629	0.063402	1.135186	-0.014343	-0.015660	0.017583	36.0896	-0.014708	-0.009101	-1.931942	NaN
351	2.000000	1.164166	7.3685e+06	-56189.1	955.821	-29739.8	0.000000	0.000000	7.165393	13.7621	NaN	0.000000	0.001577	0.001757	28.0807	13.28	0.001839	7222.62	7.585930	-175.928	12.9716	1.163862	0.013320	0.013016	13.7621	7222.62	0.011891	0.011360	1211.43	61912.1
351	2.000000	1.174562	7.3685e+06	-56189.1	955.821	-29739.8	0.000000	0.000000	7.176549	32.2488	NaN	0.000000	0.001500	0.001734	28.0811	23.505	0.001718	13684.6	9.874687	-4.291744	30.1103	1.174197	0.023716	0.023351	32.2488	13684.6	0.021949	0.025697	1254.94	77993.9
351	2.000000	1.185102	7.3685e+06	-56189.1	955.822	-29739.8	0.000000	0.000000	7.188028	55.0631	NaN	0.000000	0.001492	0.001711	28.0797	32.9433	0.001751	18818.7	3.623400	179.062	54.4986	1.184724	0.034256	0.033878	55.0631	18818.7	0.032062	0.045126	1220.21	80937.8
351	2.000000	1.195638	7.3685e+06	-56189.1	955.822	-29739.8	0.000000	0.000000	7.200052	91.2439	NaN	0.000000	0.001492	0.001704	28.0796	43.7778	0.001776	24651.5	4.495824	-2.772692	93.3315	1.195322	0.044792	0.044477	91.2439	24651.5	0.042016	0.069342	1315.85	85529.9
351	2.000000	1.206074	7.3685e+06	-56189.1	955.821	-29739.8	0.000000	0.000000	7.212531	140.897	NaN	0.000000	0.001554	0.001727	28.0799	55.7393	0.001802	30931	3.002879	177.33	140.139	1.205768	0.055229	0.054923	140.897	30931	0.051812	0.098097	1436.31	90227.6
351	2.000000	1.216536	7.3685e+06	-56189.1	955.82	-29739.8	0.000000	0.000000	7.225258	195.958	NaN	0.000000	0.001573	0.001745	28.0809	66.2165	0.001839	36010.1	7.226232	-8.990897	195.043	1.216253	0.065690	0.065407	195.958	36010.1	0.061609	0.131640	1488.59	90678.2
351	2.000000	1.227076	7.3685e+06	-56189.1	955.821	-29739.8	0.000000	0.000000	7.238148	253.089	NaN	0.000000	0.001566	0.001734	28.0807	75.3758	0.001834	41094.8	6.288851	172.334	253.857	1.226596	0.076230	0.075750	253.089	41094.8	0.071611	0.170704	1482.62	90873.8
351	2.000000	1.237422	7.3685e+06	-56189.1	955.822	-29739.8	0.000000	0.000000	7.251217	319.252	NaN	0.000000	0.001546	0.001726	28.0807	84.6202	0.001787	47349	2.915827	-6.660556	313.05	1.237011	0.086576	0.086165	319.252	47349	0.081519	0.214078	1491.29	93496.9
351	2.000000	1.248025	7.3685e+06	-56189.1	955.821	-29739.8	0.000000	0.000000	7.264761	390.756	NaN	0.000000	0.001527	0.001725	28.0796	95.9086	0.001838	52191.9	3.928443	171.469	390.569	1.247832	0.097179	0.096986	390.756	52191.9	0.091564	0.262706	1487.43	93034.1
351	2.000000	1.257983	7.3685e+06	-56189.1	955.822	-29739.8	0.000000	0.000000	7.277736	464.065	NaN	0.000000	0.001548	0.001713	28.0797	103.712	0.001797	57715.8	4.637503	170.066	462.856	1.257813	0.107138	0.106968	464.065	57715.8	0.101107	0.313189	1481.74	94224.6

File: 2025-07-22_16-23-58_1_352.txt
2025-07-22, 16:23:58, 1
Index	Phase	Displacement	Time	Pos X	Pos Y	Pos Z	Rot A	Rot B	Piezo Z	Force A	Force B	Gripper	Voltage A	Voltage B	Temperature	Amplitude force	Amplitude pos	Stiffness	Phase shift	Phase excitation	Force A raw	Displacement raw	HMax	HMax raw	Real Force	Real Stiffness	Contact Depth	Area	Hardness	Reduced Mod.
[#]	[#]	[um]	[s]	[um]	[um]	[um]	[m°]	[m°]	[um]	[uN]	[uN]	[V]	[V]	[V]	[°C]	[uN]	[um]	[N/m]	[°]	[°]	[uN]	[um]	[um]	[um]	[uN]	[N/m]	[um]	[um^2]	[MPa]	[MPa]
352	1.000000	0.002522	7.3685e+06	-56239.1	955.818	-29739.8	0.000000	0.000000	6.002824	-0.030515	NaN	0.000000	0.001542	0.001784	28.0798	0.051937	0.001087	47.7836	134.354	-167.523	-0.042253	0.001286	-1.052666	-1.053901	-0.030515	47.7836	-1.052187	-1.142370E+14	2.671239E-16	NaN
352	1.000000	0.042471	7.3685e+06	-56239.1	955.818	-29739.8	0.000000	0.000000	6.042775	0.026059	NaN	0.000000	0.001520	0.001746	28.0797	0.045457	0.001982	22.9344	-63.1484	-168.269	0.063853	0.041141	-1.012717	-1.014046	0.026059	22.9344	-1.013569	-3.454706E+13	-7.542987E-16	NaN
352	1.000000	0.082432	7.3685e+06	-56239.1	955.819	-29739.8	0.000000	0.000000	6.082732	-0.080788	NaN	0.000000	0.001592	0.001764	28.0789	0.028155	0.002076	13.5633	-117.529	-166.794	-0.148666	0.081211	-0.972755	-0.973976	-0.080788	13.5633	-0.968288	-8.483738E+12	9.522747E-15	NaN
352	1.000000	0.122474	7.3685e+06	-56239.1	955.818	-29739.8	0.000000	0.000000	6.122777	-0.025801	NaN	0.000000	0.001589	0.001785	28.0788	0.039103	0.002118	18.4619	162.387	-168.715	-0.010612	0.121159	-0.932713	-0.934028	-0.025801	18.4619	-0.931665	-2.720604E+12	9.483705E-15	NaN
352	1.000000	0.162488	7.3685e+06	-56239.1	955.819	-29739.8	0.000000	0.000000	6.162793	0.017638	NaN	0.000000	0.001566	0.001751	28.0787	0.013246	0.001990	6.656771	-37.2932	-165.861	-0.025695	0.161216	-0.892699	-0.893971	0.017638	6.656771	-0.894686	-8.614993E+11	-2.047339E-14	NaN
352	1.000000	0.202490	7.3685e+06	-56239.1	955.818	-29739.8	0.000000	0.000000	6.202795	0.041721	NaN	0.000000	0.001548	0.001688	28.0794	0.114712	0.002053	55.867	-141.481	-164.533	0.003358	0.201196	-0.852698	-0.853991	0.041721	55.867	-0.853258	-2.370543E+11	-1.759993E-13	NaN
352	1.000000	0.242541	7.3685e+06	-56239.1	955.817	-29739.8	0.000000	0.000000	6.242845	0.007313	NaN	0.000000	0.001573	0.001732	28.0794	0.077830	0.002119	36.7299	57.4264	-165.118	0.029913	0.241182	-0.812646	-0.814005	0.007313	36.7299	-0.812796	-6.706509E+10	-1.090367E-13	NaN
352	1.000000	0.282531	7.3685e+06	-56239.1	955.818	-29739.8	0.000000	0.000000	6.282833	-0.032025	NaN	0.000000	0.001579	0.001680	28.0796	0.109939	0.002039	53.9302	59.4788	-164.885	-0.041963	0.281235	-0.772656	-0.773953	-0.032025	53.9302	-0.772211	-1.885225E+10	1.698757E-12	NaN
352	1.000000	0.322559	7.3685e+06	-56239.1	955.818	-29739.8	0.000000	0.000000	6.322862	-0.020869	NaN	0.000000	0.001551	0.001755	28.0787	0.028307	0.002100	13.4762	-1.419443	-163.462	-0.100339	0.321256	-0.732628	-0.733932	-0.020869	13.4762	-0.731467	-5.257710E+9	3.969271E-12	NaN
352	1.000000	0.362573	7.3685e+06	-56239.1	955.818	-29739.8	0.000000	0.000000	6.362875	-0.036530	NaN	0.000000	0.001555	0.001754	28.0788	0.039666	0.001945	20.3937	3.873645	-167.529	-0.068839	0.361268	-0.692614	-0.693919	-0.036530	20.3937	-0.691271	-1.486920E+9	2.456769E-11	NaN
352	1.000000	0.402570	7.36851e+06	-56239.1	955.818	-29739.8	0.000000	0.000000	6.402872	-0.031475	NaN	0.000000	0.001525	0.001751	28.0786	0.058339	0.002063	28.2829	-0.933194	-167.77	-0.130147	0.401251	-0.652617	-0.653936	-0.031475	28.2829	-0.651782	-4.284201E+8	7.346688E-11	NaN
352	1.000000	0.442605	7.36851e+06	-56239.1	955.818	-29739.8	0.000000	0.000000	6.442908	-0.016594	NaN	0.000000	0.001514	0.001723	28.0788	0.006991	0.002006	3.484685	-88.5788	-167.915	-0.091519	0.441247	-0.612582	-0.613940	-0.016594	3.484685	-0.609010	-1.107894E+8	1.497777E-10	NaN
352	1.000000	0.482604	7.36851e+06	-56239.1	955.818	-29739.8	0.000000	0.000000	6.482905	-0.043676	NaN	0.000000	0.001541	0.001737	28.0801	0.105557	0.001867	56.544	47.1356	-163.968	-0.070831	0.481302	-0.572584	-0.573886	-0.043676	56.544	-0.572004	-3.422328E+7	1.276195E-9	NaN
352	1.000000	0.522660	7.36851e+06	-56239.1	955.819	-29739.8	0.000000	0.000000	6.522961	-0.052987	NaN	0.000000	0.001546	0.001756	28.0802	0.057932	0.001899	30.5036	-163.356	-165.451	-0.147079	0.521358	-0.532527	-0.533829	-0.052987	30.5036	-0.531225	-9.32352e+06	5.683169E-9	NaN
352	1.000000	0.562666	7.36851e+06	-56239.1	955.818	-29739.8	0.000000	0.000000	6.562973	0.075727	NaN	0.000000	0.001612	0.001783	28.0797	0.106854	0.002019	52.9332	-54.4475	-167.052	0.065484	0.561360	-0.492521	-0.493827	0.075727	52.9332	-0.493594	-2.79001e+06	-2.714220E-8	NaN
352	1.000000	0.602681	7.36851e+06	-56239.1	955.819	-29739.8	0.000000	0.000000	6.602984	-0.016078	NaN	0.000000	0.001580	0.001715	28.0783	0.042506	0.001925	22.0796	95.8949	-166.45	-0.071430	0.601344	-0.452506	-0.453843	-0.016078	22.0796	-0.451960	-727675	2.209439E-8	NaN
352	1.000000	0.642726	7.36851e+06	-56239.1	955.818	-29739.8	0.000000	0.000000	6.643027	-0.056899	NaN	0.000000	0.001539	0.001723	28.0785	0.103858	0.001995	52.0567	127.636	-166.79	-0.052145	0.641420	-0.412462	-0.413767	-0.056899	52.0567	-0.411642	-195769	2.906420E-7	NaN
352	1.000000	0.682730	7.36851e+06	-56239.1	955.819	-29739.8	0.000000	0.000000	6.683035	0.043668	NaN	0.000000	0.001532	0.001703	28.0785	0.082543	0.002124	38.8684	99.7068	-167.965	0.030586	0.681446	-0.372457	-0.373741	0.043668	38.8684	-0.373300	-55414.6	-7.880231E-7	NaN
352	1.000000	0.722729	7.36851e+06	-56239.1	955.818	-29739.8	0.000000	0.000000	6.723034	0.052527	NaN	0.000000	0.001557	0.001715	28.0784	0.099957	0.001938	51.5709	168.017	-162.571	-0.010761	0.721366	-0.332459	-0.333821	0.052527	51.5709	-0.333223	-14541.4	-3.612200E-6	NaN
352	1.000000	0.762763	7.36851e+06	-56239.1	955.819	-29739.8	0.000000	0.000000	6.763065	-0.043746	NaN	0.000000	0.001570	0.001649	28.0796	0.046363	0.001985	23.3594	-102.142	-167.182	-0.034125	0.761413	-0.292424	-0.293774	-0.043746	23.3594	-0.291020	-3455.99	1.265816E-5	NaN
352	1.000000	0.802782	7.36851e+06	-56239.1	955.818	-29739.8	0.000000	0.000000	6.803088	0.053198	NaN	0.000000	0.001615	0.001675	28.0796	0.060263	0.002021	29.8155	-4.637382	-166.881	0.002811	0.801464	-0.252405	-0.253723	0.053198	29.8155	-0.253744	-939.209	-5.664109E-5	NaN
352	1.000000	0.842794	7.36851e+06	-56239.1	955.817	-29739.8	0.000000	0.000000	6.843098	0.017830	NaN	0.000000	0.001548	0.001714	28.0795	0.014265	0.001981	7.200836	150.415	-165.705	-0.028569	0.841462	-0.212393	-0.213726	0.017830	7.200836	-0.214250	-224.62	-7.937686E-5	NaN
352	1.000000	0.882794	7.36851e+06	-56239.1	955.818	-29739.8	0.000000	0.000000	6.883096	-0.040142	NaN	0.000000	0.001637	0.001690	28.0787	0.103328	0.001984	52.0877	-23.6317	-167.388	0.023242	0.881473	-0.172393	-0.173714	-0.040142	52.0877	-0.171815	-44.1639	0.000909	NaN
352	1.000000	0.922766	7.36851e+06	-56239.1	955.818	-29739.8	0.000000	0.000000	6.923072	0.058964	NaN	0.000000	0.001570	0.001698	28.0786	0.051498	0.002067	24.9167	-15.0692	-165.822	-0.050263	0.921469	-0.132422	-0.133719	0.058964	24.9167	-0.134196	-9.181786	-0.006422	NaN
352	1.000000	0.962840	7.36851e+06	-56239.1	955.818	-29739.8	0.000000	0.000000	6.963146	0.078647	NaN	0.000000	0.001495	0.001695	28.0786	0.022447	0.001928	11.6427	123.649	-167.051	0.048322	0.961495	-0.092348	-0.093692	0.078647	11.6427	-0.097414	-1.599732	-0.049163	NaN
352	1.000000	1.002824	7.36851e+06	-56239.1	955.821	-29739.8	0.000000	0.000000	7.003126	-0.051578	NaN	0.000000	0.001541	0.001656	28.0799	0.032306	0.001927	16.7684	-175.918	-170.385	-0.048524	1.001536	-0.052363	-0.053651	-0.051578	16.7684	-0.050056	-0.091607	0.563036	NaN
352	1.000000	1.042859	7.36851e+06	-56239.1	955.819	-29739.8	0.000000	0.000000	7.043161	-0.023621	NaN	0.000000	0.001516	0.001644	28.08	0.060137	0.002050	29.3294	155.413	-161.902	0.008502	1.041533	-0.012328	-0.013654	-0.023621	29.3294	-0.011724	-0.007371	3.204543	NaN
352	2.000000	1.068355	7.36851e+06	-56239.1	955.819	-29739.8	0.000000	0.000000	7.069334	16.4281	NaN	0.000000	0.001522	0.001657	28.08	14.5922	0.001592	9165.25	3.550380	-174.164	15.7871	1.068091	0.013168	0.012904	16.4281	9165.25	0.011823	0.011279	1456.53	78846.6
352	2.000000	1.078345	7.36851e+06	-56239.1	955.819	-29739.8	0.000000	0.000000	7.080085	34.9172	NaN	0.000000	0.001520	0.001638	28.08	25.8695	0.001850	13984.1	5.196262	-179.317	34.3756	1.078042	0.023158	0.022855	34.9172	13984.1	0.021285	0.024603	1419.25	81455.1
352	2.000000	1.088253	7.36851e+06	-56239.1	955.819	-29739.8	0.000000	0.000000	7.090980	58.9068	NaN	0.000000	0.001600	0.001649	28.0788	33.6217	0.001815	18521.1	2.654325	-178.148	57.5748	1.088107	0.033066	0.032920	58.9068	18521.1	0.030680	0.042166	1397.03	82406.1
352	2.000000	1.098274	7.36851e+06	-56239.1	955.819	-29739.8	0.000000	0.000000	7.102460	94.3884	NaN	0.000000	0.001565	0.001663	28.0785	43.756	0.001808	24201.4	7.718713	173.856	93.3614	1.097949	0.043086	0.042762	94.3884	24201.4	0.040161	0.064446	1464.62	87099.8
352	2.000000	1.108198	7.36851e+06	-56239.1	955.819	-29739.8	0.000000	0.000000	7.113940	132.191	NaN	0.000000	0.001587	0.001672	28.0785	51.9646	0.001946	26699.1	4.231586	176.817	128.088	1.107964	0.053010	0.052777	132.191	26699.1	0.049297	0.090253	1464.67	81196.8
352	2.000000	1.118205	7.36851e+06	-56239.1	955.82	-29739.8	0.000000	0.000000	7.125984	181.71	NaN	0.000000	0.001513	0.001686	28.0797	59.2683	0.001816	32631.2	1.532711	177.58	177.696	1.117879	0.063018	0.062691	181.71	32631.2	0.058841	0.121686	1493.27	85464.7
352	2.000000	1.128255	7.36851e+06	-56239.1	955.822	-29739.8	0.000000	0.000000	7.137915	227.43	NaN	0.000000	0.001544	0.001729	28.0799	69.3376	0.001916	36198.1	8.133766	171.043	227.46	1.127907	0.073068	0.072720	227.43	36198.1	0.068355	0.157463	1444.34	83343.2
352	2.000000	1.138172	7.36851e+06	-56239.1	955.821	-29739.8	0.000000	0.000000	7.150124	283.154	NaN	0.000000	0.001530	0.001696	28.0801	77.6298	0.001857	41815	5.386966	171.981	280.135	1.137855	0.082984	0.082667	283.154	41815	0.077906	0.197725	1432.06	85916.1
352	2.000000	1.148270	7.36851e+06	-56239.1	955.821	-29739.8	0.000000	0.000000	7.162397	336.013	NaN	0.000000	0.001502	0.001671	28.08	85.7309	0.001847	46420.7	3.012380	173.43	336.064	1.147920	0.093082	0.092733	336.013	46420.7	0.087654	0.243223	1381.5	85996.9
352	2.000000	1.158189	7.36851e+06	-56239.1	955.821	-29739.8	0.000000	0.000000	7.175395	410.863	NaN	0.000000	0.001519	0.001676	28.0788	94.8191	0.001714	55334.7	8.287559	166.677	409.445	1.158000	0.103001	0.102812	410.863	55334.7	0.097433	0.293260	1401.02	93356.5
352	2.000000	1.162287	7.36851e+06	-56239.1	955.822	-29739.8	0.000000	0.000000	7.180767	441.822	NaN	0.000000	0.001511	0.001668	28.0786	98.9895	0.001894	52262.1	4.575328	171.063	445.227	1.161950	0.107100	0.106763	441.822	52262.1	0.100759	0.311274	1419.4	85583.2