Folder: unikorn_login/remote_trans/data/nanoindenter/0828-1/data/Data_2025-08-06,11h17m57s (part 77)

File: 2025-07-22_16-23-58_1_171.txt
2025-07-22, 16:23:58, 1
Index	Phase	Displacement	Time	Pos X	Pos Y	Pos Z	Rot A	Rot B	Piezo Z	Force A	Force B	Gripper	Voltage A	Voltage B	Temperature	Amplitude force	Amplitude pos	Stiffness	Phase shift	Phase excitation	Force A raw	Displacement raw	HMax	HMax raw	Real Force	Real Stiffness	Contact Depth	Area	Hardness	Reduced Mod.
[#]	[#]	[um]	[s]	[um]	[um]	[um]	[m°]	[m°]	[um]	[uN]	[uN]	[V]	[V]	[V]	[°C]	[uN]	[um]	[N/m]	[°]	[°]	[uN]	[um]	[um]	[um]	[uN]	[N/m]	[um]	[um^2]	[MPa]	[MPa]
171	1.000000	0.003297	7.36671e+06	-47189.1	955.817	-29767.2	0.000000	0.000000	6.002834	0.075306	NaN	0.000000	0.001653	0.001695	28.09	0.097534	0.001020	95.6344	6.382223	-164.366	0.027862	0.001934	-1.126598	-1.127960	0.075306	95.6344	-1.127189	-1.161224E+15	-6.485080E-17	NaN
171	1.000000	0.045235	7.36671e+06	-47189.1	955.819	-29767.2	0.000000	0.000000	6.044767	-0.051168	NaN	0.000000	0.001630	0.001720	28.1298	0.013207	0.002030	6.505071	87.0339	14.9126	0.022158	0.043833	-1.084660	-1.086062	-0.051168	6.505071	-1.078760	-2.599368E+14	1.968487E-16	NaN
171	1.000000	0.087237	7.36671e+06	-47189.1	955.819	-29767.2	0.000000	0.000000	6.086772	0.045127	NaN	0.000000	0.001617	0.001676	28.1036	0.041244	0.001938	21.2783	-21.59	-165.158	-0.069438	0.085931	-1.042658	-1.043964	0.045127	21.2783	-1.044249	-8.935098E+13	-5.050581E-16	NaN
171	1.000000	0.129250	7.36671e+06	-47189.1	955.819	-29767.2	0.000000	0.000000	6.128786	0.047303	NaN	0.000000	0.001692	0.001704	28.0811	0.088226	0.002068	42.6665	39.5778	13.0679	0.018649	0.127876	-1.000645	-1.002019	0.047303	42.6665	-1.001476	-2.374883E+13	-1.991787E-15	NaN
171	1.000000	0.171295	7.36671e+06	-47189.1	955.817	-29767.2	0.000000	0.000000	6.170829	-0.009312	NaN	0.000000	0.001704	0.001701	28.091	0.040384	0.001877	21.5142	-110.43	-164.036	0.098614	0.169985	-0.958600	-0.959910	-0.009312	21.5142	-0.958275	-6.217486E+12	1.497666E-15	NaN
171	1.000000	0.213286	7.36671e+06	-47189.1	955.82	-29767.2	0.000000	0.000000	6.212821	0.020858	NaN	0.000000	0.001696	0.001726	28.1319	0.058865	0.001933	30.445	106.91	12.5933	0.074074	0.211936	-0.916609	-0.917958	0.020858	30.445	-0.917123	-1.731231E+12	-1.204806E-14	NaN
171	1.000000	0.255296	7.36671e+06	-47189.1	955.819	-29767.2	0.000000	0.000000	6.254828	-0.050704	NaN	0.000000	0.001679	0.001747	28.104	0.046260	0.001895	24.4071	-104.729	-160.611	-0.083772	0.253972	-0.874599	-0.875923	-0.050704	24.4071	-0.873041	-4.391246E+11	1.154662E-13	NaN
171	1.000000	0.297321	7.36671e+06	-47189.1	955.82	-29767.2	0.000000	0.000000	6.296857	0.042457	NaN	0.000000	0.001605	0.001694	28.0805	0.048423	0.002054	23.5777	149.558	16.3033	0.054050	0.295979	-0.832574	-0.833916	0.042457	23.5777	-0.833924	-1.297096E+11	-3.273238E-13	NaN
171	1.000000	0.339337	7.36671e+06	-47189.1	955.818	-29767.2	0.000000	0.000000	6.338872	0.030205	NaN	0.000000	0.001626	0.001676	28.0891	0.056940	0.002005	28.3995	3.727392	-162.713	0.021713	0.338067	-0.790558	-0.791828	0.030205	28.3995	-0.791356	-3.431628E+10	-8.801865E-13	NaN
171	1.000000	0.381369	7.36671e+06	-47189.1	955.819	-29767.2	0.000000	0.000000	6.380902	-0.016571	NaN	0.000000	0.001659	0.001710	28.1297	0.152313	0.001974	77.1635	127.654	16.2297	0.022721	0.379970	-0.748526	-0.749925	-0.016571	77.1635	-0.748365	-8.932289E+9	1.855217E-12	NaN
171	1.000000	0.423354	7.36671e+06	-47189.1	955.819	-29767.2	0.000000	0.000000	6.422888	-0.000219	NaN	0.000000	0.001622	0.001668	28.1068	0.055975	0.001997	28.0273	90.5131	-164.523	-0.051418	0.422067	-0.706541	-0.707828	-0.000219	28.0273	-0.706535	-2.403046E+9	9.123681E-14	NaN
171	1.000000	0.465405	7.36671e+06	-47189.1	955.819	-29767.2	0.000000	0.000000	6.464938	-0.038518	NaN	0.000000	0.001625	0.001748	28.0812	0.089008	0.001874	47.4953	-158.949	16.2132	-0.052908	0.464033	-0.664490	-0.665862	-0.038518	47.4953	-0.663881	-6.275165E+8	6.138167E-11	NaN
171	1.000000	0.507413	7.36671e+06	-47189.1	955.818	-29767.2	0.000000	0.000000	6.506944	-0.073607	NaN	0.000000	0.001623	0.001699	28.0897	0.034440	0.002015	17.0918	177.879	-162.423	-0.061767	0.506110	-0.622482	-0.623785	-0.073607	17.0918	-0.619252	-1.532348E+8	4.803554E-10	NaN
171	1.000000	0.549415	7.36671e+06	-47189.1	955.818	-29767.2	0.000000	0.000000	6.548947	-0.044772	NaN	0.000000	0.001682	0.001673	28.1291	0.002951	0.002022	1.459634	142.251	14.941	-0.015558	0.548124	-0.580480	-0.581771	-0.044772	1.459634	-0.557475	-2.154964E+7	2.077605E-9	NaN
171	1.000000	0.591449	7.36671e+06	-47189.1	955.818	-29767.2	0.000000	0.000000	6.590983	-0.002721	NaN	0.000000	0.001648	0.001670	28.1064	0.079579	0.002057	38.6839	-67.7401	-164.59	-0.009727	0.590169	-0.538446	-0.539726	-0.002721	38.6839	-0.538393	-1.172372E+7	2.320763E-10	NaN
171	1.000000	0.633447	7.36671e+06	-47189.1	955.818	-29767.2	0.000000	0.000000	6.632979	-0.043681	NaN	0.000000	0.001638	0.001719	28.0806	0.054434	0.002045	26.6236	-28.2075	16.3721	-0.117355	0.632113	-0.496448	-0.497782	-0.043681	26.6236	-0.495218	-2.9395e+06	1.485995E-8	NaN
171	1.000000	0.675468	7.36671e+06	-47189.1	955.818	-29767.2	0.000000	0.000000	6.675000	-0.062130	NaN	0.000000	0.001674	0.001717	28.0885	0.102718	0.001973	52.0545	-147.514	-163.819	0.037938	0.674184	-0.454427	-0.455711	-0.062130	52.0545	-0.453531	-765692	8.114272E-8	NaN
171	1.000000	0.717524	7.36671e+06	-47189.1	955.819	-29767.2	0.000000	0.000000	6.717056	-0.036605	NaN	0.000000	0.001729	0.001673	28.1297	0.041187	0.001959	21.0249	42.0437	15.2491	-0.041874	0.716114	-0.412371	-0.413781	-0.036605	21.0249	-0.411066	-192111	1.905401E-7	NaN
171	1.000000	0.759486	7.36671e+06	-47189.1	955.819	-29767.2	0.000000	0.000000	6.759018	-0.050955	NaN	0.000000	0.001713	0.001701	28.1094	0.068294	0.002015	33.8965	-162.843	-166.678	0.017211	0.758244	-0.370409	-0.371651	-0.050955	33.8965	-0.369281	-48503.9	1.050533E-6	NaN
171	1.000000	0.801522	7.36671e+06	-47189.1	955.818	-29767.2	0.000000	0.000000	6.801054	-0.036401	NaN	0.000000	0.001676	0.001693	28.0792	0.083772	0.002016	41.547	155.174	17.8577	-0.022252	0.800212	-0.328373	-0.329683	-0.036401	41.547	-0.327716	-12077.8	3.013863E-6	NaN
171	1.000000	0.843574	7.36671e+06	-47189.1	955.819	-29767.2	0.000000	0.000000	6.843106	-0.064746	NaN	0.000000	0.001643	0.001723	28.0881	0.077706	0.002030	38.2707	-122.764	-167.815	-0.065424	0.842270	-0.286321	-0.287625	-0.064746	38.2707	-0.285052	-2812.19	2.302333E-5	NaN
171	1.000000	0.885563	7.36671e+06	-47189.1	955.818	-29767.2	0.000000	0.000000	6.885095	-0.051772	NaN	0.000000	0.001635	0.001673	28.1272	0.068232	0.002130	32.0286	-149.272	11.3411	-0.042925	0.884219	-0.244332	-0.245676	-0.051772	32.0286	-0.243120	-642.987	8.051730E-5	NaN
171	1.000000	0.927568	7.36671e+06	-47189.1	955.819	-29767.2	0.000000	0.000000	6.927099	-0.075000	NaN	0.000000	0.001686	0.001688	28.1091	0.079993	0.002053	38.9645	-140.017	-163.57	-0.058441	0.926263	-0.202327	-0.203632	-0.075000	38.9645	-0.200883	-136.207	0.000551	NaN
171	1.000000	0.969621	7.36671e+06	-47189.1	955.817	-29767.2	0.000000	0.000000	6.969152	-0.058615	NaN	0.000000	0.001643	0.001645	28.0806	0.060460	0.002069	29.2205	116.054	14.9458	0.026992	0.968242	-0.160274	-0.161653	-0.058615	29.2205	-0.158770	-26.0672	0.002249	NaN
171	1.000000	1.011616	7.36671e+06	-47189.1	955.817	-29767.2	0.000000	0.000000	7.011146	-0.094078	NaN	0.000000	0.001696	0.001665	28.0886	0.074687	0.002105	35.4786	-153.439	-165.922	-0.003056	1.010281	-0.118279	-0.119614	-0.094078	35.4786	-0.116290	-4.060958	0.023166	NaN
171	1.000000	1.053657	7.36671e+06	-47189.1	955.818	-29767.2	0.000000	0.000000	7.053192	0.028575	NaN	0.000000	0.001725	0.001689	28.1281	0.157546	0.001951	80.7389	-12.7583	16.8037	-0.009413	1.052249	-0.076238	-0.077646	0.028575	80.7389	-0.076503	-0.504903	-0.056595	NaN
171	1.000000	1.095632	7.36671e+06	-47189.1	955.817	-29767.2	0.000000	0.000000	7.095164	-0.045598	NaN	0.000000	0.001695	0.001725	28.1102	0.052304	0.002037	25.6817	86.9713	-171.439	-0.051776	1.094312	-0.034263	-0.035583	-0.045598	25.6817	-0.032931	-0.027871	1.636049	NaN
171	1.000000	1.137633	7.36672e+06	-47189.1	955.818	-29767.2	0.000000	0.000000	7.137419	6.145927	NaN	0.000000	0.001640	0.001704	28.0805	6.828058	0.001772	3854.1	15.4936	6.002157	5.029599	1.136237	0.007738	0.006342	6.145927	3854.1	0.006542	0.005585	1100.47	47118.5
171	2.000000	1.150081	7.36672e+06	-47189.1	955.818	-29767.2	0.000000	0.000000	7.150783	28.4206	NaN	0.000000	0.001609	0.001696	28.0873	20.5617	0.001779	11555.5	6.209023	-177.194	26.9143	1.149823	0.020186	0.019928	28.4206	11555.5	0.018341	0.020002	1420.87	74648.9
171	2.000000	1.160575	7.36672e+06	-47189.1	955.818	-29767.2	0.000000	0.000000	7.162415	56.0813	NaN	0.000000	0.001599	0.001686	28.1277	30.7043	0.001900	16162.9	4.663174	1.586551	54.2377	1.160329	0.030680	0.030434	56.0813	16162.9	0.028078	0.036854	1521.71	76921.6
171	2.000000	1.171049	7.36672e+06	-47189.1	955.818	-29767.2	0.000000	0.000000	7.174789	102.315	NaN	0.000000	0.001572	0.001669	28.1122	41.0752	0.001700	24162.9	7.447180	175.457	100.637	1.170710	0.041154	0.040815	102.315	24162.9	0.037978	0.058907	1736.88	90957.5
171	2.000000	1.181592	7.36672e+06	-47189.1	955.817	-29767.2	0.000000	0.000000	7.187396	152.513	NaN	0.000000	0.001638	0.001678	28.08	52.5743	0.001812	29011.3	6.772423	-5.605894	151.43	1.181198	0.051697	0.051303	152.513	29011.3	0.047754	0.085598	1781.73	90595.7
171	2.000000	1.192027	7.36672e+06	-47189.1	955.819	-29767.2	0.000000	0.000000	7.200094	207.56	NaN	0.000000	0.001607	0.001697	28.0874	61.6287	0.001814	33973.2	3.243477	176.43	204.602	1.191764	0.062132	0.061869	207.56	33973.2	0.057550	0.117170	1771.45	90678.2
171	2.000000	1.202554	7.36672e+06	-47189.1	955.818	-29767.2	0.000000	0.000000	7.213211	270.545	NaN	0.000000	0.001585	0.001721	28.1257	71.6136	0.001835	39035	5.481949	-7.289295	270.216	1.202220	0.072659	0.072325	270.545	39035	0.067461	0.153912	1757.79	90905.6
171	2.000000	1.213034	7.36672e+06	-47189.1	955.819	-29767.2	0.000000	0.000000	7.226254	332.883	NaN	0.000000	0.001593	0.001684	28.1121	82.1028	0.001832	44813.5	5.775008	172.075	334.499	1.212696	0.083139	0.082801	332.883	44813.5	0.077568	0.196229	1696.4	92427.2
171	2.000000	1.223510	7.36672e+06	-47189.1	955.818	-29767.2	0.000000	0.000000	7.239754	406.447	NaN	0.000000	0.001633	0.001680	28.0795	89.9642	0.001757	51190	5.782073	-9.137619	404.125	1.223147	0.093615	0.093252	406.447	51190	0.087660	0.243256	1670.86	94825.8
171	2.000000	1.234031	7.36672e+06	-47189.1	955.819	-29767.2	0.000000	0.000000	7.253628	488.005	NaN	0.000000	0.001627	0.001713	28.0879	99.4229	0.001839	54077.1	3.443052	172.722	488.643	1.233695	0.104136	0.103800	488.005	54077.1	0.097368	0.292915	1666.03	91288.5
171	2.000000	1.239023	7.36672e+06	-47189.1	955.818	-29767.2	0.000000	0.000000	7.260465	532.879	NaN	0.000000	0.001628	0.001721	28.1122	104.384	0.001757	59407.5	6.549600	168.992	533.043	1.238761	0.109128	0.108866	532.879	59407.5	0.102401	0.320349	1663.43	95896.5

File: 2025-07-22_16-23-58_1_172.txt
2025-07-22, 16:23:58, 1
Index	Phase	Displacement	Time	Pos X	Pos Y	Pos Z	Rot A	Rot B	Piezo Z	Force A	Force B	Gripper	Voltage A	Voltage B	Temperature	Amplitude force	Amplitude pos	Stiffness	Phase shift	Phase excitation	Force A raw	Displacement raw	HMax	HMax raw	Real Force	Real Stiffness	Contact Depth	Area	Hardness	Reduced Mod.
[#]	[#]	[um]	[s]	[um]	[um]	[um]	[m°]	[m°]	[um]	[uN]	[uN]	[V]	[V]	[V]	[°C]	[uN]	[um]	[N/m]	[°]	[°]	[uN]	[um]	[um]	[um]	[uN]	[N/m]	[um]	[um^2]	[MPa]	[MPa]
172	1.000000	0.002209	7.36672e+06	-47239.1	955.818	-29767.2	0.000000	0.000000	6.002837	0.015290	NaN	0.000000	0.001546	0.001734	28.0812	0.048285	0.000976	49.491	61.8581	-171.654	0.027047	0.000881	-0.954186	-0.955515	0.015290	49.491	-0.954418	-5.515746E+12	-2.772079E-15	NaN
172	1.000000	0.040183	7.36672e+06	-47239.1	955.818	-29767.2	0.000000	0.000000	6.040807	-0.065629	NaN	0.000000	0.001537	0.001734	28.119	0.042874	0.002045	20.963	-162.674	12.6072	-0.092353	0.038760	-0.916213	-0.917635	-0.065629	20.963	-0.913865	-1.564440E+12	4.195041E-14	NaN
172	1.000000	0.078111	7.36672e+06	-47239.1	955.819	-29767.2	0.000000	0.000000	6.078739	0.031923	NaN	0.000000	0.001580	0.001753	28.1258	0.089830	0.002171	41.373	-148.971	-162.524	0.004859	0.076832	-0.878285	-0.879563	0.031923	41.373	-0.878863	-5.264256E+11	-6.064037E-14	NaN
172	1.000000	0.116179	7.36672e+06	-47239.1	955.818	-29767.2	0.000000	0.000000	6.116804	-0.036682	NaN	0.000000	0.001576	0.001726	28.0852	0.103607	0.002127	48.7208	-99.9464	17.9651	-0.081073	0.114768	-0.840217	-0.841628	-0.036682	48.7208	-0.839652	-1.550877E+11	2.365225E-13	NaN
172	1.000000	0.154181	7.36672e+06	-47239.1	955.818	-29767.2	0.000000	0.000000	6.154808	-0.001368	NaN	0.000000	0.001640	0.001725	28.0832	0.101369	0.001995	50.8025	111.448	-164.66	-0.013643	0.152840	-0.802214	-0.803555	-0.001368	50.8025	-0.802194	-4.815507E+10	2.839891E-14	NaN
172	1.000000	0.192196	7.36672e+06	-47239.1	955.819	-29767.2	0.000000	0.000000	6.192824	0.036809	NaN	0.000000	0.001564	0.001682	28.117	0.133985	0.002025	66.1727	127.037	17.029	-0.016545	0.190810	-0.764200	-0.765586	0.036809	66.1727	-0.764617	-1.486282E+10	-2.476587E-12	NaN
172	1.000000	0.230194	7.36672e+06	-47239.1	955.817	-29767.2	0.000000	0.000000	6.230822	0.012980	NaN	0.000000	0.001578	0.001680	28.1228	0.035213	0.002162	16.2872	-96.3041	-164.304	-0.000393	0.228865	-0.726201	-0.727530	0.012980	16.2872	-0.726799	-4.541226E+9	-2.858334E-12	NaN
172	1.000000	0.268246	7.36672e+06	-47239.1	955.818	-29767.2	0.000000	0.000000	6.268871	-0.053700	NaN	0.000000	0.001522	0.001736	28.0826	0.143358	0.001971	72.7521	-96.854	17.2799	-0.004414	0.266828	-0.688149	-0.689567	-0.053700	72.7521	-0.687596	-1.324523E+9	4.054275E-11	NaN
172	1.000000	0.306203	7.36672e+06	-47239.1	955.818	-29767.2	0.000000	0.000000	6.306831	0.029786	NaN	0.000000	0.001576	0.001723	28.0842	0.065536	0.001942	33.7438	-107.854	-165.6	0.039018	0.304940	-0.650193	-0.651455	0.029786	33.7438	-0.650855	-4.160611E+8	-7.159043E-11	NaN
172	1.000000	0.344241	7.36672e+06	-47239.1	955.819	-29767.2	0.000000	0.000000	6.344864	-0.098867	NaN	0.000000	0.001585	0.001751	28.1193	0.034169	0.001918	17.8108	136.158	17.3932	-0.024492	0.342897	-0.612154	-0.613499	-0.098867	17.8108	-0.607991	-1.072690E+8	9.216703E-10	NaN
172	1.000000	0.382256	7.36672e+06	-47239.1	955.818	-29767.2	0.000000	0.000000	6.382880	-0.082928	NaN	0.000000	0.001595	0.001758	28.1238	0.013647	0.002041	6.685299	10.5668	-163.561	-0.127331	0.380943	-0.574139	-0.575452	-0.082928	6.685299	-0.564836	-2.724325E+7	3.043966E-9	NaN
172	1.000000	0.420295	7.36672e+06	-47239.1	955.819	-29767.2	0.000000	0.000000	6.420920	-0.043072	NaN	0.000000	0.001551	0.001783	28.0841	0.036419	0.002098	17.3574	-21.9176	16.8289	-0.090045	0.418891	-0.536100	-0.537504	-0.043072	17.3574	-0.534239	-1.026666E+7	4.195338E-9	NaN
172	1.000000	0.458305	7.36672e+06	-47239.1	955.818	-29767.2	0.000000	0.000000	6.458932	0.010645	NaN	0.000000	0.001557	0.001786	28.0839	0.167742	0.001885	88.971	53.8762	-164.885	-0.009282	0.457010	-0.498091	-0.499386	0.010645	88.971	-0.498180	-3.23317e+06	-3.292577E-9	NaN
172	1.000000	0.496313	7.36672e+06	-47239.1	955.817	-29767.2	0.000000	0.000000	6.496935	-0.115166	NaN	0.000000	0.001568	0.001715	28.1191	0.090594	0.001893	47.8575	-1.081210	17.0892	-0.045939	0.494993	-0.460082	-0.461403	-0.115166	47.8575	-0.458278	-892911	1.289782E-7	NaN
172	1.000000	0.534315	7.36672e+06	-47239.1	955.818	-29767.2	0.000000	0.000000	6.534940	-0.045060	NaN	0.000000	0.001616	0.001692	28.1217	0.038466	0.002068	18.6033	-130.096	-163.725	-0.077527	0.533063	-0.422081	-0.423333	-0.045060	18.6033	-0.420264	-259512	1.736332E-7	NaN
172	1.000000	0.572389	7.36672e+06	-47239.1	955.819	-29767.2	0.000000	0.000000	6.573016	0.011280	NaN	0.000000	0.001621	0.001713	28.0843	0.112238	0.001929	58.1767	-69.9864	14.9922	-0.016174	0.571003	-0.384007	-0.385392	0.011280	58.1767	-0.384152	-79330	-1.421957E-7	NaN
172	1.000000	0.610369	7.36672e+06	-47239.1	955.819	-29767.2	0.000000	0.000000	6.610996	0.001760	NaN	0.000000	0.001565	0.001687	28.0851	0.034519	0.002091	16.5113	-166.248	-163.178	-0.070980	0.609078	-0.346026	-0.347318	0.001760	16.5113	-0.346106	-22410	-7.853429E-8	NaN
172	1.000000	0.648364	7.36672e+06	-47239.1	955.818	-29767.2	0.000000	0.000000	6.648990	-0.024153	NaN	0.000000	0.001526	0.001739	28.1218	0.024582	0.001821	13.5012	108.845	20.2446	0.037485	0.647006	-0.308032	-0.309390	-0.024153	13.5012	-0.306690	-5915.97	4.082759E-6	NaN
172	1.000000	0.686394	7.36672e+06	-47239.1	955.818	-29767.2	0.000000	0.000000	6.687018	-0.058634	NaN	0.000000	0.001544	0.001723	28.1231	0.079320	0.002055	38.5992	17.0824	-164.102	-0.035421	0.685142	-0.270002	-0.271254	-0.058634	38.5992	-0.268862	-1600.46	3.663581E-5	NaN
172	1.000000	0.724412	7.36672e+06	-47239.1	955.818	-29767.2	0.000000	0.000000	6.725038	-0.018640	NaN	0.000000	0.001542	0.001695	28.0838	0.076121	0.001953	38.9802	-27.7896	17.1669	0.027286	0.723086	-0.231983	-0.233309	-0.018640	38.9802	-0.231625	-424.764	4.388294E-5	NaN
172	1.000000	0.762410	7.36672e+06	-47239.1	955.817	-29767.2	0.000000	0.000000	6.763036	-0.024320	NaN	0.000000	0.001563	0.001658	28.0852	0.077260	0.001939	39.8426	-7.618938	-160.983	-0.017092	0.761091	-0.193986	-0.195305	-0.024320	39.8426	-0.193528	-102.988	0.000236	NaN
172	1.000000	0.800482	7.36672e+06	-47239.1	955.818	-29767.2	0.000000	0.000000	6.801108	-0.028665	NaN	0.000000	0.001582	0.001677	28.1218	0.087862	0.001986	44.2306	93.2415	13.429	-0.036782	0.799080	-0.155913	-0.157316	-0.028665	44.2306	-0.155427	-22.7126	0.001262	NaN
172	1.000000	0.838437	7.36672e+06	-47239.1	955.818	-29767.2	0.000000	0.000000	6.839066	0.054244	NaN	0.000000	0.001564	0.001694	28.1204	0.074593	0.001971	37.8536	7.943631	-166.133	0.032218	0.837185	-0.117959	-0.119210	0.054244	37.8536	-0.119034	-4.618903	-0.011744	NaN
172	1.000000	0.876498	7.36672e+06	-47239.1	955.819	-29767.2	0.000000	0.000000	6.877127	0.034633	NaN	0.000000	0.001667	0.001699	28.0843	0.083476	0.001997	41.8103	45.6769	16.3388	0.065787	0.875114	-0.079897	-0.081282	0.034633	41.8103	-0.080518	-0.637717	-0.054307	NaN
172	1.000000	0.914481	7.36672e+06	-47239.1	955.818	-29767.2	0.000000	0.000000	6.915104	-0.079625	NaN	0.000000	0.001627	0.001679	28.0847	0.038684	0.001986	19.4799	111.911	-166.096	-0.097301	0.913183	-0.041915	-0.043212	-0.079625	19.4799	-0.038849	-0.041733	1.907973	NaN
172	1.000000	0.952520	7.36672e+06	-47239.1	955.818	-29767.2	0.000000	0.000000	6.953145	-0.042682	NaN	0.000000	0.001561	0.001721	28.1244	0.041027	0.001996	20.5568	-100.525	14.1482	-0.011946	0.951100	-0.003876	-0.005296	-0.042682	20.5568	-0.002319	-0.001659	25.7286	NaN
172	2.000000	0.974090	7.36672e+06	-47239.1	955.818	-29767.2	0.000000	0.000000	6.975415	16.9874	NaN	0.000000	0.001514	0.001707	28.1187	15.762	0.001761	8949.5	8.345120	-176.595	17.2356	0.973733	0.017695	0.017338	16.9874	8949.5	0.016271	0.017018	998.216	62678.8
172	2.000000	0.983499	7.36672e+06	-47239.1	955.819	-29767.2	0.000000	0.000000	6.985716	38.68	NaN	0.000000	0.001583	0.001724	28.0822	25.3289	0.001852	13678.9	5.986093	1.588535	37.8126	0.983270	0.027104	0.026875	38.68	13678.9	0.024983	0.030985	1248.36	70998.9
172	2.000000	0.993058	7.36672e+06	-47239.1	955.819	-29767.2	0.000000	0.000000	6.996185	60.8082	NaN	0.000000	0.001551	0.001689	28.0834	35.6351	0.001861	19149.8	8.426046	176.892	63.0294	0.992731	0.036662	0.036335	60.8082	19149.8	0.034281	0.050085	1214.1	78177.7
172	2.000000	1.002492	7.36672e+06	-47239.1	955.819	-29767.2	0.000000	0.000000	7.007122	97.3573	NaN	0.000000	0.001573	0.001679	28.1236	43.1386	0.001830	23568.6	6.225595	-2.770017	97.7658	1.002064	0.046097	0.045668	97.3573	23568.6	0.042999	0.072007	1352.04	80245
172	2.000000	1.011914	7.36673e+06	-47239.1	955.82	-29767.2	0.000000	0.000000	7.018131	135.979	NaN	0.000000	0.001548	0.001638	28.1194	53.013	0.001906	27807.5	4.566884	177.184	134.489	1.011580	0.055518	0.055185	135.979	27807.5	0.051851	0.098219	1384.45	81065.6
172	2.000000	1.021384	7.36673e+06	-47239.1	955.821	-29767.2	0.000000	0.000000	7.029543	183.22	NaN	0.000000	0.001601	0.001643	28.0858	60.2974	0.001707	35324.7	0.926993	-1.345368	178.803	1.021094	0.064988	0.064699	183.22	35324.7	0.061098	0.129776	1411.82	89589.1
172	2.000000	1.030948	7.36673e+06	-47239.1	955.819	-29767.2	0.000000	0.000000	7.041362	238.041	NaN	0.000000	0.001597	0.001665	28.0856	70.7016	0.001808	39096.2	3.478481	175.517	239.301	1.030627	0.074553	0.074231	238.041	39096.2	0.069987	0.164033	1451.18	88194.6
172	2.000000	1.040368	7.36673e+06	-47239.1	955.82	-29767.2	0.000000	0.000000	7.053551	305.401	NaN	0.000000	0.001623	0.001678	28.1244	79.6234	0.001800	44227.1	5.039110	-6.805912	302.186	1.040071	0.083973	0.083676	305.401	44227.1	0.078794	0.201689	1514.22	89974.6
172	2.000000	1.049807	7.36673e+06	-47239.1	955.819	-29767.2	0.000000	0.000000	7.065745	372.443	NaN	0.000000	0.001617	0.001681	28.1169	88.8727	0.001878	47317.4	3.777693	174.118	365.959	1.049546	0.093411	0.093150	372.443	47317.4	0.087508	0.242509	1535.79	87787
172	2.000000	1.059385	7.36673e+06	-47239.1	955.819	-29767.2	0.000000	0.000000	7.078561	451.206	NaN	0.000000	0.001580	0.001638	28.0844	97.0619	0.001765	54984	6.885887	-10.5434	446.761	1.059013	0.102989	0.102617	451.206	54984	0.096834	0.290073	1555.49	93273
172	2.000000	1.066890	7.36673e+06	-47239.1	955.819	-29767.2	0.000000	0.000000	7.088577	512.244	NaN	0.000000	0.001574	0.001664	28.085	105.038	0.001798	58406.2	5.038971	171.141	512.853	1.066543	0.110495	0.110147	512.244	58406.2	0.103917	0.328842	1557.72	93054.8