Folder: unikorn_login/remote_trans/data/nanoindenter/0828-1/data/Data_2025-08-06,11h17m57s (part 181)

File: 2025-07-22_16-23-58_1_379.txt
2025-07-22, 16:23:58, 1
Index	Phase	Displacement	Time	Pos X	Pos Y	Pos Z	Rot A	Rot B	Piezo Z	Force A	Force B	Gripper	Voltage A	Voltage B	Temperature	Amplitude force	Amplitude pos	Stiffness	Phase shift	Phase excitation	Force A raw	Displacement raw	HMax	HMax raw	Real Force	Real Stiffness	Contact Depth	Area	Hardness	Reduced Mod.
[#]	[#]	[um]	[s]	[um]	[um]	[um]	[m°]	[m°]	[um]	[uN]	[uN]	[V]	[V]	[V]	[°C]	[uN]	[um]	[N/m]	[°]	[°]	[uN]	[um]	[um]	[um]	[uN]	[N/m]	[um]	[um^2]	[MPa]	[MPa]
379	1.000000	0.003209	7.36877e+06	-57589.1	955.817	-29737	0.000000	0.000000	6.002788	0.027608	NaN	0.000000	0.001540	0.001753	28.0799	0.034370	0.001009	34.0768	56.0162	-162.014	0.126431	0.001961	-1.049050	-1.050297	0.027608	34.0768	-1.049657	-1.056350E+14	-2.613565E-16	NaN
379	1.000000	0.043186	7.36877e+06	-57589.1	955.818	-29737	0.000000	0.000000	6.042763	-0.049225	NaN	0.000000	0.001529	0.001761	28.0797	0.060501	0.001927	31.389	100.344	-161.127	-0.042435	0.041826	-1.009072	-1.010432	-0.049225	31.389	-1.007896	-2.897741E+13	1.698720E-15	NaN
379	1.000000	0.083157	7.36877e+06	-57589.1	955.818	-29737	0.000000	0.000000	6.082736	0.016448	NaN	0.000000	0.001578	0.001762	28.08	0.035500	0.001982	17.907	-150.212	-165.37	0.067652	0.081901	-0.969101	-0.970357	0.016448	17.907	-0.969790	-8.888645E+12	-1.850481E-15	NaN
379	1.000000	0.123217	7.36877e+06	-57589.1	955.819	-29737	0.000000	0.000000	6.122797	0.050958	NaN	0.000000	0.001644	0.001757	28.0786	0.058899	0.002088	28.2055	-157.235	-166.556	0.037295	0.121924	-0.929042	-0.930334	0.050958	28.2055	-0.930397	-2.615478E+12	-1.948338E-14	NaN
379	1.000000	0.163183	7.36877e+06	-57589.1	955.82	-29737	0.000000	0.000000	6.162764	0.058351	NaN	0.000000	0.001591	0.001766	28.0785	0.096733	0.002094	46.1949	-99.3167	-166.349	0.046504	0.161934	-0.889075	-0.890324	0.058351	46.1949	-0.890023	-7.451117E+11	-7.831213E-14	NaN
379	1.000000	0.203233	7.36877e+06	-57589.1	955.818	-29737	0.000000	0.000000	6.202811	-0.007476	NaN	0.000000	0.001665	0.001715	28.0784	0.064117	0.002010	31.8944	-71.2693	-161.744	0.042076	0.201882	-0.849026	-0.850376	-0.007476	31.8944	-0.848850	-2.066159E+11	3.618128E-14	NaN
379	1.000000	0.243253	7.36877e+06	-57589.1	955.818	-29737	0.000000	0.000000	6.242833	0.038271	NaN	0.000000	0.001692	0.001751	28.0783	0.067197	0.001995	33.6872	-61.4084	-164.551	0.039418	0.241962	-0.809006	-0.810296	0.038271	33.6872	-0.809858	-6.118434E+10	-6.255094E-13	NaN
379	1.000000	0.283261	7.36877e+06	-57589.1	955.818	-29737	0.000000	0.000000	6.282842	0.054910	NaN	0.000000	0.001670	0.001748	28.0795	0.004788	0.001970	2.430017	32.7122	-166.46	0.035829	0.281975	-0.768997	-0.770283	0.054910	2.430017	-0.785945	-2.897357E+10	-1.895191E-12	NaN
379	1.000000	0.323264	7.36877e+06	-57589.1	955.818	-29737	0.000000	0.000000	6.322845	0.068256	NaN	0.000000	0.001637	0.001743	28.0796	0.052261	0.001890	27.6529	113.097	-167.121	0.015901	0.321947	-0.728994	-0.730311	0.068256	27.6529	-0.730846	-5.156227E+9	-1.323752E-11	NaN
379	1.000000	0.363309	7.36877e+06	-57589.1	955.819	-29737	0.000000	0.000000	6.362890	0.060420	NaN	0.000000	0.001665	0.001690	28.0797	0.081805	0.002097	39.0165	-156.463	-165.788	0.067202	0.361972	-0.688950	-0.690286	0.060420	39.0165	-0.690111	-1.433628E+9	-4.214504E-11	NaN
379	1.000000	0.403317	7.36877e+06	-57589.1	955.819	-29737	0.000000	0.000000	6.402897	0.043572	NaN	0.000000	0.001635	0.001717	28.0783	0.091767	0.001958	46.8632	49.8509	-163.373	-0.007740	0.402036	-0.648941	-0.650222	0.043572	46.8632	-0.649639	-4.003916E+8	-1.088222E-10	NaN
379	1.000000	0.443333	7.36877e+06	-57589.1	955.819	-29737	0.000000	0.000000	6.442913	0.029808	NaN	0.000000	0.001623	0.001708	28.0783	0.045292	0.001908	23.7371	83.364	-164.21	0.089201	0.441967	-0.608925	-0.610291	0.029808	23.7371	-0.609867	-1.138369E+8	-2.618524E-10	NaN
379	1.000000	0.483377	7.36877e+06	-57589.1	955.819	-29737	0.000000	0.000000	6.482956	0.013266	NaN	0.000000	0.001651	0.001720	28.0784	0.097097	0.002055	47.2535	-79.7169	-164.795	-0.023105	0.482007	-0.568881	-0.570252	0.013266	47.2535	-0.569092	-3.119464E+7	-4.252546E-10	NaN
379	1.000000	0.523393	7.36877e+06	-57589.1	955.817	-29737	0.000000	0.000000	6.522973	0.049479	NaN	0.000000	0.001641	0.001759	28.0786	0.089675	0.001989	45.0806	37.1636	-166.332	0.038573	0.522083	-0.528865	-0.530175	0.049479	45.0806	-0.529689	-8.87667e+06	-5.574071E-9	NaN
379	1.000000	0.563376	7.36877e+06	-57589.1	955.818	-29737	0.000000	0.000000	6.562955	0.015534	NaN	0.000000	0.001648	0.001759	28.08	0.024461	0.002164	11.3052	35.9243	-164.893	-0.035112	0.562126	-0.488882	-0.490132	0.015534	11.3052	-0.489913	-2.47841e+06	-6.267863E-9	NaN
379	1.000000	0.603384	7.36877e+06	-57589.1	955.818	-29737	0.000000	0.000000	6.602964	0.037662	NaN	0.000000	0.001652	0.001708	28.0802	0.040253	0.001920	20.964	103.848	-165.594	0.038230	0.602101	-0.448875	-0.450157	0.037662	20.964	-0.450222	-687813	-5.475637E-8	NaN
379	1.000000	0.643418	7.36877e+06	-57589.1	955.819	-29737	0.000000	0.000000	6.642998	0.033163	NaN	0.000000	0.001663	0.001694	28.0798	0.077422	0.002004	38.6275	120.645	-164.107	0.020006	0.642129	-0.408840	-0.410129	0.033163	38.6275	-0.409484	-182415	-1.818008E-7	NaN
379	1.000000	0.683445	7.36877e+06	-57589.1	955.819	-29737	0.000000	0.000000	6.683023	-0.017554	NaN	0.000000	0.001644	0.001728	28.0787	0.105893	0.001875	56.4819	173.297	-163.4	-0.010280	0.682132	-0.368813	-0.370126	-0.017554	56.4819	-0.368580	-47388.3	3.704279E-7	NaN
379	1.000000	0.723469	7.36877e+06	-57589.1	955.818	-29737	0.000000	0.000000	6.723046	-0.022235	NaN	0.000000	0.001672	0.001675	28.0787	0.023953	0.001896	12.6324	-80.6441	-160.788	-0.004053	0.722109	-0.328789	-0.330150	-0.022235	12.6324	-0.327469	-11977.5	1.856397E-6	NaN
379	1.000000	0.763452	7.36877e+06	-57589.1	955.819	-29737	0.000000	0.000000	6.763031	0.012264	NaN	0.000000	0.001661	0.001673	28.0785	0.068005	0.002103	32.3443	-178.651	-165.153	-0.016532	0.762181	-0.288806	-0.290077	0.012264	32.3443	-0.289090	-3233.48	-3.792919E-6	NaN
379	1.000000	0.803486	7.36877e+06	-57589.1	955.818	-29737	0.000000	0.000000	6.803068	0.063889	NaN	0.000000	0.001678	0.001726	28.0799	0.099632	0.002034	48.987	-12.5267	-166.355	0.060618	0.802184	-0.248772	-0.250075	0.063889	48.987	-0.249750	-814.891	-7.840166E-5	NaN
379	1.000000	0.843522	7.36877e+06	-57589.1	955.819	-29737	0.000000	0.000000	6.843101	-0.003024	NaN	0.000000	0.001639	0.001734	28.08	0.097635	0.001873	52.1252	57.6726	-164.986	0.080989	0.842253	-0.208736	-0.210006	-0.003024	52.1252	-0.208692	-182.652	1.655369E-5	NaN
379	1.000000	0.883508	7.36877e+06	-57589.1	955.818	-29737	0.000000	0.000000	6.883086	-0.002460	NaN	0.000000	0.001675	0.001708	28.08	0.017195	0.001966	8.744408	59.6609	-159.829	0.022981	0.882168	-0.168750	-0.170090	-0.002460	8.744408	-0.168539	-38.7444	6.349464E-5	NaN
379	1.000000	0.923535	7.36877e+06	-57589.1	955.818	-29737	0.000000	0.000000	6.923114	0.019947	NaN	0.000000	0.001683	0.001769	28.0796	0.079926	0.002083	38.3705	-97.5861	-163.966	-0.067454	0.922231	-0.128723	-0.130027	0.019947	38.3705	-0.129113	-7.324149	-0.002723	NaN
379	1.000000	0.963537	7.36877e+06	-57589.1	955.818	-29737	0.000000	0.000000	6.963117	0.033758	NaN	0.000000	0.001658	0.001724	28.0788	0.083809	0.002025	41.3819	7.389895	-164.683	0.007222	0.962200	-0.088721	-0.090058	0.033758	41.3819	-0.089333	-1.042645	-0.032377	NaN
379	1.000000	1.003542	7.36877e+06	-57589.1	955.819	-29737	0.000000	0.000000	7.003123	0.057024	NaN	0.000000	0.001662	0.001735	28.0789	0.070219	0.002009	34.9498	27.4013	-161.533	0.056815	1.002197	-0.048716	-0.050061	0.057024	34.9498	-0.049940	-0.090871	-0.627527	NaN
379	1.000000	1.043575	7.36877e+06	-57589.1	955.819	-29737	0.000000	0.000000	7.043156	0.040423	NaN	0.000000	0.001628	0.001715	28.0788	0.199442	0.001973	101.095	-71.521	-165.928	0.066083	1.042326	-0.008683	-0.009932	0.040423	101.095	-0.008983	-0.005803	-6.965953	NaN
379	2.000000	1.069138	7.36877e+06	-57589.1	955.818	-29737	0.000000	0.000000	7.069232	12.523	NaN	0.000000	0.001685	0.001735	28.0804	14.1275	0.001857	7608.68	6.946790	-172.864	12.2122	1.068856	0.016880	0.016597	12.523	7608.68	0.015645	0.016155	775.155	54691.8
379	2.000000	1.079110	7.36877e+06	-57589.1	955.819	-29737	0.000000	0.000000	7.079881	28.9593	NaN	0.000000	0.001635	0.001712	28.0809	25.3865	0.001906	13317.3	10.2072	-178.81	29.6575	1.078827	0.026852	0.026569	28.9593	13317.3	0.025221	0.031419	921.701	68641.9
379	2.000000	1.089150	7.36877e+06	-57589.1	955.819	-29737	0.000000	0.000000	7.090769	49.5889	NaN	0.000000	0.001648	0.001745	28.0805	35.275	0.001847	19097.4	5.661811	179.987	51.6543	1.088800	0.036892	0.036542	49.5889	19097.4	0.034944	0.051617	960.717	76798.5
379	2.000000	1.099047	7.36877e+06	-57589.1	955.818	-29737	0.000000	0.000000	7.102139	85.3758	NaN	0.000000	0.001672	0.001691	28.0802	44.177	0.001759	25118.3	6.513380	176.46	84.4901	1.098690	0.046789	0.046432	85.3758	25118.3	0.044240	0.075444	1131.64	83550.5
379	2.000000	1.109030	7.36878e+06	-57589.1	955.819	-29737	0.000000	0.000000	7.113656	122.662	NaN	0.000000	0.001677	0.001716	28.0789	54.0454	0.001694	31907.7	3.674240	176.93	120.674	1.108781	0.056772	0.056523	122.662	31907.7	0.053889	0.104811	1170.32	90046.4
379	2.000000	1.119121	7.36878e+06	-57589.1	955.819	-29737	0.000000	0.000000	7.124902	150.74	NaN	0.000000	0.001641	0.001730	28.0788	64.2472	0.001919	33484.6	4.051541	176.25	154.152	1.118934	0.066863	0.066676	150.74	33484.6	0.063486	0.138606	1087.54	82172.5
379	2.000000	1.128983	7.36878e+06	-57589.1	955.819	-29737	0.000000	0.000000	7.137583	219.263	NaN	0.000000	0.001635	0.001707	28.0787	73.0425	0.001831	39887.9	5.301402	174.325	218.012	1.128682	0.076725	0.076423	219.263	39887.9	0.072602	0.174834	1254.12	87156.8
379	2.000000	1.139016	7.36878e+06	-57589.1	955.82	-29737	0.000000	0.000000	7.149628	268.17	NaN	0.000000	0.001655	0.001714	28.08	82.2289	0.001900	43278.2	2.844408	175.726	265.863	1.138797	0.086757	0.086539	268.17	43278.2	0.082110	0.216809	1236.9	84918.8
379	2.000000	1.149057	7.36878e+06	-57589.1	955.819	-29737	0.000000	0.000000	7.162628	340.066	NaN	0.000000	0.001676	0.001735	28.08	90.6855	0.001746	51926.6	3.594144	173.789	344.225	1.148666	0.096799	0.096408	340.066	51926.6	0.091887	0.264348	1286.44	92273.2
379	2.000000	1.158934	7.36878e+06	-57589.1	955.821	-29737	0.000000	0.000000	7.175711	417.992	NaN	0.000000	0.001738	0.001724	28.0799	101.159	0.001898	53300.2	4.087826	172.881	415.37	1.158627	0.106676	0.106369	417.992	53300.2	0.100794	0.311468	1342.01	87256
379	2.000000	1.162999	7.36878e+06	-57589.1	955.82	-29737	0.000000	0.000000	7.180907	445.479	NaN	0.000000	0.001695	0.001673	28.0799	102.858	0.001725	59613.3	2.980986	173.357	447.977	1.162747	0.110741	0.110489	445.479	59613.3	0.105136	0.335745	1326.84	93996.5

File: 2025-07-22_16-23-58_1_380.txt
2025-07-22, 16:23:58, 1
Index	Phase	Displacement	Time	Pos X	Pos Y	Pos Z	Rot A	Rot B	Piezo Z	Force A	Force B	Gripper	Voltage A	Voltage B	Temperature	Amplitude force	Amplitude pos	Stiffness	Phase shift	Phase excitation	Force A raw	Displacement raw	HMax	HMax raw	Real Force	Real Stiffness	Contact Depth	Area	Hardness	Reduced Mod.
[#]	[#]	[um]	[s]	[um]	[um]	[um]	[m°]	[m°]	[um]	[uN]	[uN]	[V]	[V]	[V]	[°C]	[uN]	[um]	[N/m]	[°]	[°]	[uN]	[um]	[um]	[um]	[uN]	[N/m]	[um]	[um^2]	[MPa]	[MPa]
380	1.000000	0.002598	7.36878e+06	-57639.1	955.818	-29736.9	0.000000	0.000000	6.002788	-0.051482	NaN	0.000000	0.001597	0.001705	28.0815	0.003480	0.000834	4.173829	-54.8235	-164.467	-0.055867	0.001376	-1.081084	-1.082306	-0.051482	4.173829	-1.071833	-2.098042E+14	2.453796E-16	NaN
380	1.000000	0.044559	7.36878e+06	-57639.1	955.819	-29736.9	0.000000	0.000000	6.044750	-0.024006	NaN	0.000000	0.001687	0.001692	28.0815	0.052604	0.002038	25.8088	39.922	17.2077	0.005417	0.043218	-1.039123	-1.040464	-0.024006	25.8088	-1.038425	-7.460951E+13	3.217490E-16	NaN
380	1.000000	0.086560	7.36878e+06	-57639.1	955.818	-29736.9	0.000000	0.000000	6.086751	-0.037745	NaN	0.000000	0.001659	0.001687	28.0814	0.041277	0.002016	20.4756	-117.963	-164.132	-0.015188	0.085280	-0.997122	-0.998402	-0.037745	20.4756	-0.995739	-1.987928E+13	1.898693E-15	NaN
380	1.000000	0.128572	7.36878e+06	-57639.1	955.819	-29736.9	0.000000	0.000000	6.128763	-0.017373	NaN	0.000000	0.001653	0.001715	28.0813	0.017624	0.001968	8.955713	-86.5519	18.8213	-0.022523	0.127257	-0.955110	-0.956426	-0.017373	8.955713	-0.953655	-5.386720E+12	3.225062E-15	NaN
380	1.000000	0.170620	7.36878e+06	-57639.1	955.818	-29736.9	0.000000	0.000000	6.170809	-0.083739	NaN	0.000000	0.001577	0.001687	28.0805	0.062389	0.001965	31.7467	-74.4943	-163.709	-0.063245	0.169309	-0.913062	-0.914374	-0.083739	31.7467	-0.911084	-1.434835E+12	5.836174E-14	NaN
380	1.000000	0.212591	7.36878e+06	-57639.1	955.819	-29736.9	0.000000	0.000000	6.212784	0.037346	NaN	0.000000	0.001596	0.001683	28.0813	0.085451	0.002003	42.6607	1.661635	14.2839	0.026033	0.211263	-0.871092	-0.872419	0.037346	42.6607	-0.871748	-4.217888E+11	-8.854184E-14	NaN
380	1.000000	0.254623	7.36878e+06	-57639.1	955.819	-29736.9	0.000000	0.000000	6.254816	0.019999	NaN	0.000000	0.001675	0.001655	28.0803	0.080112	0.002053	39.0283	-38.3048	-165.713	-0.004598	0.253327	-0.829059	-0.830355	0.019999	39.0283	-0.829443	-1.127821E+11	-1.773244E-13	NaN
380	1.000000	0.296670	7.36878e+06	-57639.1	955.818	-29736.9	0.000000	0.000000	6.296861	-0.009898	NaN	0.000000	0.001610	0.001671	28.0811	0.077745	0.001948	39.9064	-31.4604	11.106	0.019730	0.295316	-0.787013	-0.788367	-0.009898	39.9064	-0.786827	-2.978381E+10	3.323272E-13	NaN
380	1.000000	0.338659	7.36878e+06	-57639.1	955.818	-29736.9	0.000000	0.000000	6.338850	-0.028988	NaN	0.000000	0.001755	0.001655	28.081	0.049228	0.002054	23.9645	174.727	-162.401	-0.033623	0.337375	-0.745023	-0.746307	-0.028988	23.9645	-0.744116	-7.818245E+9	3.707722E-12	NaN
380	1.000000	0.380684	7.36878e+06	-57639.1	955.818	-29736.9	0.000000	0.000000	6.380872	-0.093754	NaN	0.000000	0.001698	0.001672	28.0811	0.053644	0.001964	27.3111	-141.44	21.1111	-0.077905	0.379352	-0.702998	-0.704330	-0.093754	27.3111	-0.700424	-1.982981E+9	4.727942E-11	NaN
380	1.000000	0.422701	7.36878e+06	-57639.1	955.818	-29736.9	0.000000	0.000000	6.422893	0.013306	NaN	0.000000	0.001633	0.001697	28.08	0.133222	0.002119	62.8754	170.592	-165.413	-0.041210	0.421437	-0.660981	-0.662246	0.013306	62.8754	-0.661140	-5.755503E+8	-2.311805E-11	NaN
380	1.000000	0.464711	7.36878e+06	-57639.1	955.818	-29736.9	0.000000	0.000000	6.464901	-0.037316	NaN	0.000000	0.001661	0.001709	28.0804	0.081649	0.001880	43.4402	111.753	14.8682	-0.013349	0.463362	-0.618972	-0.620320	-0.037316	43.4402	-0.618327	-1.488129E+8	2.507595E-10	NaN
380	1.000000	0.506702	7.36878e+06	-57639.1	955.819	-29736.9	0.000000	0.000000	6.506894	0.004977	NaN	0.000000	0.001609	0.001667	28.0802	0.083528	0.002139	39.0489	169.035	-162.447	-0.032606	0.505446	-0.576980	-0.578236	0.004977	39.0489	-0.577076	-4.021215E+7	-1.237678E-10	NaN
380	1.000000	0.548780	7.36878e+06	-57639.1	955.818	-29736.9	0.000000	0.000000	6.548970	-0.038314	NaN	0.000000	0.001575	0.001664	28.0812	0.044470	0.001920	23.1608	-6.884748	14.9896	-0.090255	0.547406	-0.534902	-0.536276	-0.038314	23.1608	-0.533662	-1.007898E+7	3.801362E-9	NaN
380	1.000000	0.590787	7.36878e+06	-57639.1	955.818	-29736.9	0.000000	0.000000	6.590977	-0.054471	NaN	0.000000	0.001644	0.001628	28.0812	0.031008	0.002071	14.9709	154.631	-161.033	-0.073201	0.589480	-0.492895	-0.494202	-0.054471	14.9709	-0.490166	-2.49868e+06	2.179981E-8	NaN
380	1.000000	0.632802	7.36878e+06	-57639.1	955.818	-29736.9	0.000000	0.000000	6.632993	-0.016316	NaN	0.000000	0.001724	0.001605	28.0813	0.109584	0.001981	55.3248	-50.1275	17.8202	-0.055343	0.631431	-0.450880	-0.452251	-0.016316	55.3248	-0.450659	-697630	2.338781E-8	NaN
380	1.000000	0.674830	7.36878e+06	-57639.1	955.819	-29736.9	0.000000	0.000000	6.675023	0.018455	NaN	0.000000	0.001688	0.001638	28.0812	0.038586	0.001950	19.7901	27.1523	-165.458	0.044541	0.673545	-0.408852	-0.410137	0.018455	19.7901	-0.409551	-182818	-1.009477E-7	NaN
380	1.000000	0.716826	7.36878e+06	-57639.1	955.818	-29736.9	0.000000	0.000000	6.717019	0.036076	NaN	0.000000	0.001665	0.001663	28.0805	0.120175	0.002044	58.7796	97.6125	13.9288	0.081652	0.715442	-0.366857	-0.368240	0.036076	58.7796	-0.367317	-45443.2	-7.938785E-7	NaN
380	1.000000	0.758859	7.36878e+06	-57639.1	955.817	-29736.9	0.000000	0.000000	6.759047	-0.099457	NaN	0.000000	0.001678	0.001662	28.08	0.081295	0.001892	42.9642	57.2268	-165.834	-0.099966	0.757503	-0.324823	-0.326180	-0.099457	42.9642	-0.323087	-10328.7	9.629194E-6	NaN
380	1.000000	0.800862	7.36878e+06	-57639.1	955.818	-29736.9	0.000000	0.000000	6.801047	-0.176753	NaN	0.000000	0.001663	0.001631	28.0801	0.043627	0.002072	21.053	-9.516322	12.3427	-0.130475	0.799485	-0.282820	-0.284197	-0.176753	21.053	-0.276523	-2091.48	8.451100E-5	NaN
380	1.000000	0.842862	7.36878e+06	-57639.1	955.819	-29736.9	0.000000	0.000000	6.843054	-0.003059	NaN	0.000000	0.001621	0.001634	28.0815	0.090899	0.001837	49.4847	143.003	-166.126	-0.080428	0.841575	-0.240820	-0.242107	-0.003059	49.4847	-0.240773	-591.055	5.175814E-6	NaN
380	1.000000	0.884912	7.36878e+06	-57639.1	955.818	-29736.9	0.000000	0.000000	6.885103	-0.017937	NaN	0.000000	0.001624	0.001596	28.0812	0.086896	0.002042	42.5639	94.7471	13.4146	0.060598	0.883553	-0.198770	-0.200130	-0.017937	42.5639	-0.198454	-124.239	0.000144	NaN
380	1.000000	0.926930	7.36878e+06	-57639.1	955.818	-29736.9	0.000000	0.000000	6.927122	0.008926	NaN	0.000000	0.001649	0.001654	28.0814	0.083742	0.002020	41.453	88.4782	-164.926	-0.015512	0.925676	-0.156753	-0.158006	0.008926	41.453	-0.156914	-24.1512	-0.000370	NaN
380	1.000000	0.968977	7.36878e+06	-57639.1	955.817	-29736.9	0.000000	0.000000	6.969166	-0.084680	NaN	0.000000	0.001616	0.001627	28.0798	0.070250	0.002049	34.2778	141.511	13.8974	-0.032008	0.967640	-0.114705	-0.116042	-0.084680	34.2778	-0.112852	-3.448381	0.024556	NaN
380	1.000000	1.010959	7.36878e+06	-57639.1	955.818	-29736.9	0.000000	0.000000	7.011149	-0.052456	NaN	0.000000	0.001610	0.001624	28.0798	0.036610	0.001936	18.9077	-174.832	-166.521	-0.046615	1.009671	-0.072723	-0.074011	-0.052456	18.9077	-0.070642	-0.354855	0.147823	NaN
380	1.000000	1.052972	7.36878e+06	-57639.1	955.819	-29736.9	0.000000	0.000000	7.053166	0.049115	NaN	0.000000	0.001598	0.001614	28.0799	0.056076	0.002062	27.1946	52.4945	17.2516	-0.020676	1.051645	-0.030710	-0.032038	0.049115	27.1946	-0.032064	-0.026318	-1.866227	NaN
380	2.000000	1.093594	7.36878e+06	-57639.1	955.818	-29736.9	0.000000	0.000000	7.094177	9.517490	NaN	0.000000	0.001620	0.001612	28.082	7.685678	0.001821	4220.96	12.4827	-171.213	9.356573	1.093150	0.009911	0.009468	9.517490	4220.96	0.008220	0.007270	1309.16	45229.3
380	2.000000	1.103958	7.36878e+06	-57639.1	955.817	-29736.9	0.000000	0.000000	7.106055	46.2893	NaN	0.000000	0.001576	0.001609	28.0812	21.1123	0.001882	11219.1	7.436864	2.036307	44.4754	1.103647	0.020276	0.019964	46.2893	11219.1	0.017182	0.018306	2528.68	75759.6
380	2.000000	1.114504	7.36878e+06	-57639.1	955.818	-29736.9	0.000000	0.000000	7.119399	114.288	NaN	0.000000	0.001627	0.001631	28.081	30.8435	0.001864	16549.2	6.451786	178.981	113.064	1.114091	0.030822	0.030409	114.288	16549.2	0.025643	0.032195	3549.85	84266.7
380	2.000000	1.124979	7.36878e+06	-57639.1	955.817	-29736.9	0.000000	0.000000	7.132808	185.604	NaN	0.000000	0.001611	0.001639	28.0811	38.6706	0.001891	20452.9	5.400324	-2.424409	184.409	1.124657	0.041297	0.040975	185.604	20452.9	0.034491	0.050567	3670.49	83099.2
380	2.000000	1.135445	7.36878e+06	-57639.1	955.818	-29736.9	0.000000	0.000000	7.146783	270.885	NaN	0.000000	0.001701	0.001658	28.0798	45.7	0.001796	25448.5	4.594666	176.795	269.408	1.135081	0.051763	0.051399	270.885	25448.5	0.043779	0.074160	3652.72	85378.9
380	2.000000	1.145884	7.36878e+06	-57639.1	955.817	-29736.9	0.000000	0.000000	7.160666	354.589	NaN	0.000000	0.001695	0.001717	28.0799	53.0063	0.001852	28622.1	1.382813	-1.210135	350.482	1.145558	0.062202	0.061875	354.589	28622.1	0.052910	0.101621	3489.33	82031.8
380	2.000000	1.156520	7.36879e+06	-57639.1	955.816	-29736.9	0.000000	0.000000	7.174882	441.606	NaN	0.000000	0.001657	0.001678	28.0799	61.6134	0.001728	35657.6	4.556941	175.294	444.258	1.156049	0.072837	0.072367	441.606	35657.6	0.063549	0.138841	3180.66	87431.2
380	2.000000	1.167020	7.36879e+06	-57639.1	955.817	-29736.9	0.000000	0.000000	7.188046	506.355	NaN	0.000000	0.001672	0.001734	28.0814	69.28	0.001699	40784.5	3.355206	-6.387318	510.998	1.166801	0.083338	0.083119	506.355	40784.5	0.074026	0.180851	2799.85	87621
380	2.000000	1.177340	7.36879e+06	-57639.1	955.818	-29736.9	0.000000	0.000000	7.201656	586.297	NaN	0.000000	0.001675	0.001721	28.081	78.1793	0.001968	39725.4	3.968800	174.16	582.626	1.177039	0.093658	0.093357	586.297	39725.4	0.082589	0.219035	2676.73	77550.6
380	2.000000	1.187842	7.36879e+06	-57639.1	955.817	-29736.9	0.000000	0.000000	7.215045	656.482	NaN	0.000000	0.001686	0.001659	28.0814	84.2026	0.001829	46031	3.130259	-5.938267	654.479	1.187576	0.104160	0.103894	656.482	46031	0.093464	0.272424	2409.78	80575.1
380	2.000000	1.191833	7.36879e+06	-57639.1	955.816	-29736.9	0.000000	0.000000	7.219843	676.095	NaN	0.000000	0.001586	0.001678	28.0819	88.1868	0.001847	47749.8	5.982228	-9.592140	671.274	1.191592	0.108151	0.107910	676.095	47749.8	0.097531	0.293787	2301.31	80487.5