Folder: unikorn_login/remote_trans/data/nanoindenter/0828-1/data/Data_2025-08-06,11h17m57s (part 54)

File: 2025-07-22_16-23-58_1_125.txt
2025-07-22, 16:23:58, 1
Index	Phase	Displacement	Time	Pos X	Pos Y	Pos Z	Rot A	Rot B	Piezo Z	Force A	Force B	Gripper	Voltage A	Voltage B	Temperature	Amplitude force	Amplitude pos	Stiffness	Phase shift	Phase excitation	Force A raw	Displacement raw	HMax	HMax raw	Real Force	Real Stiffness	Contact Depth	Area	Hardness	Reduced Mod.
[#]	[#]	[um]	[s]	[um]	[um]	[um]	[m°]	[m°]	[um]	[uN]	[uN]	[V]	[V]	[V]	[°C]	[uN]	[um]	[N/m]	[°]	[°]	[uN]	[um]	[um]	[um]	[uN]	[N/m]	[um]	[um^2]	[MPa]	[MPa]
125	1.000000	0.002667	7.36626e+06	-44889.1	955.819	-29775	0.000000	0.000000	6.002824	-0.022554	NaN	0.000000	0.001538	0.001810	28.1243	0.053791	0.001022	52.6484	155.758	-161.401	-0.010066	0.001399	-0.967425	-0.968693	-0.022554	52.6484	-0.967104	-8.177752E+12	2.757979E-15	NaN
125	1.000000	0.040633	7.36626e+06	-44889.1	955.818	-29775	0.000000	0.000000	6.040790	-0.043335	NaN	0.000000	0.001557	0.001797	28.1177	0.069343	0.001908	36.3408	-45.9933	12.8588	-0.046895	0.039309	-0.929459	-0.930783	-0.043335	36.3408	-0.928565	-2.470722E+12	1.753931E-14	NaN
125	1.000000	0.078598	7.36626e+06	-44889.1	955.818	-29775	0.000000	0.000000	6.078758	0.042158	NaN	0.000000	0.001538	0.001777	28.0835	0.097032	0.001979	49.0216	119.819	-163.458	0.012194	0.077293	-0.891494	-0.892799	0.042158	49.0216	-0.892139	-7.958562E+11	-5.297189E-14	NaN
125	1.000000	0.116620	7.36626e+06	-44889.1	955.818	-29775	0.000000	0.000000	6.116779	0.020653	NaN	0.000000	0.001525	0.001753	28.0854	0.087335	0.001890	46.2102	-141.305	14.9322	0.034522	0.115239	-0.853472	-0.854853	0.020653	46.2102	-0.853807	-2.411514E+11	-8.564424E-14	NaN
125	1.000000	0.154639	7.36626e+06	-44889.1	955.818	-29775	0.000000	0.000000	6.154798	0.010563	NaN	0.000000	0.001535	0.001768	28.124	0.014036	0.001989	7.055957	-91.3128	-165.581	0.022009	0.153370	-0.815453	-0.816722	0.010563	7.055957	-0.816576	-7.547034E+10	-1.399635E-13	NaN
125	1.000000	0.192647	7.36626e+06	-44889.1	955.818	-29775	0.000000	0.000000	6.192808	0.065498	NaN	0.000000	0.001542	0.001801	28.1156	0.038218	0.001936	19.7361	136.419	13.6751	-0.037051	0.191260	-0.777445	-0.778832	0.065498	19.7361	-0.779934	-2.400688E+10	-2.728302E-12	NaN
125	1.000000	0.230670	7.36626e+06	-44889.1	955.818	-29775	0.000000	0.000000	6.230828	-0.006246	NaN	0.000000	0.001557	0.001783	28.0816	0.016133	0.001844	8.749109	-117.128	-165.458	0.042364	0.229382	-0.739422	-0.740710	-0.006246	8.749109	-0.738887	-6.635809E+9	9.413026E-13	NaN
125	1.000000	0.268642	7.36626e+06	-44889.1	955.818	-29775	0.000000	0.000000	6.268800	-0.010232	NaN	0.000000	0.001528	0.001787	28.0872	0.065284	0.001985	32.8897	-33.6427	14.5974	-0.023493	0.267338	-0.701450	-0.702754	-0.010232	32.8897	-0.701216	-2.033024E+9	5.032975E-12	NaN
125	1.000000	0.306728	7.36626e+06	-44889.1	955.817	-29775	0.000000	0.000000	6.306887	-8.831902E-5	NaN	0.000000	0.001614	0.001776	28.1263	0.035285	0.001882	18.7489	55.9199	-165.292	-0.046373	0.305402	-0.663364	-0.664690	-8.831902E-5	18.7489	-0.663360	-6.172940E+8	1.430745E-13	NaN
125	1.000000	0.344674	7.36626e+06	-44889.1	955.817	-29775	0.000000	0.000000	6.344832	-0.022363	NaN	0.000000	0.001578	0.001798	28.1161	0.020285	0.001946	10.4246	177.803	15.4697	-0.046751	0.343350	-0.625418	-0.626742	-0.022363	10.4246	-0.623809	-1.770017E+8	1.263407E-10	NaN
125	1.000000	0.382739	7.36626e+06	-44889.1	955.818	-29775	0.000000	0.000000	6.382896	-0.016873	NaN	0.000000	0.001545	0.001783	28.0829	0.113245	0.002016	56.174	32.7081	-163.337	0.072700	0.381437	-0.587354	-0.588655	-0.016873	56.174	-0.587128	-5.534388E+7	3.048752E-10	NaN
125	1.000000	0.420749	7.36626e+06	-44889.1	955.818	-29775	0.000000	0.000000	6.420907	-0.018402	NaN	0.000000	0.001491	0.001772	28.0844	0.038747	0.002037	19.0216	-142.949	12.7078	0.054691	0.419458	-0.549343	-0.550634	-0.018402	19.0216	-0.548618	-1.624836E+7	1.132514E-9	NaN
125	1.000000	0.458773	7.36626e+06	-44889.1	955.818	-29775	0.000000	0.000000	6.458933	0.036033	NaN	0.000000	0.001536	0.001807	28.1236	0.047740	0.001997	23.9062	-96.1667	-163.754	-0.027716	0.457466	-0.511319	-0.512626	0.036033	23.9062	-0.512449	-5.11122e+06	-7.049766E-9	NaN
125	1.000000	0.496784	7.36626e+06	-44889.1	955.818	-29775	0.000000	0.000000	6.496943	0.024477	NaN	0.000000	0.001535	0.001787	28.1132	0.072173	0.001890	38.189	-30.7952	13.6219	0.058697	0.495401	-0.473308	-0.474691	0.024477	38.189	-0.473789	-1.47411e+06	-1.660446E-8	NaN
125	1.000000	0.534775	7.36626e+06	-44889.1	955.818	-29775	0.000000	0.000000	6.534936	0.067429	NaN	0.000000	0.001547	0.001825	28.0823	0.053556	0.001974	27.1356	103.512	-165.185	-0.042104	0.533492	-0.435317	-0.436600	0.067429	27.1356	-0.437181	-450362	-1.497215E-7	NaN
125	1.000000	0.572800	7.36626e+06	-44889.1	955.818	-29775	0.000000	0.000000	6.572959	0.008703	NaN	0.000000	0.001545	0.001799	28.0857	0.088366	0.002121	41.6546	175.805	16.5328	-0.001620	0.571431	-0.397292	-0.398661	0.008703	41.6546	-0.397448	-122911	-7.080539E-8	NaN
125	1.000000	0.610853	7.36626e+06	-44889.1	955.818	-29775	0.000000	0.000000	6.611011	-0.022145	NaN	0.000000	0.001536	0.001795	28.127	0.121022	0.001842	65.6897	117.614	-161.133	-0.026485	0.609507	-0.359239	-0.360585	-0.022145	65.6897	-0.358986	-34449.4	6.428179E-7	NaN
125	1.000000	0.648851	7.36626e+06	-44889.1	955.818	-29775	0.000000	0.000000	6.649009	-0.019596	NaN	0.000000	0.001519	0.001843	28.1125	0.012976	0.001919	6.762078	44.8517	12.4112	-0.021899	0.647461	-0.321241	-0.322631	-0.019596	6.762078	-0.319067	-9013.79	2.174045E-6	NaN
125	1.000000	0.686867	7.36626e+06	-44889.1	955.818	-29775	0.000000	0.000000	6.687027	0.037198	NaN	0.000000	0.001547	0.001754	28.0811	0.142364	0.001899	74.9789	91.4782	-164.696	0.034835	0.685520	-0.283225	-0.284572	0.037198	74.9789	-0.283597	-2674.03	-1.391080E-5	NaN
125	1.000000	0.724892	7.36626e+06	-44889.1	955.818	-29775	0.000000	0.000000	6.725049	-0.043524	NaN	0.000000	0.001515	0.001821	28.0846	0.089711	0.001957	45.8445	69.4173	15.7887	-0.029542	0.723493	-0.245200	-0.246599	-0.043524	45.8445	-0.244488	-675.285	6.445273E-5	NaN
125	1.000000	0.762859	7.36626e+06	-44889.1	955.818	-29775	0.000000	0.000000	6.763016	-0.040793	NaN	0.000000	0.001558	0.001801	28.1256	0.075637	0.001959	38.6017	98.7384	-165.218	-0.133122	0.761577	-0.207233	-0.208516	-0.040793	38.6017	-0.206441	-167.892	0.000243	NaN
125	1.000000	0.800908	7.36626e+06	-44889.1	955.818	-29775	0.000000	0.000000	6.801068	0.037380	NaN	0.000000	0.001579	0.001798	28.1115	0.067807	0.001974	34.349	40.5975	14.0594	-0.023337	0.799562	-0.169184	-0.170530	0.037380	34.349	-0.170000	-41.0784	-0.000910	NaN
125	1.000000	0.838927	7.36626e+06	-44889.1	955.818	-29775	0.000000	0.000000	6.839086	0.012020	NaN	0.000000	0.001595	0.001792	28.0822	0.095395	0.002014	47.3749	125.324	-163.835	0.068311	0.837612	-0.131165	-0.132480	0.012020	47.3749	-0.131356	-8.096218	-0.001485	NaN
125	1.000000	0.876927	7.36626e+06	-44889.1	955.819	-29775	0.000000	0.000000	6.877082	-0.077430	NaN	0.000000	0.001574	0.001786	28.0859	0.053451	0.002151	24.854	107.139	16.9056	-0.011909	0.875582	-0.093165	-0.094510	-0.077430	24.854	-0.090829	-1.130339	0.068501	NaN
125	1.000000	0.914955	7.36626e+06	-44889.1	955.818	-29775	0.000000	0.000000	6.915114	0.000583	NaN	0.000000	0.001570	0.001766	28.1276	0.051744	0.001989	26.0131	-127.688	-163.433	-0.067843	0.913665	-0.055137	-0.056427	0.000583	26.0131	-0.055154	-0.130131	-0.004478	NaN
125	1.000000	0.952954	7.36626e+06	-44889.1	955.817	-29775	0.000000	0.000000	6.953114	0.021421	NaN	0.000000	0.001542	0.001774	28.1099	0.073093	0.001952	37.4466	158.974	17.5672	0.004050	0.951633	-0.017138	-0.018459	0.021421	37.4466	-0.017567	-0.010877	-1.969467	NaN
125	2.000000	0.986510	7.36626e+06	-44889.1	955.817	-29775	0.000000	0.000000	6.987125	11.1142	NaN	0.000000	0.001549	0.001776	28.0807	10.2641	0.001494	6869.44	7.135221	-173.668	10.2618	0.986229	0.016418	0.016137	11.1142	6869.44	0.015204	0.015559	714.341	50316.3
125	2.000000	0.995971	7.36626e+06	-44889.1	955.817	-29775	0.000000	0.000000	6.997285	28.0968	NaN	0.000000	0.001595	0.001790	28.0861	21.8961	0.001856	11797.6	5.735129	3.700152	28.1138	0.995617	0.025879	0.025525	28.0968	11797.6	0.024093	0.029386	956.136	62877.8
125	2.000000	1.005461	7.36626e+06	-44889.1	955.817	-29775	0.000000	0.000000	7.007996	57.7978	NaN	0.000000	0.001579	0.001785	28.1267	31.3094	0.001718	18226.7	2.305859	-177.875	56.7177	1.005088	0.035369	0.034996	57.7978	18226.7	0.032991	0.047172	1225.27	76672.8
125	2.000000	1.014892	7.36627e+06	-44889.1	955.817	-29775	0.000000	0.000000	7.018758	90.2076	NaN	0.000000	0.001608	0.001779	28.1096	40.0057	0.001851	21608	7.761419	-4.964134	88.742	1.014502	0.044800	0.044410	90.2076	21608	0.041669	0.068412	1318.6	75478.3
125	2.000000	1.024353	7.36627e+06	-44889.1	955.817	-29775	0.000000	0.000000	7.029704	126.342	NaN	0.000000	0.001578	0.001771	28.0822	49.2659	0.001747	28204.6	8.057570	172.965	124.842	1.024078	0.054260	0.053986	126.342	28204.6	0.050901	0.095218	1326.87	83509.1
125	2.000000	1.033976	7.36627e+06	-44889.1	955.818	-29775	0.000000	0.000000	7.041007	167.205	NaN	0.000000	0.001577	0.001770	28.0886	58.2413	0.001744	33398.4	6.154752	-5.883005	172.581	1.033392	0.063884	0.063300	167.205	33398.4	0.060129	0.126271	1324.18	85871.1
125	2.000000	1.043357	7.36627e+06	-44889.1	955.817	-29775	0.000000	0.000000	7.052647	222.16	NaN	0.000000	0.001594	0.001747	28.1273	66.8814	0.001733	38585	4.561804	173.584	221.202	1.042975	0.073265	0.072883	222.16	38585	0.068946	0.159828	1390	88179.1
125	2.000000	1.052725	7.36627e+06	-44889.1	955.816	-29775	0.000000	0.000000	7.064173	274.653	NaN	0.000000	0.001585	0.001787	28.1078	76.7568	0.001866	41137.5	5.174329	-8.053646	266.841	1.052423	0.082633	0.082331	274.653	41137.5	0.077625	0.196482	1397.85	84790.9
125	2.000000	1.062324	7.36627e+06	-44889.1	955.817	-29775	0.000000	0.000000	7.076347	337.308	NaN	0.000000	0.001588	0.001783	28.081	84.807	0.001781	47611.4	2.258419	174.105	335.023	1.062156	0.092231	0.092064	337.308	47611.4	0.086918	0.239636	1407.59	88860.3
125	2.000000	1.071869	7.36627e+06	-44889.1	955.818	-29775	0.000000	0.000000	7.088946	411.568	NaN	0.000000	0.001550	0.001787	28.0882	94.9509	0.001672	56784.5	6.588641	-10.8449	411.132	1.071393	0.101777	0.101301	411.568	56784.5	0.096341	0.287458	1431.75	96764.4
125	2.000000	1.081364	7.36627e+06	-44889.1	955.817	-29775	0.000000	0.000000	7.101651	489.676	NaN	0.000000	0.001615	0.001751	28.1277	100.913	0.001793	56267.5	3.460097	171.66	489.271	1.081041	0.111271	0.110949	489.676	56267.5	0.104744	0.333520	1468.21	89016.4
125	2.000000	1.083333	7.36627e+06	-44889.1	955.818	-29775	0.000000	0.000000	7.104065	500.497	NaN	0.000000	0.001595	0.001764	28.1286	103.846	0.001700	61071.4	2.001182	172.505	499.62	1.083072	0.113241	0.112980	500.497	61071.4	0.107094	0.346973	1442.47	94724.7

File: 2025-07-22_16-23-58_1_126.txt
2025-07-22, 16:23:58, 1
Index	Phase	Displacement	Time	Pos X	Pos Y	Pos Z	Rot A	Rot B	Piezo Z	Force A	Force B	Gripper	Voltage A	Voltage B	Temperature	Amplitude force	Amplitude pos	Stiffness	Phase shift	Phase excitation	Force A raw	Displacement raw	HMax	HMax raw	Real Force	Real Stiffness	Contact Depth	Area	Hardness	Reduced Mod.
[#]	[#]	[um]	[s]	[um]	[um]	[um]	[m°]	[m°]	[um]	[uN]	[uN]	[V]	[V]	[V]	[°C]	[uN]	[um]	[N/m]	[°]	[°]	[uN]	[um]	[um]	[um]	[uN]	[N/m]	[um]	[um^2]	[MPa]	[MPa]
126	1.000000	0.002925	7.36627e+06	-44939.1	955.818	-29774.7	0.000000	0.000000	6.002826	-0.032674	NaN	0.000000	0.001577	0.001787	28.1065	0.101409	0.001005	100.946	-137.543	-169.807	-0.089217	0.001708	-1.037895	-1.039111	-0.032674	100.946	-1.037652	-7.284388E+13	4.485427E-16	NaN
126	1.000000	0.042844	7.36627e+06	-44939.1	955.818	-29774.7	0.000000	0.000000	6.042744	-0.034365	NaN	0.000000	0.001591	0.001810	28.1068	0.126411	0.002003	63.1213	81.4829	-164.828	-0.010333	0.041560	-0.997976	-0.999260	-0.034365	63.1213	-0.997568	-2.103891E+13	1.633394E-15	NaN
126	1.000000	0.082843	7.36627e+06	-44939.1	955.819	-29774.7	0.000000	0.000000	6.082740	-0.115905	NaN	0.000000	0.001546	0.001763	28.1066	0.039271	0.001917	20.4881	97.6186	-168.418	-0.050891	0.081548	-0.957977	-0.959272	-0.115905	20.4881	-0.953734	-5.399878E+12	2.146443E-14	NaN
126	1.000000	0.122866	7.36627e+06	-44939.1	955.818	-29774.7	0.000000	0.000000	6.122767	-0.025712	NaN	0.000000	0.001610	0.001764	28.1069	0.050928	0.002056	24.7659	172.874	-166.307	0.003447	0.121541	-0.917954	-0.919279	-0.025712	24.7659	-0.917175	-1.734052E+12	1.482750E-14	NaN
126	1.000000	0.162895	7.36627e+06	-44939.1	955.82	-29774.7	0.000000	0.000000	6.162795	-0.039159	NaN	0.000000	0.001573	0.001760	28.1063	0.081051	0.002105	38.505	-179.535	-164.579	-0.043019	0.161552	-0.877925	-0.879268	-0.039159	38.505	-0.877162	-4.992665E+11	7.843280E-14	NaN
126	1.000000	0.202906	7.36627e+06	-44939.1	955.818	-29774.7	0.000000	0.000000	6.202807	-0.044916	NaN	0.000000	0.001562	0.001775	28.1068	0.108374	0.001960	55.2889	-140.573	-167.893	-0.072028	0.201609	-0.837913	-0.839210	-0.044916	55.2889	-0.837304	-1.441346E+11	3.116233E-13	NaN
126	1.000000	0.242908	7.36627e+06	-44939.1	955.818	-29774.7	0.000000	0.000000	6.242809	-0.017050	NaN	0.000000	0.001560	0.001766	28.1046	0.023478	0.001972	11.9069	-150.784	-164.664	0.011814	0.241608	-0.797912	-0.799212	-0.017050	11.9069	-0.796838	-4.073180E+10	4.185948E-13	NaN
126	1.000000	0.282956	7.36627e+06	-44939.1	955.818	-29774.7	0.000000	0.000000	6.282856	-0.049476	NaN	0.000000	0.001543	0.001747	28.1046	0.093638	0.002097	44.6565	-126.392	-166.739	0.010201	0.281638	-0.757864	-0.759182	-0.049476	44.6565	-0.757033	-1.172011E+10	4.221488E-12	NaN
126	1.000000	0.322977	7.36627e+06	-44939.1	955.818	-29774.7	0.000000	0.000000	6.322875	-0.108557	NaN	0.000000	0.001537	0.001781	28.1039	0.041579	0.001924	21.6078	177.183	-164.955	-0.164158	0.321617	-0.717843	-0.719203	-0.108557	21.6078	-0.714075	-3.045430E+9	3.564602E-11	NaN
126	1.000000	0.362961	7.36627e+06	-44939.1	955.818	-29774.7	0.000000	0.000000	6.362860	-0.059332	NaN	0.000000	0.001606	0.001765	28.1055	0.120254	0.002011	59.8065	-141.22	-167.681	-0.090217	0.361653	-0.677859	-0.679166	-0.059332	59.8065	-0.677115	-9.522433E+8	6.230770E-11	NaN
126	1.000000	0.402987	7.36627e+06	-44939.1	955.818	-29774.7	0.000000	0.000000	6.402891	0.041768	NaN	0.000000	0.001587	0.001780	28.1042	0.034981	0.001986	17.6103	124.955	-166.154	0.005112	0.401658	-0.637832	-0.639162	0.041768	17.6103	-0.639611	-2.917136E+8	-1.431813E-10	NaN
126	1.000000	0.442997	7.36627e+06	-44939.1	955.818	-29774.7	0.000000	0.000000	6.442897	-0.054202	NaN	0.000000	0.001585	0.001799	28.105	0.071734	0.001991	36.0265	-81.8162	-166.052	0.021328	0.441718	-0.597823	-0.599102	-0.054202	36.0265	-0.596695	-7.497708E+7	7.229123E-10	NaN
126	1.000000	0.483025	7.36627e+06	-44939.1	955.819	-29774.7	0.000000	0.000000	6.482929	0.045063	NaN	0.000000	0.001607	0.001764	28.1043	0.097011	0.002142	45.2901	40.6437	-164.813	-0.004784	0.481748	-0.557795	-0.559072	0.045063	45.2901	-0.558541	-2.229406E+7	-2.021291E-9	NaN
126	1.000000	0.523050	7.36627e+06	-44939.1	955.818	-29774.7	0.000000	0.000000	6.522952	-0.013570	NaN	0.000000	0.001572	0.001743	28.1036	0.057004	0.001823	31.2675	78.0079	-165.014	0.039317	0.521740	-0.517769	-0.519080	-0.013570	31.2675	-0.517444	-5.99847e+06	2.262245E-9	NaN
126	1.000000	0.563069	7.36627e+06	-44939.1	955.818	-29774.7	0.000000	0.000000	6.562970	-0.036313	NaN	0.000000	0.001541	0.001768	28.1025	0.069014	0.002044	33.7583	84.6707	-169.033	-0.054414	0.561723	-0.477750	-0.479097	-0.036313	33.7583	-0.476944	-1.63204e+06	2.225020E-8	NaN
126	1.000000	0.603062	7.36627e+06	-44939.1	955.818	-29774.7	0.000000	0.000000	6.602962	-0.049325	NaN	0.000000	0.001535	0.001774	28.1035	0.131759	0.002098	62.8052	-85.0757	-166.866	-0.025287	0.601773	-0.437758	-0.439046	-0.049325	62.8052	-0.437169	-450191	1.095646E-7	NaN
126	1.000000	0.643095	7.36627e+06	-44939.1	955.818	-29774.7	0.000000	0.000000	6.642997	-0.003083	NaN	0.000000	0.001543	0.001777	28.1035	0.030214	0.001969	15.3477	-74.5218	-168.276	0.001017	0.641752	-0.397725	-0.399068	-0.003083	15.3477	-0.397574	-123421	2.497603E-8	NaN
126	1.000000	0.683131	7.36627e+06	-44939.1	955.819	-29774.7	0.000000	0.000000	6.683031	-0.055354	NaN	0.000000	0.001573	0.001742	28.1052	0.195170	0.001987	98.2411	-33.3356	-164.916	-0.057762	0.681763	-0.357689	-0.359056	-0.055354	98.2411	-0.357266	-32531.4	1.701548E-6	NaN
126	1.000000	0.723155	7.36627e+06	-44939.1	955.819	-29774.7	0.000000	0.000000	6.723052	-0.113307	NaN	0.000000	0.001564	0.001755	28.1033	0.053246	0.001962	27.1448	4.863861	-165.813	-0.128337	0.721798	-0.317665	-0.319021	-0.113307	27.1448	-0.314535	-7728.21	1.466150E-5	NaN
126	1.000000	0.763134	7.36627e+06	-44939.1	955.817	-29774.7	0.000000	0.000000	6.763033	-0.063155	NaN	0.000000	0.001547	0.001814	28.1021	0.084003	0.001975	42.53	-77.0571	-169.018	-0.028642	0.761792	-0.277686	-0.279028	-0.063155	42.53	-0.276572	-2095.05	3.014466E-5	NaN
126	1.000000	0.803141	7.36627e+06	-44939.1	955.818	-29774.7	0.000000	0.000000	6.803043	0.004216	NaN	0.000000	0.001606	0.001839	28.1013	0.120612	0.002062	58.4827	122.474	-168.269	-0.065453	0.801845	-0.237679	-0.238975	0.004216	58.4827	-0.237733	-529.789	-7.957017E-6	NaN
126	1.000000	0.843196	7.36627e+06	-44939.1	955.818	-29774.7	0.000000	0.000000	6.843096	-0.036805	NaN	0.000000	0.001557	0.001772	28.1021	0.068437	0.001784	38.3719	2.312428	-166.563	-0.022466	0.841889	-0.197624	-0.198931	-0.036805	38.3719	-0.196905	-117.14	0.000314	NaN
126	1.000000	0.883185	7.36627e+06	-44939.1	955.819	-29774.7	0.000000	0.000000	6.883086	-0.035665	NaN	0.000000	0.001644	0.001771	28.1009	0.028131	0.002022	13.9138	51.3505	-165.675	-0.023288	0.881892	-0.157635	-0.158928	-0.035665	13.9138	-0.155712	-22.982	0.001552	NaN
126	1.000000	0.923183	7.36627e+06	-44939.1	955.818	-29774.7	0.000000	0.000000	6.923084	-0.040159	NaN	0.000000	0.001586	0.001786	28.1038	0.042444	0.002102	20.1875	80.3646	-167.423	0.054449	0.921882	-0.117636	-0.118938	-0.040159	20.1875	-0.116144	-4.033098	0.009957	NaN
126	1.000000	0.963238	7.36627e+06	-44939.1	955.819	-29774.7	0.000000	0.000000	6.963137	-0.072626	NaN	0.000000	0.001540	0.001793	28.1016	0.047458	0.001967	24.1235	-177.748	-166.015	-0.007117	0.961905	-0.077582	-0.078915	-0.072626	24.1235	-0.075324	-0.470866	0.154240	NaN
126	1.000000	1.003244	7.36627e+06	-44939.1	955.819	-29774.7	0.000000	0.000000	7.003143	-0.086334	NaN	0.000000	0.001565	0.001804	28.1029	0.076293	0.001891	40.3374	55.3079	-163.982	-0.072192	1.001953	-0.037576	-0.038866	-0.086334	40.3374	-0.035970	-0.034212	2.523517	NaN
126	1.000000	1.043283	7.36627e+06	-44939.1	955.819	-29774.7	0.000000	0.000000	7.043201	0.406126	NaN	0.000000	0.001565	0.001806	28.0999	0.744351	0.001911	389.607	3.759299	-165.191	0.039589	1.041917	0.002463	0.001097	0.406126	389.607	0.001681	0.001298	312.796	9878.71
126	2.000000	1.059803	7.36627e+06	-44939.1	955.819	-29774.7	0.000000	0.000000	7.060632	22.5447	NaN	0.000000	0.001601	0.001765	28.1008	18.4792	0.001864	9916.02	7.567723	-177.95	22.5274	1.059497	0.018983	0.018677	22.5447	9916.02	0.017278	0.018444	1222.33	66708.8
126	2.000000	1.069732	7.36627e+06	-44939.1	955.819	-29774.7	0.000000	0.000000	7.071670	49.5266	NaN	0.000000	0.001589	0.001814	28.0987	29.5471	0.001825	16194.4	3.954978	-178.977	48.1954	1.069447	0.028913	0.028627	49.5266	16194.4	0.026619	0.034027	1455.52	80209.8
126	2.000000	1.079751	7.36627e+06	-44939.1	955.819	-29774.7	0.000000	0.000000	7.083080	83.375	NaN	0.000000	0.001556	0.001770	28.1003	40.1652	0.001823	22030.7	6.733998	175.674	83.0181	1.079405	0.038931	0.038585	83.375	22030.7	0.036093	0.054320	1534.87	86361.6
126	2.000000	1.089673	7.36627e+06	-44939.1	955.819	-29774.7	0.000000	0.000000	7.094755	126.037	NaN	0.000000	0.001586	0.001807	28.1007	48.1934	0.001682	28646.9	2.716586	176.796	123.104	1.089364	0.048853	0.048545	126.037	28646.9	0.045553	0.079165	1592.08	93021.7
126	2.000000	1.099716	7.36627e+06	-44939.1	955.819	-29774.7	0.000000	0.000000	7.106694	172.139	NaN	0.000000	0.001563	0.001799	28.1011	58.2645	0.001702	34240.1	6.010620	171.85	170.669	1.099458	0.058897	0.058638	172.139	34240.1	0.055126	0.108913	1580.52	94791.3
126	2.000000	1.109661	7.36627e+06	-44939.1	955.819	-29774.7	0.000000	0.000000	7.118798	224.659	NaN	0.000000	0.001576	0.001804	28.0998	68.7484	0.001821	37759.7	2.353882	175.117	222.294	1.109443	0.068841	0.068623	224.659	37759.7	0.064379	0.141977	1582.36	91557.2
126	2.000000	1.119574	7.36628e+06	-44939.1	955.819	-29774.7	0.000000	0.000000	7.131213	285.536	NaN	0.000000	0.001565	0.001829	28.0998	80.1176	0.001855	43181.4	8.083795	168.449	278.927	1.119291	0.078754	0.078471	285.536	43181.4	0.073795	0.179867	1587.49	93023.8
126	2.000000	1.129635	7.36628e+06	-44939.1	955.818	-29774.7	0.000000	0.000000	7.144353	360.447	NaN	0.000000	0.001553	0.001837	28.098	90.2782	0.001865	48409.1	8.613351	167.502	359.211	1.129273	0.088815	0.088453	360.447	48409.1	0.083230	0.222033	1623.39	93862.3
126	2.000000	1.139705	7.36628e+06	-44939.1	955.818	-29774.7	0.000000	0.000000	7.157225	428.607	NaN	0.000000	0.001524	0.001792	28.0995	99.3364	0.001832	54230.2	8.121582	166.578	428.865	1.139434	0.098885	0.098614	428.607	54230.2	0.092957	0.269818	1588.5	95384.8
126	2.000000	1.149558	7.36628e+06	-44939.1	955.82	-29774.7	0.000000	0.000000	7.170996	523.904	NaN	0.000000	0.001509	0.001808	28.099	107.665	0.001774	60687.5	4.563037	169.911	519.049	1.149262	0.108738	0.108442	523.904	60687.5	0.102264	0.319589	1639.3	98079.2
126	2.000000	1.150631	7.36628e+06	-44939.1	955.819	-29774.7	0.000000	0.000000	7.172198	527.031	NaN	0.000000	0.001496	0.001787	28.0954	107.414	0.001760	61025.7	0.975338	173.498	524.896	1.150437	0.109812	0.109617	527.031	61025.7	0.103334	0.325567	1618.81	97716.1