Folder: unikorn_login/remote_trans/data/nanoindenter/0828-1/data/Data_2025-08-06,11h17m57s (part 71)

File: 2025-07-22_16-23-58_1_159.txt
2025-07-22, 16:23:58, 1
Index	Phase	Displacement	Time	Pos X	Pos Y	Pos Z	Rot A	Rot B	Piezo Z	Force A	Force B	Gripper	Voltage A	Voltage B	Temperature	Amplitude force	Amplitude pos	Stiffness	Phase shift	Phase excitation	Force A raw	Displacement raw	HMax	HMax raw	Real Force	Real Stiffness	Contact Depth	Area	Hardness	Reduced Mod.
[#]	[#]	[um]	[s]	[um]	[um]	[um]	[m°]	[m°]	[um]	[uN]	[uN]	[V]	[V]	[V]	[°C]	[uN]	[um]	[N/m]	[°]	[°]	[uN]	[um]	[um]	[um]	[uN]	[N/m]	[um]	[um^2]	[MPa]	[MPa]
159	1.000000	0.002501	7.36659e+06	-46589.1	955.819	-29769.1	0.000000	0.000000	6.002804	-0.008713	NaN	0.000000	0.001711	0.001621	28.0855	0.037556	0.000915	41.041	-106.366	-170.342	0.007577	0.001189	-1.081552	-1.082864	-0.008713	41.041	-1.081393	-2.819874E+14	3.089853E-17	NaN
159	1.000000	0.044453	7.36659e+06	-46589.1	955.818	-29769.1	0.000000	0.000000	6.044759	0.063902	NaN	0.000000	0.001640	0.001668	28.0833	0.107560	0.001991	54.0333	-156.772	15.1819	0.098413	0.043093	-1.039600	-1.040960	0.063902	54.0333	-1.040487	-7.952727E+13	-8.035177E-16	NaN
159	1.000000	0.086466	7.36659e+06	-46589.1	955.818	-29769.1	0.000000	0.000000	6.086766	-0.089777	NaN	0.000000	0.001641	0.001678	28.1208	0.071615	0.001994	35.9089	-38.4089	-164.539	-0.093324	0.085118	-0.997587	-0.998935	-0.089777	35.9089	-0.995712	-1.986269E+13	4.519860E-15	NaN
159	1.000000	0.128459	7.3666e+06	-46589.1	955.818	-29769.1	0.000000	0.000000	6.128764	0.034709	NaN	0.000000	0.001702	0.001646	28.1201	0.082119	0.002146	38.2673	167.194	16.047	-0.028415	0.127131	-0.955594	-0.956922	0.034709	38.2673	-0.956275	-5.843097E+12	-5.940251E-15	NaN
159	1.000000	0.170490	7.3666e+06	-46589.1	955.819	-29769.1	0.000000	0.000000	6.170793	-0.012833	NaN	0.000000	0.001732	0.001733	28.0853	0.070897	0.001980	35.812	168.258	-162.098	-0.066861	0.169206	-0.913563	-0.914847	-0.012833	35.812	-0.913294	-1.536941E+12	8.349922E-15	NaN
159	1.000000	0.212545	7.3666e+06	-46589.1	955.818	-29769.1	0.000000	0.000000	6.212847	-0.046444	NaN	0.000000	0.001694	0.001693	28.0833	0.074191	0.002065	35.9323	-82.0399	11.1709	0.021377	0.211164	-0.871508	-0.872889	-0.046444	35.9323	-0.870539	-4.061937E+11	1.143394E-13	NaN
159	1.000000	0.254521	7.3666e+06	-46589.1	955.818	-29769.1	0.000000	0.000000	6.254827	0.053110	NaN	0.000000	0.001654	0.001699	28.1211	0.067014	0.002002	33.468	-108.948	-166.258	0.005651	0.253207	-0.829532	-0.830847	0.053110	33.468	-0.830722	-1.173754E+11	-4.524774E-13	NaN
159	1.000000	0.296548	7.3666e+06	-46589.1	955.818	-29769.1	0.000000	0.000000	6.296849	-0.071894	NaN	0.000000	0.001627	0.001696	28.1211	0.080280	0.001978	40.5912	-0.321639	12.7275	0.042690	0.295151	-0.787505	-0.788903	-0.071894	40.5912	-0.786177	-2.918460E+10	2.463436E-12	NaN
159	1.000000	0.338575	7.3666e+06	-46589.1	955.818	-29769.1	0.000000	0.000000	6.338878	0.007084	NaN	0.000000	0.001555	0.001739	28.0848	0.040332	0.002149	18.7645	172.42	-164.162	0.061246	0.337278	-0.745479	-0.746775	0.007084	18.7645	-0.745762	-8.232311E+9	-8.604511E-13	NaN
159	1.000000	0.380589	7.3666e+06	-46589.1	955.818	-29769.1	0.000000	0.000000	6.380891	-0.032267	NaN	0.000000	0.001601	0.001672	28.082	0.033760	0.001887	17.892	125.257	16.6902	0.011947	0.379238	-0.703464	-0.704815	-0.032267	17.892	-0.702112	-2.091057E+9	1.543115E-11	NaN
159	1.000000	0.422621	7.3666e+06	-46589.1	955.819	-29769.1	0.000000	0.000000	6.422923	-0.038837	NaN	0.000000	0.001580	0.001652	28.1176	0.160005	0.002003	79.8853	150.797	-164.288	-0.026667	0.421327	-0.661432	-0.662726	-0.038837	79.8853	-0.661068	-5.742426E+8	6.763141E-11	NaN
159	1.000000	0.464626	7.3666e+06	-46589.1	955.818	-29769.1	0.000000	0.000000	6.464928	-0.046165	NaN	0.000000	0.001551	0.001667	28.1247	0.145582	0.001999	72.8412	-4.868728	14.7707	-0.103255	0.463242	-0.619427	-0.620811	-0.046165	72.8412	-0.618952	-1.517836E+8	3.041480E-10	NaN
159	1.000000	0.506633	7.3666e+06	-46589.1	955.818	-29769.1	0.000000	0.000000	6.506936	-0.014466	NaN	0.000000	0.001573	0.001689	28.0844	0.109425	0.002019	54.2091	-116.63	-169.29	0.031058	0.505389	-0.577421	-0.578664	-0.014466	54.2091	-0.577220	-4.039779E+7	3.581012E-10	NaN
159	1.000000	0.548635	7.3666e+06	-46589.1	955.818	-29769.1	0.000000	0.000000	6.548938	-0.018076	NaN	0.000000	0.001540	0.001615	28.085	0.238104	0.001934	123.122	-104.289	17.9377	-0.042987	0.547371	-0.535418	-0.536682	-0.018076	123.122	-0.535308	-1.062338E+7	1.701539E-9	NaN
159	1.000000	0.590681	7.3666e+06	-46589.1	955.818	-29769.1	0.000000	0.000000	6.590983	-0.028644	NaN	0.000000	0.001499	0.001689	28.1168	0.021956	0.001992	11.0204	-30.5707	-163.926	0.028994	0.589365	-0.493372	-0.494689	-0.028644	11.0204	-0.491423	-2.60182e+06	1.100911E-8	NaN
159	1.000000	0.632698	7.3666e+06	-46589.1	955.818	-29769.1	0.000000	0.000000	6.633002	0.005749	NaN	0.000000	0.001534	0.001684	28.1231	0.125604	0.002037	61.6532	11.6292	13.7204	-0.026490	0.631331	-0.451355	-0.452722	0.005749	61.6532	-0.451425	-715161	-8.038952E-9	NaN
159	1.000000	0.674733	7.3666e+06	-46589.1	955.818	-29769.1	0.000000	0.000000	6.675034	-0.073684	NaN	0.000000	0.001506	0.001700	28.0836	0.027834	0.001953	14.2551	-114.205	-161.028	-0.006181	0.673397	-0.409320	-0.410656	-0.073684	14.2551	-0.405443	-159793	4.611236E-7	NaN
159	1.000000	0.716731	7.3666e+06	-46589.1	955.818	-29769.1	0.000000	0.000000	6.717035	0.012123	NaN	0.000000	0.001582	0.001639	28.0837	0.032810	0.001985	16.5252	-10.9071	15.1033	-0.009930	0.715386	-0.367322	-0.368668	0.012123	16.5252	-0.367873	-46289	-2.618974E-7	NaN
159	1.000000	0.758727	7.3666e+06	-46589.1	955.819	-29769.1	0.000000	0.000000	6.759029	-0.050479	NaN	0.000000	0.001540	0.001657	28.1175	0.136777	0.001954	69.9855	1.889538	-164.177	-0.034329	0.757464	-0.325326	-0.326590	-0.050479	69.9855	-0.324785	-10939.1	4.614566E-6	NaN
159	1.000000	0.800776	7.3666e+06	-46589.1	955.818	-29769.1	0.000000	0.000000	6.801077	-0.055810	NaN	0.000000	0.001577	0.001665	28.1245	0.122037	0.001998	61.0896	27.4129	13.7547	0.030065	0.799410	-0.283277	-0.284643	-0.055810	61.0896	-0.282592	-2582.48	2.161092E-5	NaN
159	1.000000	0.842778	7.3666e+06	-46589.1	955.818	-29769.1	0.000000	0.000000	6.843078	-0.079723	NaN	0.000000	0.001587	0.001632	28.0836	0.009623	0.001930	4.986846	80.8695	-164.445	-0.089987	0.841487	-0.241275	-0.242567	-0.079723	4.986846	-0.229285	-390.143	0.000204	NaN
159	1.000000	0.884784	7.3666e+06	-46589.1	955.818	-29769.1	0.000000	0.000000	6.885089	0.035910	NaN	0.000000	0.001564	0.001614	28.082	0.097127	0.001920	50.5931	-1.592495	15.5343	-0.046633	0.883433	-0.199269	-0.200621	0.035910	50.5931	-0.199802	-130.749	-0.000275	NaN
159	1.000000	0.926816	7.3666e+06	-46589.1	955.819	-29769.1	0.000000	0.000000	6.927121	0.029961	NaN	0.000000	0.001594	0.001659	28.1149	0.138922	0.002017	68.8692	-40.8466	-164.654	0.103709	0.925483	-0.157237	-0.158570	0.029961	68.8692	-0.157563	-24.8059	-0.001208	NaN
159	1.000000	0.968830	7.3666e+06	-46589.1	955.818	-29769.1	0.000000	0.000000	6.969135	0.055602	NaN	0.000000	0.001571	0.001672	28.1242	0.034974	0.002000	17.4905	105.38	15.0512	0.046295	0.967468	-0.115224	-0.116585	0.055602	17.4905	-0.117608	-4.320776	-0.012868	NaN
159	1.000000	1.010852	7.3666e+06	-46589.1	955.818	-29769.1	0.000000	0.000000	7.011156	0.014844	NaN	0.000000	0.001591	0.001672	28.0855	0.027109	0.002144	12.6441	-98.8568	-167.337	0.023946	1.009572	-0.073202	-0.074481	0.014844	12.6441	-0.074082	-0.437222	-0.033950	NaN
159	1.000000	1.052848	7.3666e+06	-46589.1	955.817	-29769.1	0.000000	0.000000	7.053152	0.011843	NaN	0.000000	0.001549	0.001627	28.0829	0.089745	0.002015	44.5275	-157.033	13.2909	-0.102050	1.051483	-0.031205	-0.032570	0.011843	44.5275	-0.031405	-0.025204	-0.469874	NaN
159	1.000000	1.094857	7.3666e+06	-46589.1	955.82	-29769.1	0.000000	0.000000	7.095363	4.926124	NaN	0.000000	0.001557	0.001670	28.1155	3.232768	0.001859	1738.7	12.4909	-166.385	4.874896	1.093592	0.010804	0.009539	4.926124	1738.7	0.008679	0.007750	635.651	18044.9
159	2.000000	1.113927	7.3666e+06	-46589.1	955.819	-29769.1	0.000000	0.000000	7.114930	17.0136	NaN	0.000000	0.001526	0.001661	28.1248	14.2024	0.001868	7604.15	6.747961	5.256562	14.9466	1.113578	0.029874	0.029525	17.0136	7604.15	0.028196	0.037087	458.743	36075.4
159	2.000000	1.124393	7.3666e+06	-46589.1	955.818	-29769.1	0.000000	0.000000	7.126205	36.6897	NaN	0.000000	0.001504	0.001612	28.0838	24.4274	0.001847	13222.6	7.022828	-179.254	36.2703	1.124181	0.040340	0.040127	36.6897	13222.6	0.038259	0.059607	615.53	49481.4
159	2.000000	1.134974	7.3666e+06	-46589.1	955.817	-29769.1	0.000000	0.000000	7.137661	57.974	NaN	0.000000	0.001559	0.001637	28.0817	33.9234	0.001866	18178.8	5.665173	0.294220	60.5543	1.134605	0.050921	0.050552	57.974	18178.8	0.048529	0.087920	659.393	56013.7
159	2.000000	1.145409	7.3666e+06	-46589.1	955.818	-29769.1	0.000000	0.000000	7.149519	92.5772	NaN	0.000000	0.001589	0.001651	28.1153	42.203	0.001765	23904.7	3.123858	-179.796	92.9372	1.145100	0.061356	0.061047	92.5772	23904.7	0.058451	0.120314	769.465	62965
159	2.000000	1.155825	7.3666e+06	-46589.1	955.819	-29769.1	0.000000	0.000000	7.161650	134.306	NaN	0.000000	0.001599	0.001646	28.1255	51.4575	0.001728	29770.9	3.216742	-1.980291	128.833	1.155485	0.071772	0.071432	134.306	29770.9	0.068388	0.157593	852.236	68516.8
159	2.000000	1.166351	7.3666e+06	-46589.1	955.819	-29769.1	0.000000	0.000000	7.173848	174.98	NaN	0.000000	0.001587	0.001601	28.0873	63.5108	0.001779	35698.8	5.637938	174.689	172.54	1.165914	0.082298	0.081860	174.98	35698.8	0.078622	0.200918	870.901	72764.1
159	2.000000	1.176885	7.3666e+06	-46589.1	955.818	-29769.1	0.000000	0.000000	7.186770	233.068	NaN	0.000000	0.001598	0.001636	28.0802	74.8276	0.001827	40950.3	7.563379	-8.956432	233.726	1.176543	0.092831	0.092490	233.068	40950.3	0.088563	0.247690	940.968	75175.4
159	2.000000	1.187296	7.3666e+06	-46589.1	955.818	-29769.1	0.000000	0.000000	7.199859	298.196	NaN	0.000000	0.001570	0.001636	28.1129	84.2036	0.001908	44139.8	4.803266	173.719	293.988	1.186951	0.103243	0.102898	298.196	44139.8	0.098176	0.297242	1003.21	73968.8
159	2.000000	1.197855	7.3666e+06	-46589.1	955.818	-29769.1	0.000000	0.000000	7.213353	369.598	NaN	0.000000	0.001563	0.001657	28.1252	92.8974	0.001615	57533.8	3.728458	-7.567532	368.334	1.197441	0.113802	0.113387	369.598	57533.8	0.108984	0.357975	1032.47	87855.7
159	2.000000	1.204691	7.3666e+06	-46589.1	955.819	-29769.1	0.000000	0.000000	7.222327	421.601	NaN	0.000000	0.001572	0.001638	28.0801	101.076	0.001858	54391.6	4.624051	-7.588574	412.964	1.204429	0.120638	0.120376	421.601	54391.6	0.114825	0.393001	1072.78	79269.9

File: 2025-07-22_16-23-58_1_160.txt
2025-07-22, 16:23:58, 1
Index	Phase	Displacement	Time	Pos X	Pos Y	Pos Z	Rot A	Rot B	Piezo Z	Force A	Force B	Gripper	Voltage A	Voltage B	Temperature	Amplitude force	Amplitude pos	Stiffness	Phase shift	Phase excitation	Force A raw	Displacement raw	HMax	HMax raw	Real Force	Real Stiffness	Contact Depth	Area	Hardness	Reduced Mod.
[#]	[#]	[um]	[s]	[um]	[um]	[um]	[m°]	[m°]	[um]	[uN]	[uN]	[V]	[V]	[V]	[°C]	[uN]	[um]	[N/m]	[°]	[°]	[uN]	[um]	[um]	[um]	[uN]	[N/m]	[um]	[um^2]	[MPa]	[MPa]
160	1.000000	0.002715	7.3666e+06	-46639.1	955.82	-29769	0.000000	0.000000	6.002784	-0.001834	NaN	0.000000	0.001592	0.001663	28.1269	0.018649	0.001004	18.5836	20.1623	-165.624	-0.067077	0.001468	-1.099622	-1.100869	-0.001834	18.5836	-1.099548	-4.943160E+14	3.709908E-18	NaN
160	1.000000	0.044673	7.3666e+06	-46639.1	955.819	-29769	0.000000	0.000000	6.044740	-0.040441	NaN	0.000000	0.001596	0.001703	28.0832	0.093909	0.001989	47.2109	-87.7585	15.5988	-0.041687	0.043304	-1.057664	-1.059033	-0.040441	47.2109	-1.057022	-1.326770E+14	3.048113E-16	NaN
160	1.000000	0.086665	7.3666e+06	-46639.1	955.818	-29769	0.000000	0.000000	6.086733	-0.020070	NaN	0.000000	0.001621	0.001679	28.0788	0.042752	0.001973	21.6656	-66.0376	-163.743	0.017624	0.085391	-1.015672	-1.016946	-0.020070	21.6656	-1.014977	-3.608839E+13	5.561474E-16	NaN
160	1.000000	0.128706	7.3666e+06	-46639.1	955.818	-29769	0.000000	0.000000	6.128774	-0.042924	NaN	0.000000	0.001588	0.001682	28.1085	0.026980	0.002069	13.0398	-72.7666	11.7475	-0.031681	0.127338	-0.973631	-0.974999	-0.042924	13.0398	-0.971162	-9.275274E+12	4.627776E-15	NaN
160	1.000000	0.170731	7.3666e+06	-46639.1	955.818	-29769	0.000000	0.000000	6.170799	-0.016374	NaN	0.000000	0.001589	0.001746	28.1269	0.090865	0.001988	45.7073	102.732	-159.353	-0.028298	0.169405	-0.931606	-0.932932	-0.016374	45.7073	-0.931338	-2.693097E+12	6.080072E-15	NaN
160	1.000000	0.212761	7.36661e+06	-46639.1	955.818	-29769	0.000000	0.000000	6.212831	0.023676	NaN	0.000000	0.001560	0.001701	28.0856	0.073899	0.002039	36.2513	-177.786	18.5917	0.014950	0.211402	-0.889576	-0.890935	0.023676	36.2513	-0.890066	-7.461192E+11	-3.173168E-14	NaN
160	1.000000	0.254735	7.36661e+06	-46639.1	955.817	-29769	0.000000	0.000000	6.254804	-0.013694	NaN	0.000000	0.001584	0.001694	28.0814	0.013309	0.001985	6.703139	72.3305	-163.233	-0.023060	0.253480	-0.847602	-0.848857	-0.013694	6.703139	-0.846070	-1.894563E+11	7.228167E-14	NaN
160	1.000000	0.296803	7.36661e+06	-46639.1	955.818	-29769	0.000000	0.000000	6.296873	0.008242	NaN	0.000000	0.001565	0.001730	28.1077	0.068774	0.001849	37.1932	-40.3295	16.341	0.070913	0.295464	-0.805534	-0.806873	0.008242	37.1932	-0.805700	-5.373154E+10	-1.533832E-13	NaN
160	1.000000	0.338794	7.36661e+06	-46639.1	955.817	-29769	0.000000	0.000000	6.338863	-0.008705	NaN	0.000000	0.001611	0.001704	28.1261	0.086622	0.001854	46.7161	35.9368	-165.313	0.008284	0.337485	-0.763543	-0.764852	-0.008705	46.7161	-0.763403	-1.430841E+10	6.083844E-13	NaN
160	1.000000	0.380819	7.36661e+06	-46639.1	955.818	-29769	0.000000	0.000000	6.380884	-0.091105	NaN	0.000000	0.001566	0.001774	28.0855	0.136470	0.001976	69.0612	-140.729	16.4305	-0.076527	0.379459	-0.721518	-0.722878	-0.091105	69.0612	-0.720529	-3.729809E+9	2.442629E-11	NaN
160	1.000000	0.422847	7.36661e+06	-46639.1	955.819	-29769	0.000000	0.000000	6.422918	0.026990	NaN	0.000000	0.001564	0.001766	28.0799	0.126143	0.002013	62.6635	-175.047	-166.953	0.004979	0.421554	-0.679490	-0.680783	0.026990	62.6635	-0.679813	-1.036675E+9	-2.603489E-11	NaN
160	1.000000	0.464855	7.36661e+06	-46639.1	955.818	-29769	0.000000	0.000000	6.464925	0.012972	NaN	0.000000	0.001557	0.001750	28.109	0.052517	0.001993	26.3566	-87.1851	13.9562	0.035544	0.463489	-0.637482	-0.638848	0.012972	26.3566	-0.637851	-2.759326E+8	-4.701303E-11	NaN
160	1.000000	0.506864	7.36661e+06	-46639.1	955.818	-29769	0.000000	0.000000	6.506931	-0.052968	NaN	0.000000	0.001586	0.001732	28.1267	0.108875	0.001986	54.8286	-32.9974	-165.96	-0.031594	0.505544	-0.595473	-0.596793	-0.052968	54.8286	-0.594749	-7.048864E+7	7.514434E-10	NaN
160	1.000000	0.548913	7.36661e+06	-46639.1	955.818	-29769	0.000000	0.000000	6.548980	-0.046529	NaN	0.000000	0.001569	0.001753	28.0889	0.052355	0.002150	24.3541	6.379628	14.891	-0.007855	0.547525	-0.553424	-0.554812	-0.046529	24.3541	-0.551992	-1.809412E+7	2.571492E-9	NaN
160	1.000000	0.590919	7.36661e+06	-46639.1	955.817	-29769	0.000000	0.000000	6.590990	0.024953	NaN	0.000000	0.001590	0.001755	28.0787	0.037169	0.001984	18.7364	-119.429	-166.469	0.014835	0.589570	-0.511418	-0.512767	0.024953	18.7364	-0.512417	-5.10586e+06	-4.887164E-9	NaN
160	1.000000	0.632966	7.36661e+06	-46639.1	955.819	-29769	0.000000	0.000000	6.633034	-0.043267	NaN	0.000000	0.001598	0.001735	28.108	0.044631	0.001981	22.5312	85.2771	14.7033	-0.100662	0.631582	-0.469371	-0.470755	-0.043267	22.5312	-0.467931	-1.22005e+06	3.546344E-8	NaN
160	1.000000	0.674931	7.36661e+06	-46639.1	955.819	-29769	0.000000	0.000000	6.674999	-0.022627	NaN	0.000000	0.001559	0.001704	28.126	0.106739	0.001860	57.3996	90.3022	-164.243	-0.068562	0.673648	-0.427406	-0.428689	-0.022627	57.3996	-0.427111	-324466	6.973488E-8	NaN
160	1.000000	0.716987	7.36661e+06	-46639.1	955.817	-29769	0.000000	0.000000	6.717054	-0.066222	NaN	0.000000	0.001598	0.001692	28.0897	0.045934	0.002094	21.9396	91.599	15.0293	-0.081333	0.715636	-0.385350	-0.386701	-0.066222	21.9396	-0.383086	-76587.1	8.646623E-7	NaN
160	1.000000	0.758953	7.36661e+06	-46639.1	955.818	-29769	0.000000	0.000000	6.759022	-0.017464	NaN	0.000000	0.001594	0.001697	28.0783	0.057117	0.001963	29.1005	-52.6491	-161.672	-0.043032	0.757637	-0.343384	-0.344700	-0.017464	29.1005	-0.342934	-20150.9	8.666444E-7	NaN
160	1.000000	0.800999	7.36661e+06	-46639.1	955.818	-29769	0.000000	0.000000	6.801065	-0.081827	NaN	0.000000	0.001527	0.001692	28.1073	0.088054	0.002023	43.5213	-19.4764	13.5175	-0.125388	0.799599	-0.301338	-0.302738	-0.081827	43.5213	-0.299928	-4694.22	1.743134E-5	NaN
160	1.000000	0.843001	7.36661e+06	-46639.1	955.818	-29769	0.000000	0.000000	6.843069	-0.035056	NaN	0.000000	0.001597	0.001697	28.1275	0.157881	0.002062	76.5544	-160.188	-163.19	-0.033664	0.841692	-0.259336	-0.260645	-0.035056	76.5544	-0.258992	-1131.01	3.099512E-5	NaN
160	1.000000	0.885048	7.36661e+06	-46639.1	955.819	-29769	0.000000	0.000000	6.885114	-0.083537	NaN	0.000000	0.001560	0.001723	28.0885	0.015039	0.001989	7.561493	-123.681	14.165	0.068028	0.883707	-0.217289	-0.218630	-0.083537	7.561493	-0.209003	-184.783	0.000452	NaN
160	1.000000	0.927049	7.36661e+06	-46639.1	955.818	-29769	0.000000	0.000000	6.927117	-0.030213	NaN	0.000000	0.001596	0.001707	28.0784	0.101350	0.001947	52.0495	68.4295	-165.661	-0.065413	0.925731	-0.175289	-0.176606	-0.030213	52.0495	-0.174853	-49.826	0.000606	NaN
160	1.000000	0.969072	7.36661e+06	-46639.1	955.817	-29769	0.000000	0.000000	6.969139	-0.056303	NaN	0.000000	0.001539	0.001663	28.1048	0.049028	0.001956	25.0634	112.052	15.1708	-0.065863	0.967707	-0.133265	-0.134630	-0.056303	25.0634	-0.131581	-8.177662	0.006885	NaN
160	1.000000	1.011085	7.36661e+06	-46639.1	955.817	-29769	0.000000	0.000000	7.011155	0.007956	NaN	0.000000	0.001541	0.001682	28.1278	0.089229	0.001879	47.4757	-18.553	-164.136	-0.009670	1.009775	-0.091252	-0.092562	0.007956	47.4757	-0.091377	-1.164128	-0.006834	NaN
160	1.000000	1.053093	7.36661e+06	-46639.1	955.818	-29769	0.000000	0.000000	7.053160	-0.054628	NaN	0.000000	0.001557	0.001696	28.0908	0.056837	0.002016	28.1879	57.4265	12.5032	-0.040841	1.051723	-0.049244	-0.050614	-0.054628	28.1879	-0.047790	-0.078193	0.698623	NaN
160	1.000000	1.095103	7.36661e+06	-46639.1	955.818	-29769	0.000000	0.000000	7.095171	-0.043544	NaN	0.000000	0.001530	0.001721	28.0796	0.129794	0.002058	63.0687	-133.197	-170.63	-0.033504	1.093843	-0.007234	-0.008494	-0.043544	63.0687	-0.006716	-0.004470	9.740856	NaN
160	2.000000	1.117182	7.36661e+06	-46639.1	955.818	-29769	0.000000	0.000000	7.118001	18.2336	NaN	0.000000	0.001587	0.001647	28.1048	15.1023	0.001870	8077.86	10.7161	1.570538	17.4818	1.116871	0.014845	0.014534	18.2336	8077.86	0.013152	0.012900	1413.48	64979.6
160	2.000000	1.127677	7.36661e+06	-46639.1	955.818	-29769	0.000000	0.000000	7.129330	38.5228	NaN	0.000000	0.001638	0.001644	28.127	24.4028	0.001820	13406.8	3.761435	-175.178	37.932	1.127386	0.025340	0.025049	38.5228	13406.8	0.023185	0.027797	1385.88	73468.8
160	2.000000	1.138191	7.36661e+06	-46639.1	955.821	-29769	0.000000	0.000000	7.141220	72.0091	NaN	0.000000	0.001636	0.001689	28.0898	33.7828	0.001782	18954.6	6.122400	0.219176	74.0501	1.137760	0.035854	0.035423	72.0091	18954.6	0.033004	0.047201	1525.58	79709.7
160	2.000000	1.148605	7.36661e+06	-46639.1	955.82	-29769	0.000000	0.000000	7.153254	111.381	NaN	0.000000	0.001619	0.001669	28.0804	43.0939	0.001804	23886.3	4.803534	178.145	109.01	1.148289	0.046268	0.045952	111.381	23886.3	0.042771	0.071386	1560.27	81680.2
160	2.000000	1.159053	7.36661e+06	-46639.1	955.819	-29769	0.000000	0.000000	7.165771	161.74	NaN	0.000000	0.001629	0.001684	28.1045	52.7982	0.001669	31626.4	2.404572	-2.024011	156.659	1.158757	0.056716	0.056420	161.74	31626.4	0.052880	0.101522	1593.15	90686.4
160	2.000000	1.169559	7.36661e+06	-46639.1	955.818	-29769	0.000000	0.000000	7.178689	220.401	NaN	0.000000	0.001623	0.001666	28.1294	63.0753	0.001842	34247.6	3.747926	177.235	216.015	1.169249	0.067222	0.066912	220.401	34247.6	0.062395	0.134538	1638.21	85306.5
160	2.000000	1.180145	7.36661e+06	-46639.1	955.819	-29769	0.000000	0.000000	7.192068	288.341	NaN	0.000000	0.001639	0.001658	28.0886	74.6614	0.001902	39255.6	5.813737	-6.562514	289.229	1.179711	0.077808	0.077374	288.341	39255.6	0.072299	0.173566	1661.27	86088
160	2.000000	1.190502	7.36661e+06	-46639.1	955.819	-29769	0.000000	0.000000	7.205728	368.674	NaN	0.000000	0.001616	0.001691	28.0788	82.011	0.001739	47168.5	2.223809	175.211	361.837	1.190243	0.088165	0.087906	368.674	47168.5	0.082303	0.217704	1693.47	92361.8
160	2.000000	1.200996	7.36661e+06	-46639.1	955.819	-29769	0.000000	0.000000	7.219645	451.965	NaN	0.000000	0.001701	0.001683	28.1024	92.5419	0.001916	48309.5	6.450113	-8.689541	446.632	1.200678	0.098659	0.098341	451.965	48309.5	0.091642	0.263101	1717.84	86048.7
160	2.000000	1.208979	7.36661e+06	-46639.1	955.819	-29769	0.000000	0.000000	7.230561	523.298	NaN	0.000000	0.001711	0.001698	28.1022	97.2375	0.001768	54983.6	3.286922	-6.445287	516.225	1.208736	0.106642	0.106399	523.298	54983.6	0.099504	0.304417	1719.02	91048.4