Folder: unikorn_login/remote_trans/data/nanoindenter/0828-1/data/Data_2025-08-06,11h17m57s (part 7)

File: 2025-07-22_16-23-58_1_12.txt
2025-07-22, 16:23:58, 1
Index	Phase	Displacement	Time	Pos X	Pos Y	Pos Z	Rot A	Rot B	Piezo Z	Force A	Force B	Gripper	Voltage A	Voltage B	Temperature	Amplitude force	Amplitude pos	Stiffness	Phase shift	Phase excitation	Force A raw	Displacement raw	HMax	HMax raw	Real Force	Real Stiffness	Contact Depth	Area	Hardness	Reduced Mod.
[#]	[#]	[um]	[s]	[um]	[um]	[um]	[m°]	[m°]	[um]	[uN]	[uN]	[V]	[V]	[V]	[°C]	[uN]	[um]	[N/m]	[°]	[°]	[uN]	[um]	[um]	[um]	[uN]	[N/m]	[um]	[um^2]	[MPa]	[MPa]
12	1.000000	0.002013	7.36516e+06	-39239.1	955.819	-29795.3	0.000000	0.000000	6.002796	0.004693	NaN	0.000000	0.001569	0.001619	28.1105	0.033638	0.000879	38.2873	-40.8508	-166.622	-0.005845	0.000755	-1.078928	-1.080185	0.004693	38.2873	-1.079020	-2.620356E+14	-1.791126E-17	NaN
12	1.000000	0.041988	7.36516e+06	-39239.1	955.819	-29795.3	0.000000	0.000000	6.042773	0.057147	NaN	0.000000	0.001529	0.001650	28.1107	0.051865	0.002028	25.5684	-38.8074	-166.391	0.069102	0.040658	-1.038953	-1.040283	0.057147	25.5684	-1.040630	-7.987915E+13	-7.154236E-16	NaN
12	1.000000	0.081978	7.36516e+06	-39239.1	955.818	-29795.3	0.000000	0.000000	6.082761	0.004097	NaN	0.000000	0.001516	0.001613	28.1102	0.078232	0.002102	37.2231	-8.754156	-162.358	-0.003434	0.080641	-0.998963	-1.000300	0.004097	37.2231	-0.999045	-2.202498E+13	-1.860102E-16	NaN
12	1.000000	0.121989	7.36516e+06	-39239.1	955.818	-29795.3	0.000000	0.000000	6.122773	0.026115	NaN	0.000000	0.001554	0.001644	28.1117	0.032686	0.002045	15.982	13.6612	-166.238	-0.020964	0.120692	-0.958952	-0.960249	0.026115	15.982	-0.960178	-6.595794E+12	-3.959380E-15	NaN
12	1.000000	0.162016	7.36516e+06	-39239.1	955.819	-29795.3	0.000000	0.000000	6.162800	0.022930	NaN	0.000000	0.001541	0.001608	28.1101	0.072509	0.002043	35.494	-8.810391	-163.73	0.092867	0.160720	-0.918925	-0.920221	0.022930	35.494	-0.919409	-1.858781E+12	-1.233622E-14	NaN
12	1.000000	0.202031	7.36516e+06	-39239.1	955.819	-29795.3	0.000000	0.000000	6.202815	0.011731	NaN	0.000000	0.001521	0.001648	28.1095	0.011936	0.002137	5.586590	-31.6569	-164.794	0.059836	0.200707	-0.878910	-0.880234	0.011731	5.586590	-0.880485	-5.536879E+11	-2.118741E-14	NaN
12	1.000000	0.242046	7.36516e+06	-39239.1	955.819	-29795.3	0.000000	0.000000	6.242829	-0.004960	NaN	0.000000	0.001549	0.001669	28.1087	0.039884	0.002006	19.8782	161.703	-164.429	-0.067122	0.240778	-0.838895	-0.840163	-0.004960	19.8782	-0.838708	-1.505870E+11	3.293538E-14	NaN
12	1.000000	0.282074	7.36516e+06	-39239.1	955.818	-29795.3	0.000000	0.000000	6.282860	0.063018	NaN	0.000000	0.001570	0.001643	28.1088	0.033127	0.002044	16.2098	179.818	-164.87	0.002523	0.280770	-0.798867	-0.800171	0.063018	16.2098	-0.801783	-4.753989E+10	-1.325579E-12	NaN
12	1.000000	0.322080	7.36516e+06	-39239.1	955.818	-29795.3	0.000000	0.000000	6.322864	0.021051	NaN	0.000000	0.001556	0.001637	28.1095	0.086067	0.001980	43.4791	1.821955	-163.984	-0.017195	0.320786	-0.758861	-0.760155	0.021051	43.4791	-0.759224	-1.255281E+10	-1.676989E-12	NaN
12	1.000000	0.362099	7.36516e+06	-39239.1	955.818	-29795.3	0.000000	0.000000	6.362881	-0.038261	NaN	0.000000	0.001579	0.001685	28.1104	0.119063	0.001982	60.057	-162.814	-163.675	-0.037133	0.360832	-0.718842	-0.720109	-0.038261	60.057	-0.718364	-3.484667E+9	1.097981E-11	NaN
12	1.000000	0.402117	7.36516e+06	-39239.1	955.819	-29795.3	0.000000	0.000000	6.402900	-0.004056	NaN	0.000000	0.001522	0.001636	28.1096	0.035935	0.001945	18.4782	-27.3135	-165.269	-0.012864	0.400837	-0.678824	-0.680104	-0.004056	18.4782	-0.678659	-9.996878E+8	4.057113E-12	NaN
12	1.000000	0.442117	7.36516e+06	-39239.1	955.818	-29795.3	0.000000	0.000000	6.442900	-0.001300	NaN	0.000000	0.001532	0.001642	28.1101	0.009019	0.001946	4.634150	78.5247	-162.026	0.012839	0.440851	-0.638824	-0.640090	-0.001300	4.634150	-0.638613	-2.826569E+8	4.599750E-12	NaN
12	1.000000	0.482161	7.36516e+06	-39239.1	955.818	-29795.3	0.000000	0.000000	6.482942	-0.050543	NaN	0.000000	0.001584	0.001642	28.1083	0.085977	0.002041	42.134	87.5131	-165.468	-0.098007	0.480844	-0.598780	-0.600097	-0.050543	42.134	-0.597880	-7.785022E+7	6.492390E-10	NaN
12	1.000000	0.522178	7.36516e+06	-39239.1	955.818	-29795.3	0.000000	0.000000	6.522962	0.038898	NaN	0.000000	0.001545	0.001682	28.1085	0.139282	0.001783	78.1295	-5.910308	-161.634	-0.007308	0.520852	-0.558763	-0.560089	0.038898	78.1295	-0.559137	-2.272137E+7	-1.711968E-9	NaN
12	1.000000	0.562194	7.36516e+06	-39239.1	955.818	-29795.3	0.000000	0.000000	6.562976	-0.031931	NaN	0.000000	0.001533	0.001698	28.1065	0.073312	0.001985	36.9393	-34.5209	-166.058	-0.068403	0.560911	-0.518747	-0.520029	-0.031931	36.9393	-0.518099	-6.12565e+06	5.212697E-9	NaN
12	1.000000	0.602196	7.36516e+06	-39239.1	955.818	-29795.3	0.000000	0.000000	6.602981	0.054478	NaN	0.000000	0.001558	0.001670	28.1084	0.075286	0.002002	37.6059	162.659	-165.056	0.100833	0.600932	-0.478745	-0.480009	0.054478	37.6059	-0.479831	-1.7913e+06	-3.041268E-8	NaN
12	1.000000	0.642248	7.36516e+06	-39239.1	955.819	-29795.3	0.000000	0.000000	6.643033	0.032757	NaN	0.000000	0.001589	0.001629	28.1075	0.136340	0.001970	69.1993	-9.763681	-166.708	0.038142	0.640955	-0.438692	-0.439986	0.032757	69.1993	-0.439047	-478540	-6.845185E-8	NaN
12	1.000000	0.682264	7.36516e+06	-39239.1	955.819	-29795.3	0.000000	0.000000	6.683046	-0.017754	NaN	0.000000	0.001634	0.001634	28.1078	0.130915	0.002017	64.9026	54.1205	-164.73	-0.023437	0.680918	-0.398677	-0.400023	-0.017754	64.9026	-0.398472	-127115	1.396661E-7	NaN
12	1.000000	0.722284	7.36516e+06	-39239.1	955.818	-29795.3	0.000000	0.000000	6.723069	0.056709	NaN	0.000000	0.001649	0.001622	28.1069	0.041108	0.002047	20.0823	35.1885	-163.972	0.011045	0.720958	-0.358657	-0.359983	0.056709	20.0823	-0.360775	-36563.1	-1.550991E-6	NaN
12	1.000000	0.762289	7.36516e+06	-39239.1	955.818	-29795.3	0.000000	0.000000	6.763074	0.041073	NaN	0.000000	0.001586	0.001652	28.1071	0.057489	0.001936	29.6977	10.5318	-167.509	0.051802	0.760970	-0.318652	-0.319971	0.041073	29.6977	-0.319689	-9205.91	-4.461585E-6	NaN
12	1.000000	0.802314	7.36516e+06	-39239.1	955.818	-29795.3	0.000000	0.000000	6.803099	0.043928	NaN	0.000000	0.001549	0.001631	28.1059	0.131203	0.002108	62.2431	-104.148	-163.844	0.035693	0.801042	-0.278627	-0.279899	0.043928	62.2431	-0.279156	-2292.12	-1.916477E-5	NaN
12	1.000000	0.842335	7.36516e+06	-39239.1	955.818	-29795.3	0.000000	0.000000	6.843117	-0.015125	NaN	0.000000	0.001580	0.001667	28.1068	0.106264	0.001944	54.6635	-52.3369	-166.74	0.013913	0.840973	-0.238606	-0.239968	-0.015125	54.6635	-0.238398	-542.644	2.787294E-5	NaN
12	1.000000	0.882315	7.36516e+06	-39239.1	955.819	-29795.3	0.000000	0.000000	6.883098	0.003868	NaN	0.000000	0.001552	0.001668	28.1063	0.048099	0.002206	21.8023	-84.6283	-164.788	0.001114	0.881072	-0.198626	-0.199869	0.003868	21.8023	-0.198759	-125.685	-3.077887E-5	NaN
12	1.000000	0.922330	7.36516e+06	-39239.1	955.819	-29795.3	0.000000	0.000000	6.923112	-0.035444	NaN	0.000000	0.001564	0.001690	28.1078	0.046369	0.001809	25.6303	-111.392	-166.046	-0.002609	0.921027	-0.158611	-0.159914	-0.035444	25.6303	-0.157573	-24.8164	0.001428	NaN
12	1.000000	0.962350	7.36516e+06	-39239.1	955.818	-29795.3	0.000000	0.000000	6.963135	0.040579	NaN	0.000000	0.001551	0.001672	28.106	0.098368	0.002025	48.5678	12.2763	-166.223	0.011219	0.961044	-0.118591	-0.119897	0.040579	48.5678	-0.119217	-4.658653	-0.008710	NaN
12	1.000000	1.002353	7.36516e+06	-39239.1	955.819	-29795.3	0.000000	0.000000	7.003138	0.043645	NaN	0.000000	0.001583	0.001668	28.1065	0.025405	0.002087	12.1734	29.4276	-165.532	0.055637	1.001083	-0.078588	-0.079858	0.043645	12.1734	-0.081277	-0.666012	-0.065532	NaN
12	1.000000	1.042398	7.36516e+06	-39239.1	955.819	-29795.3	0.000000	0.000000	7.043181	-0.005166	NaN	0.000000	0.001579	0.001670	28.1051	0.108036	0.002018	53.528	138.13	-163.733	0.052668	1.041005	-0.038543	-0.039936	-0.005166	53.528	-0.038471	-0.040649	0.127086	NaN
12	1.000000	1.082410	7.36516e+06	-39239.1	955.818	-29795.3	0.000000	0.000000	7.083221	0.670080	NaN	0.000000	0.001591	0.001650	28.106	1.030618	0.002076	496.494	10.0205	-163.467	0.068937	1.081035	0.001469	9.397587E-5	0.670080	496.494	0.000457	0.000345	1944.36	24435
12	2.000000	1.097960	7.36516e+06	-39239.1	955.819	-29795.3	0.000000	0.000000	7.099400	15.9744	NaN	0.000000	0.001573	0.001670	28.1048	16.5513	0.001832	9035.32	5.665676	-174.707	14.8288	1.097610	0.017019	0.016669	15.9744	9035.32	0.015693	0.016221	984.806	64815.7
12	2.000000	1.107942	7.36516e+06	-39239.1	955.819	-29795.3	0.000000	0.000000	7.110269	37.5804	NaN	0.000000	0.001601	0.001606	28.107	26.516	0.001835	14451.7	6.185268	-179.177	37.3681	1.107650	0.027001	0.026709	37.5804	14451.7	0.025050	0.031107	1208.09	74861.8
12	2.000000	1.117898	7.36516e+06	-39239.1	955.818	-29795.3	0.000000	0.000000	7.121424	66.7621	NaN	0.000000	0.001558	0.001597	28.1054	35.2683	0.001820	19379.3	3.711392	-179.722	64.4067	1.117627	0.036957	0.036686	66.7621	19379.3	0.034373	0.050296	1327.37	78948.2
12	2.000000	1.127923	7.36516e+06	-39239.1	955.82	-29795.3	0.000000	0.000000	7.133138	107.85	NaN	0.000000	0.001527	0.001583	28.1058	45.1633	0.001744	25897.4	7.432485	174.625	107.21	1.127618	0.046982	0.046678	107.85	25897.4	0.043859	0.074381	1449.96	86755.5
12	2.000000	1.137918	7.36517e+06	-39239.1	955.82	-29795.3	0.000000	0.000000	7.145253	159.421	NaN	0.000000	0.001544	0.001600	28.1036	54.999	0.001768	31107.8	3.692588	176.823	161.539	1.137545	0.056978	0.056604	159.421	31107.8	0.053134	0.102346	1557.67	88840
12	2.000000	1.147851	7.36517e+06	-39239.1	955.82	-29795.3	0.000000	0.000000	7.157297	210.82	NaN	0.000000	0.001533	0.001607	28.1041	65.3086	0.001885	34649.1	4.960105	174.684	207.649	1.147643	0.066910	0.066702	210.82	34649.1	0.062347	0.134357	1569.1	86364.5
12	2.000000	1.157837	7.36517e+06	-39239.1	955.819	-29795.3	0.000000	0.000000	7.169949	275.678	NaN	0.000000	0.001649	0.001603	28.1028	72.85	0.001740	41878.8	5.857947	172.62	273.235	1.157460	0.076896	0.076519	275.678	41878.8	0.071959	0.172149	1601.39	92218
12	2.000000	1.167823	7.36517e+06	-39239.1	955.819	-29795.3	0.000000	0.000000	7.182501	338.135	NaN	0.000000	0.001561	0.001592	28.1048	83.5525	0.001883	44378.7	5.491618	172.359	336.021	1.167567	0.086883	0.086626	338.135	44378.7	0.081168	0.212461	1591.51	87964.5
12	2.000000	1.177762	7.36517e+06	-39239.1	955.819	-29795.3	0.000000	0.000000	7.195474	411.958	NaN	0.000000	0.001639	0.001592	28.1038	90.5578	0.001846	49043.5	3.783227	173.684	406.732	1.177479	0.096821	0.096538	411.958	49043.5	0.090521	0.257441	1600.2	88311.2
12	2.000000	1.187805	7.36517e+06	-39239.1	955.82	-29795.3	0.000000	0.000000	7.208266	478.857	NaN	0.000000	0.001539	0.001612	28.1046	98.9765	0.001809	54724.4	5.095329	171.019	476.278	1.187674	0.106864	0.106734	478.857	54724.4	0.100302	0.308768	1550.86	89978.4
12	2.000000	1.188219	7.36517e+06	-39239.1	955.82	-29795.3	0.000000	0.000000	7.209144	490.171	NaN	0.000000	0.001538	0.001598	28.1326	98.5124	0.001796	54847.4	4.999702	-8.676037	480.873	1.187870	0.107278	0.106929	490.171	54847.4	0.100575	0.310265	1579.85	89962.8

File: 2025-07-22_16-23-58_1_13.txt
2025-07-22, 16:23:58, 1
Index	Phase	Displacement	Time	Pos X	Pos Y	Pos Z	Rot A	Rot B	Piezo Z	Force A	Force B	Gripper	Voltage A	Voltage B	Temperature	Amplitude force	Amplitude pos	Stiffness	Phase shift	Phase excitation	Force A raw	Displacement raw	HMax	HMax raw	Real Force	Real Stiffness	Contact Depth	Area	Hardness	Reduced Mod.
[#]	[#]	[um]	[s]	[um]	[um]	[um]	[m°]	[m°]	[um]	[uN]	[uN]	[V]	[V]	[V]	[°C]	[uN]	[um]	[N/m]	[°]	[°]	[uN]	[um]	[um]	[um]	[uN]	[N/m]	[um]	[um^2]	[MPa]	[MPa]
13	1.000000	0.002484	7.36517e+06	-39289.1	955.819	-29795.1	0.000000	0.000000	6.002802	0.079418	NaN	0.000000	0.001593	0.001694	28.0813	0.090385	0.001026	88.0525	68.3803	-162.956	0.050925	0.001283	-1.077968	-1.079170	0.079418	88.0525	-1.078645	-2.590082E+14	-3.066232E-16	NaN
13	1.000000	0.042456	7.36517e+06	-39289.1	955.818	-29795.1	0.000000	0.000000	6.042770	-0.028838	NaN	0.000000	0.001573	0.001676	28.0819	0.136013	0.001950	69.7672	131.095	-166.227	-0.022826	0.041140	-1.037996	-1.039312	-0.028838	69.7672	-1.037686	-7.292116E+13	3.954662E-16	NaN
13	1.000000	0.082440	7.36517e+06	-39289.1	955.818	-29795.1	0.000000	0.000000	6.082755	0.026412	NaN	0.000000	0.001656	0.001692	28.0814	0.044045	0.002003	21.987	135.055	-164.421	-0.021364	0.081109	-0.998013	-0.999344	0.026412	21.987	-0.998914	-2.193534E+13	-1.204096E-15	NaN
13	1.000000	0.122473	7.36517e+06	-39289.1	955.818	-29795.1	0.000000	0.000000	6.122787	-0.008327	NaN	0.000000	0.001637	0.001688	28.0812	0.063405	0.001906	33.2733	82.3469	-166.416	0.003304	0.121192	-0.957979	-0.959260	-0.008327	33.2733	-0.957792	-6.124837E+12	1.359592E-15	NaN
13	1.000000	0.162463	7.36517e+06	-39289.1	955.818	-29795.1	0.000000	0.000000	6.162778	-0.001063	NaN	0.000000	0.001674	0.001754	28.0807	0.102588	0.001995	51.4199	-50.4928	-164.809	0.042690	0.161110	-0.917989	-0.919342	-0.001063	51.4199	-0.917974	-1.777647E+12	5.981042E-16	NaN
13	1.000000	0.202509	7.36517e+06	-39289.1	955.818	-29795.1	0.000000	0.000000	6.202823	-0.002020	NaN	0.000000	0.001691	0.001716	28.0802	0.113868	0.002023	56.2823	15.9502	-165.985	0.031397	0.201187	-0.877944	-0.879265	-0.002020	56.2823	-0.877917	-5.111342E+11	3.951092E-15	NaN
13	1.000000	0.242522	7.36517e+06	-39289.1	955.817	-29795.1	0.000000	0.000000	6.242839	0.042252	NaN	0.000000	0.001688	0.001686	28.079	0.044882	0.002106	21.3147	-178.769	-164.584	0.035210	0.241227	-0.837930	-0.839225	0.042252	21.3147	-0.839417	-1.539552E+11	-2.744445E-13	NaN
13	1.000000	0.282542	7.36517e+06	-39289.1	955.819	-29795.1	0.000000	0.000000	6.282857	0.001726	NaN	0.000000	0.001585	0.001725	28.0807	0.100691	0.002058	48.934	-63.5561	-166.276	-0.005185	0.281207	-0.797910	-0.799246	0.001726	48.934	-0.797937	-4.215543E+10	-4.093242E-14	NaN
13	1.000000	0.322574	7.36517e+06	-39289.1	955.818	-29795.1	0.000000	0.000000	6.322890	0.037112	NaN	0.000000	0.001568	0.001694	28.0792	0.069401	0.002058	33.7301	-110.057	-160.66	0.032196	0.321212	-0.757879	-0.759240	0.037112	33.7301	-0.758704	-1.235007E+10	-3.004963E-12	NaN
13	1.000000	0.362616	7.36517e+06	-39289.1	955.818	-29795.1	0.000000	0.000000	6.362928	-0.066033	NaN	0.000000	0.001542	0.001669	28.0817	0.074250	0.002058	36.0811	113.949	-168.92	-0.012033	0.361266	-0.717836	-0.719186	-0.066033	36.0811	-0.716464	-3.282747E+9	2.011524E-11	NaN
13	1.000000	0.402607	7.36517e+06	-39289.1	955.818	-29795.1	0.000000	0.000000	6.402925	0.078636	NaN	0.000000	0.001621	0.001669	28.0786	0.025744	0.002135	12.0562	141.5	-165.236	0.108389	0.401316	-0.677845	-0.679137	0.078636	12.0562	-0.682737	-1.136664E+9	-6.918157E-11	NaN
13	1.000000	0.442609	7.36517e+06	-39289.1	955.818	-29795.1	0.000000	0.000000	6.442926	0.036628	NaN	0.000000	0.001595	0.001714	28.0819	0.044542	0.001986	22.4252	154.812	-167.19	0.024879	0.441282	-0.637843	-0.639170	0.036628	22.4252	-0.639068	-2.867489E+8	-1.277341E-10	NaN
13	1.000000	0.482630	7.36517e+06	-39289.1	955.819	-29795.1	0.000000	0.000000	6.482944	-0.035550	NaN	0.000000	0.001547	0.001703	28.0792	0.145422	0.001996	72.8628	-173.928	-168.12	0.022899	0.481274	-0.597822	-0.599179	-0.035550	72.8628	-0.597456	-7.681052E+7	4.628325E-10	NaN
13	1.000000	0.522616	7.36517e+06	-39289.1	955.818	-29795.1	0.000000	0.000000	6.522931	-0.006305	NaN	0.000000	0.001594	0.001693	28.0807	0.077966	0.002001	38.9638	-26.7163	-164.068	-0.076606	0.521326	-0.557836	-0.559126	-0.006305	38.9638	-0.557715	-2.171496E+7	2.903572E-10	NaN
13	1.000000	0.562677	7.36517e+06	-39289.1	955.818	-29795.1	0.000000	0.000000	6.562991	-0.013537	NaN	0.000000	0.001613	0.001704	28.0791	0.093839	0.002013	46.6182	114.117	-164.365	0.016302	0.561358	-0.517776	-0.519095	-0.013537	46.6182	-0.517558	-6.02042e+06	2.248573E-9	NaN
13	1.000000	0.602661	7.36517e+06	-39289.1	955.819	-29795.1	0.000000	0.000000	6.602973	-0.060787	NaN	0.000000	0.001629	0.001708	28.0816	0.038689	0.002030	19.0605	-80.1209	-167.309	0.024546	0.601426	-0.477792	-0.479027	-0.060787	19.0605	-0.475400	-1.55275e+06	3.914823E-8	NaN
13	1.000000	0.642706	7.36517e+06	-39289.1	955.818	-29795.1	0.000000	0.000000	6.643020	-0.012146	NaN	0.000000	0.001625	0.001695	28.0805	0.055465	0.002100	26.4142	149.185	-162.375	0.029490	0.641347	-0.437747	-0.439105	-0.012146	26.4142	-0.437402	-453608	2.677711E-8	NaN
13	1.000000	0.682718	7.36517e+06	-39289.1	955.818	-29795.1	0.000000	0.000000	6.683032	-0.021565	NaN	0.000000	0.001618	0.001683	28.0816	0.018519	0.002017	9.183198	113.437	-164.385	0.010074	0.681451	-0.397734	-0.399001	-0.021565	9.183198	-0.395973	-117093	1.841709E-7	NaN
13	1.000000	0.722735	7.36517e+06	-39289.1	955.818	-29795.1	0.000000	0.000000	6.723050	0.009202	NaN	0.000000	0.001576	0.001685	28.0806	0.009856	0.001910	5.161250	129.523	-165.944	-0.037164	0.721472	-0.357718	-0.358980	0.009202	5.161250	-0.359055	-34528.6	-2.665061E-7	NaN
13	1.000000	0.762762	7.36517e+06	-39289.1	955.817	-29795.1	0.000000	0.000000	6.763076	-0.005418	NaN	0.000000	0.001545	0.001720	28.0804	0.028373	0.001949	14.557	-150.13	-164.298	0.011697	0.761434	-0.317691	-0.319019	-0.005418	14.557	-0.317412	-8521.46	6.358189E-7	NaN
13	1.000000	0.802771	7.36517e+06	-39289.1	955.817	-29795.1	0.000000	0.000000	6.803084	-0.050463	NaN	0.000000	0.001587	0.001698	28.0788	0.089260	0.002131	41.8783	-97.3524	-165.373	-0.018563	0.801523	-0.277682	-0.278929	-0.050463	41.8783	-0.276778	-2110.09	2.391528E-5	NaN
13	1.000000	0.842755	7.36517e+06	-39289.1	955.818	-29795.1	0.000000	0.000000	6.843071	0.015268	NaN	0.000000	0.001578	0.001679	28.0788	0.105190	0.001874	56.1459	-159.899	-163.944	0.028366	0.841497	-0.237697	-0.238956	0.015268	56.1459	-0.237901	-533.006	-2.864528E-5	NaN
13	1.000000	0.882783	7.36517e+06	-39289.1	955.818	-29795.1	0.000000	0.000000	6.883097	-0.011948	NaN	0.000000	0.001559	0.001706	28.0782	0.091253	0.001910	47.7872	-52.9335	-165.569	-0.047012	0.881494	-0.197670	-0.198958	-0.011948	47.7872	-0.197482	-119.739	9.978235E-5	NaN
13	1.000000	0.922786	7.36517e+06	-39289.1	955.818	-29795.1	0.000000	0.000000	6.923096	-0.098500	NaN	0.000000	0.001596	0.001727	28.0807	0.127259	0.001949	65.2818	38.6404	-164.719	-0.035844	0.921454	-0.157667	-0.158998	-0.098500	65.2818	-0.156535	-23.7766	0.004143	NaN
13	1.000000	0.962826	7.36517e+06	-39289.1	955.819	-29795.1	0.000000	0.000000	6.963144	0.074345	NaN	0.000000	0.001604	0.001680	28.0808	0.089957	0.001909	47.1141	152.097	-165.021	0.088175	0.961481	-0.117626	-0.118972	0.074345	47.1141	-0.118810	-4.570912	-0.016265	NaN
13	1.000000	1.002844	7.36517e+06	-39289.1	955.819	-29795.1	0.000000	0.000000	7.003163	0.104934	NaN	0.000000	0.001626	0.001792	28.0797	0.082260	0.001965	41.8619	-130.989	-163.757	0.098029	1.001515	-0.077609	-0.078937	0.104934	41.8619	-0.079489	-0.601010	-0.174596	NaN
13	1.000000	1.042890	7.36517e+06	-39289.1	955.818	-29795.1	0.000000	0.000000	7.043204	-0.024125	NaN	0.000000	0.001625	0.001829	28.079	0.020050	0.002048	9.789049	-122.494	-167.724	-0.009723	1.041521	-0.037562	-0.038931	-0.024125	9.789049	-0.035714	-0.033618	0.717625	NaN
13	1.000000	1.082858	7.36517e+06	-39289.1	955.817	-29795.1	0.000000	0.000000	7.083178	0.110363	NaN	0.000000	0.001601	0.001792	28.0804	0.315828	0.001928	163.834	18.7428	-161.963	-0.029862	1.081588	0.002406	0.001135	0.110363	163.834	0.001901	0.001475	74.8364	3897.83
13	2.000000	1.100352	7.36517e+06	-39289.1	955.818	-29795.1	0.000000	0.000000	7.101396	17.7561	NaN	0.000000	0.001631	0.001774	28.0797	17.2213	0.001806	9536.46	9.548335	-179.802	17.0365	1.100087	0.019899	0.019634	17.7561	9536.46	0.018503	0.020244	877.106	61236.9
13	2.000000	1.110307	7.36517e+06	-39289.1	955.818	-29795.1	0.000000	0.000000	7.112645	49.2377	NaN	0.000000	0.001642	0.001801	28.0794	26.7296	0.001793	14911	5.399591	-178.686	47.1071	1.109995	0.029855	0.029542	49.2377	14911	0.027378	0.035484	1387.59	72320.6
13	2.000000	1.120292	7.36517e+06	-39289.1	955.817	-29795.1	0.000000	0.000000	7.124161	86.5091	NaN	0.000000	0.001568	0.001775	28.0805	36.7804	0.001841	19983	5.796126	178.141	84.811	1.120004	0.039839	0.039551	86.5091	19983	0.036592	0.055519	1558.2	77484.7
13	2.000000	1.130317	7.36517e+06	-39289.1	955.817	-29795.1	0.000000	0.000000	7.135127	109.401	NaN	0.000000	0.001527	0.001787	28.0808	46.909	0.001836	25544.1	3.297554	178.574	108.884	1.130162	0.049864	0.049710	109.401	25544.1	0.046652	0.082347	1328.53	81327.8
13	2.000000	1.140267	7.36517e+06	-39289.1	955.818	-29795.1	0.000000	0.000000	7.147145	159.717	NaN	0.000000	0.001511	0.001802	28.0801	54.9621	0.001849	29719.6	0.937093	-179.505	159.262	1.140165	0.059814	0.059712	159.717	29719.6	0.055784	0.111125	1437.28	81453.5
13	2.000000	1.150219	7.36517e+06	-39289.1	955.818	-29795.1	0.000000	0.000000	7.159036	206.893	NaN	0.000000	0.001563	0.001776	28.0808	62.8361	0.001820	34534.8	0.609476	179.711	201.878	1.149855	0.069767	0.069403	206.893	34534.8	0.065273	0.145394	1422.98	82747.9
13	2.000000	1.160173	7.36518e+06	-39289.1	955.817	-29795.1	0.000000	0.000000	7.171090	258.024	NaN	0.000000	0.001595	0.001795	28.0791	71.8822	0.001789	40178.3	3.003422	176.237	254.888	1.159996	0.079720	0.079543	258.024	40178.3	0.074904	0.184606	1397.7	85436.3
13	2.000000	1.170177	7.36518e+06	-39289.1	955.817	-29795.1	0.000000	0.000000	7.183907	326.449	NaN	0.000000	0.001593	0.001805	28.0796	81.2982	0.001815	44802.4	5.059866	173.215	323.033	1.169892	0.089725	0.089440	326.449	44802.4	0.084260	0.226885	1438.83	85935.3
13	2.000000	1.180235	7.36518e+06	-39289.1	955.816	-29795.1	0.000000	0.000000	7.196315	383.646	NaN	0.000000	0.001602	0.001762	28.0793	89.6292	0.001690	53025.2	2.183583	174.864	383.351	1.180040	0.099782	0.099587	383.646	53025.2	0.094356	0.277046	1384.77	92040.6
13	2.000000	1.190188	7.36518e+06	-39289.1	955.817	-29795.1	0.000000	0.000000	7.209478	461.761	NaN	0.000000	0.001612	0.001756	28.0811	99.0334	0.001682	58873.9	5.786830	170.43	458.139	1.189986	0.109736	0.109533	461.761	58873.9	0.103853	0.328482	1405.74	93851.3
13	2.000000	1.191208	7.36518e+06	-39289.1	955.817	-29795.1	0.000000	0.000000	7.210979	473.463	NaN	0.000000	0.001647	0.001787	28.1322	99.6395	0.001669	59704.9	4.487778	172.064	473.483	1.190867	0.110755	0.110414	473.463	59704.9	0.104808	0.333879	1418.07	94403.6