Folder: unikorn_login/remote_trans/data/nanoindenter/0828-1/data/Data_2025-08-06,11h17m57s (part 84)

File: 2025-07-22_16-23-58_1_185.txt
2025-07-22, 16:23:58, 1
Index	Phase	Displacement	Time	Pos X	Pos Y	Pos Z	Rot A	Rot B	Piezo Z	Force A	Force B	Gripper	Voltage A	Voltage B	Temperature	Amplitude force	Amplitude pos	Stiffness	Phase shift	Phase excitation	Force A raw	Displacement raw	HMax	HMax raw	Real Force	Real Stiffness	Contact Depth	Area	Hardness	Reduced Mod.
[#]	[#]	[um]	[s]	[um]	[um]	[um]	[m°]	[m°]	[um]	[uN]	[uN]	[V]	[V]	[V]	[°C]	[uN]	[um]	[N/m]	[°]	[°]	[uN]	[um]	[um]	[um]	[uN]	[N/m]	[um]	[um^2]	[MPa]	[MPa]
185	1.000000	0.002955	7.36685e+06	-47889.1	955.819	-29764.9	0.000000	0.000000	6.002837	0.035319	NaN	0.000000	0.001619	0.001678	28.0797	0.082615	0.001081	76.4516	-109.724	-169.56	0.031525	0.001698	-1.005758	-1.007016	0.035319	76.4516	-1.006105	-2.741282E+13	-1.288399E-15	NaN
185	1.000000	0.040902	7.36685e+06	-47889.1	955.818	-29764.9	0.000000	0.000000	6.040784	0.044116	NaN	0.000000	0.001577	0.001677	28.0799	0.057695	0.001901	30.3551	71.2557	16.385	-0.011425	0.039535	-0.967811	-0.969179	0.044116	30.3551	-0.968901	-8.646817E+12	-5.102009E-15	NaN
185	1.000000	0.078917	7.36685e+06	-47889.1	955.818	-29764.9	0.000000	0.000000	6.078795	-0.037891	NaN	0.000000	0.001594	0.001690	28.0782	0.123845	0.001995	62.0866	150.469	-162.457	0.081648	0.077598	-0.929797	-0.931116	-0.037891	62.0866	-0.929339	-2.530942E+12	1.497107E-14	NaN
185	1.000000	0.116910	7.36685e+06	-47889.1	955.819	-29764.9	0.000000	0.000000	6.116790	-0.008386	NaN	0.000000	0.001657	0.001687	28.0781	0.069929	0.002054	34.0475	36.9301	12.544	-0.016545	0.115457	-0.891803	-0.893257	-0.008386	34.0475	-0.891619	-7.830593E+11	1.070877E-14	NaN
185	1.000000	0.154933	7.36685e+06	-47889.1	955.819	-29764.9	0.000000	0.000000	6.154814	0.031103	NaN	0.000000	0.001645	0.001645	28.0783	0.013263	0.002044	6.489913	78.1358	-166.224	0.062274	0.153594	-0.853780	-0.855120	0.031103	6.489913	-0.857375	-2.695172E+11	-1.154014E-13	NaN
185	1.000000	0.192946	7.36685e+06	-47889.1	955.818	-29764.9	0.000000	0.000000	6.192826	-0.005180	NaN	0.000000	0.001667	0.001691	28.0798	0.056623	0.001938	29.211	-98.3004	16.101	-0.045233	0.191583	-0.815768	-0.817131	-0.005180	29.211	-0.815635	-7.328418E+10	7.068189E-14	NaN
185	1.000000	0.230908	7.36685e+06	-47889.1	955.818	-29764.9	0.000000	0.000000	6.230787	-0.001229	NaN	0.000000	0.001585	0.001704	28.0795	0.032123	0.002054	15.6383	-7.867135	-164.896	0.100413	0.229671	-0.777806	-0.779042	-0.001229	15.6383	-0.777747	-2.241894E+10	5.481774E-14	NaN
185	1.000000	0.268980	7.36685e+06	-47889.1	955.819	-29764.9	0.000000	0.000000	6.268859	-0.016520	NaN	0.000000	0.001634	0.001742	28.0793	0.058161	0.002041	28.501	-144.884	16.1529	0.013693	0.267564	-0.739734	-0.741150	-0.016520	28.501	-0.739299	-6.722244E+9	2.457545E-12	NaN
185	1.000000	0.306964	7.36685e+06	-47889.1	955.818	-29764.9	0.000000	0.000000	6.306845	0.018385	NaN	0.000000	0.001657	0.001682	28.0795	0.077285	0.002010	38.4571	166.621	-167.922	-0.034171	0.305650	-0.701749	-0.703064	0.018385	38.4571	-0.702108	-2.090819E+9	-8.793108E-12	NaN
185	1.000000	0.344973	7.36685e+06	-47889.1	955.818	-29764.9	0.000000	0.000000	6.344854	0.038861	NaN	0.000000	0.001671	0.001694	28.078	0.043756	0.001916	22.8423	102.237	17.9729	0.000766	0.343670	-0.663741	-0.665044	0.038861	22.8423	-0.665017	-6.503893E+8	-5.975076E-11	NaN
185	1.000000	0.383033	7.36685e+06	-47889.1	955.819	-29764.9	0.000000	0.000000	6.382912	-0.005897	NaN	0.000000	0.001655	0.001636	28.0784	0.092319	0.002059	44.8471	-36.5223	-165.149	-0.013949	0.381657	-0.625681	-0.627057	-0.005897	44.8471	-0.625583	-1.872181E+8	3.149583E-11	NaN
185	1.000000	0.421044	7.36685e+06	-47889.1	955.819	-29764.9	0.000000	0.000000	6.420925	0.025358	NaN	0.000000	0.001611	0.001700	28.0782	0.018125	0.002077	8.724667	155.853	15.2227	0.039347	0.419698	-0.587670	-0.589016	0.025358	8.724667	-0.589850	-6.033834E+7	-4.202612E-10	NaN
185	1.000000	0.459011	7.36685e+06	-47889.1	955.819	-29764.9	0.000000	0.000000	6.458892	0.033790	NaN	0.000000	0.001621	0.001692	28.0782	0.024066	0.002233	10.7757	-146.225	-164.226	0.025278	0.457727	-0.549702	-0.550987	0.033790	10.7757	-0.552054	-1.813037E+7	-1.863732E-9	NaN
185	1.000000	0.497090	7.36685e+06	-47889.1	955.819	-29764.9	0.000000	0.000000	6.496970	0.014501	NaN	0.000000	0.001633	0.001683	28.0794	0.079393	0.001989	39.9087	-33.9219	15.8149	0.006291	0.495709	-0.511624	-0.513005	0.014501	39.9087	-0.511896	-5.02141e+06	-2.887818E-9	NaN
185	1.000000	0.535075	7.36685e+06	-47889.1	955.819	-29764.9	0.000000	0.000000	6.534958	0.077097	NaN	0.000000	0.001680	0.001669	28.0796	0.054457	0.001997	27.2742	-174.674	-162.235	0.099283	0.533761	-0.473639	-0.474953	0.077097	27.2742	-0.475759	-1.57086e+06	-4.907966E-8	NaN
185	1.000000	0.573089	7.36685e+06	-47889.1	955.818	-29764.9	0.000000	0.000000	6.572971	0.031860	NaN	0.000000	0.001616	0.001711	28.0795	0.116423	0.002050	56.7876	132.005	15.5649	0.003881	0.571726	-0.435624	-0.436988	0.031860	56.7876	-0.436045	-434030	-7.340390E-8	NaN
185	1.000000	0.611085	7.36685e+06	-47889.1	955.818	-29764.9	0.000000	0.000000	6.610965	0.011619	NaN	0.000000	0.001614	0.001697	28.0784	0.019639	0.002031	9.668331	-77.7607	-168.32	0.060598	0.609774	-0.397629	-0.398940	0.011619	9.668331	-0.398531	-127360	-9.122581E-8	NaN
185	1.000000	0.649125	7.36685e+06	-47889.1	955.819	-29764.9	0.000000	0.000000	6.649004	-0.009624	NaN	0.000000	0.001580	0.001732	28.0788	0.015640	0.002029	7.706597	76.7367	13.65	-0.031563	0.647726	-0.359589	-0.360987	-0.009624	7.706597	-0.358652	-34068.8	2.824764E-7	NaN
185	1.000000	0.687158	7.36685e+06	-47889.1	955.818	-29764.9	0.000000	0.000000	6.687036	-0.033280	NaN	0.000000	0.001590	0.001721	28.0784	0.076604	0.001896	40.4078	-133.875	-163.628	-0.030156	0.685842	-0.321556	-0.322872	-0.033280	40.4078	-0.320938	-9603.88	3.465306E-6	NaN
185	1.000000	0.725167	7.36685e+06	-47889.1	955.819	-29764.9	0.000000	0.000000	6.725047	0.008177	NaN	0.000000	0.001659	0.001695	28.0785	0.007927	0.002037	3.892065	-149.349	12.1772	0.043888	0.723790	-0.283547	-0.284924	0.008177	3.892065	-0.285122	-2819.06	-2.900570E-6	NaN
185	1.000000	0.763167	7.36685e+06	-47889.1	955.819	-29764.9	0.000000	0.000000	6.763047	-0.000534	NaN	0.000000	0.001651	0.001694	28.0796	0.109321	0.002048	53.3874	-1.534201	-165.291	-0.029329	0.761861	-0.245546	-0.246853	-0.000534	53.3874	-0.245539	-701.171	7.619403E-7	NaN
185	1.000000	0.801201	7.36685e+06	-47889.1	955.82	-29764.9	0.000000	0.000000	6.801083	0.062025	NaN	0.000000	0.001575	0.001658	28.0798	0.139711	0.001984	70.4076	-161.547	15.8253	-0.032413	0.799838	-0.207513	-0.208876	0.062025	70.4076	-0.208174	-179.145	-0.000346	NaN
185	1.000000	0.839206	7.36686e+06	-47889.1	955.819	-29764.9	0.000000	0.000000	6.839089	0.092659	NaN	0.000000	0.001596	0.001721	28.0797	0.072846	0.001956	37.2367	95.6999	-164.034	0.006193	0.837857	-0.169508	-0.170857	0.092659	37.2367	-0.171375	-43.3957	-0.002135	NaN
185	1.000000	0.877235	7.36686e+06	-47889.1	955.818	-29764.9	0.000000	0.000000	6.877114	-0.033315	NaN	0.000000	0.001622	0.001744	28.0785	0.119820	0.002133	56.1877	145.18	15.0111	0.041726	0.875888	-0.131479	-0.132825	-0.033315	56.1877	-0.131034	-7.981021	0.004174	NaN
185	1.000000	0.915214	7.36686e+06	-47889.1	955.818	-29764.9	0.000000	0.000000	6.915095	0.029514	NaN	0.000000	0.001729	0.001747	28.0782	0.068202	0.002092	32.5948	-94.1508	-163.57	-0.060134	0.913931	-0.093500	-0.094783	0.029514	32.5948	-0.094179	-1.351017	-0.021846	NaN
185	1.000000	0.953250	7.36686e+06	-47889.1	955.818	-29764.9	0.000000	0.000000	6.953130	-0.000893	NaN	0.000000	0.001664	0.001687	28.0782	0.100761	0.001947	51.7583	-172.559	14.1633	0.051084	0.951885	-0.055464	-0.056829	-0.000893	51.7583	-0.055451	-0.132786	0.006722	NaN
185	1.000000	0.991275	7.36686e+06	-47889.1	955.817	-29764.9	0.000000	0.000000	6.991156	0.032546	NaN	0.000000	0.001695	0.001672	28.0786	0.043741	0.001900	23.0219	-48.68	-162.629	0.050367	0.989976	-0.017439	-0.018738	0.032546	23.0219	-0.018499	-0.011499	-2.830281	NaN
185	2.000000	1.021302	7.36686e+06	-47889.1	955.818	-29764.9	0.000000	0.000000	7.021798	14.9869	NaN	0.000000	0.001602	0.001671	28.08	13.0865	0.001776	7368.27	8.459376	5.384538	13.921	1.020947	0.012588	0.012234	14.9869	7368.27	0.011063	0.010387	1442.88	66053.7
185	2.000000	1.030803	7.36686e+06	-47889.1	955.818	-29764.9	0.000000	0.000000	7.032267	38.5385	NaN	0.000000	0.001668	0.001718	28.0801	23.5779	0.001767	13341.6	4.729978	-175.168	38.8493	1.030372	0.022089	0.021658	38.5385	13341.6	0.019923	0.022421	1718.83	81404.7
185	2.000000	1.040229	7.36686e+06	-47889.1	955.817	-29764.9	0.000000	0.000000	7.043066	71.9401	NaN	0.000000	0.001592	0.001684	28.0799	33.4958	0.001806	18543.2	3.840723	2.068571	72.0795	1.039804	0.031515	0.031090	71.9401	18543.2	0.028605	0.037903	1898.01	87020.8
185	2.000000	1.049695	7.36686e+06	-47889.1	955.818	-29764.9	0.000000	0.000000	7.054189	112.238	NaN	0.000000	0.001600	0.001744	28.0802	42.3641	0.001874	22601.7	6.718924	177.879	110.498	1.049304	0.040981	0.040591	112.238	22601.7	0.037257	0.057131	1964.56	86392.8
185	2.000000	1.059204	7.36686e+06	-47889.1	955.817	-29764.9	0.000000	0.000000	7.065526	156.674	NaN	0.000000	0.001595	0.001748	28.0787	51.2907	0.001769	28991.8	-0.384928	1.998703	156.352	1.058937	0.050491	0.050223	156.674	28991.8	0.046438	0.081721	1917.2	92657.9
185	2.000000	1.068624	7.36686e+06	-47889.1	955.818	-29764.9	0.000000	0.000000	7.077100	209.073	NaN	0.000000	0.001569	0.001699	28.0791	60.6937	0.001798	33747.6	3.778973	176.233	208.135	1.068361	0.059910	0.059647	209.073	33747.6	0.055264	0.109376	1911.52	93229.9
185	2.000000	1.078098	7.36686e+06	-47889.1	955.818	-29764.9	0.000000	0.000000	7.088752	262.062	NaN	0.000000	0.001607	0.001663	28.0788	70.1224	0.001824	38453	3.442428	-4.411204	256.972	1.077818	0.069384	0.069104	262.062	38453	0.064273	0.141576	1851.04	93370.4
185	2.000000	1.087776	7.36686e+06	-47889.1	955.816	-29764.9	0.000000	0.000000	7.101096	326.912	NaN	0.000000	0.001555	0.001678	28.0804	77.6544	0.001731	44867.5	2.071145	175.975	332.798	1.087428	0.079062	0.078714	326.912	44867.5	0.073597	0.179028	1826.04	96882.5
185	2.000000	1.097164	7.36686e+06	-47889.1	955.817	-29764.9	0.000000	0.000000	7.113314	395.74	NaN	0.000000	0.001670	0.001710	28.08	88.7792	0.001853	47900.7	5.684591	-7.113499	394.86	1.096562	0.088450	0.087848	395.74	47900.7	0.082254	0.217477	1819.69	93844.5
185	2.000000	1.106554	7.36686e+06	-47889.1	955.818	-29764.9	0.000000	0.000000	7.125617	466.609	NaN	0.000000	0.001643	0.001710	28.0801	95.9904	0.001804	53220.1	4.344838	172.569	463.523	1.106312	0.097840	0.097598	466.609	53220.1	0.091264	0.261187	1786.49	95142.2
185	2.000000	1.115941	7.36686e+06	-47889.1	955.816	-29764.9	0.000000	0.000000	7.138295	546.633	NaN	0.000000	0.001634	0.001732	28.0801	104.224	0.001793	58119.2	4.381695	-7.625461	535.657	1.115656	0.107227	0.106943	546.633	58119.2	0.100173	0.308064	1774.42	95669.3
185	2.000000	1.117089	7.36686e+06	-47889.1	955.818	-29764.9	0.000000	0.000000	7.139877	557.175	NaN	0.000000	0.001629	0.001723	28.08	106.259	0.001822	58308	6.468266	-9.666048	553.98	1.116751	0.108375	0.108037	557.175	58308	0.101209	0.313747	1775.87	95106.8

File: 2025-07-22_16-23-58_1_186.txt
2025-07-22, 16:23:58, 1
Index	Phase	Displacement	Time	Pos X	Pos Y	Pos Z	Rot A	Rot B	Piezo Z	Force A	Force B	Gripper	Voltage A	Voltage B	Temperature	Amplitude force	Amplitude pos	Stiffness	Phase shift	Phase excitation	Force A raw	Displacement raw	HMax	HMax raw	Real Force	Real Stiffness	Contact Depth	Area	Hardness	Reduced Mod.
[#]	[#]	[um]	[s]	[um]	[um]	[um]	[m°]	[m°]	[um]	[uN]	[uN]	[V]	[V]	[V]	[°C]	[uN]	[um]	[N/m]	[°]	[°]	[uN]	[um]	[um]	[um]	[uN]	[N/m]	[um]	[um^2]	[MPa]	[MPa]
186	1.000000	0.002412	7.36686e+06	-47939.1	955.818	-29764.7	0.000000	0.000000	6.002805	-0.010144	NaN	0.000000	0.001634	0.001689	28.0786	0.072864	0.000950	76.6779	52.0108	-168.479	0.069493	0.001170	-1.042514	-1.043756	-0.010144	76.6779	-1.042415	-8.441828E+13	1.201673E-16	NaN
186	1.000000	0.042353	7.36686e+06	-47939.1	955.819	-29764.7	0.000000	0.000000	6.042745	-0.034937	NaN	0.000000	0.001612	0.001678	28.0796	0.095674	0.001810	52.8519	36.0777	-164.178	-0.032871	0.041066	-1.002573	-1.003861	-0.034937	52.8519	-1.002077	-2.419547E+13	1.443959E-15	NaN
186	1.000000	0.082353	7.36686e+06	-47939.1	955.818	-29764.7	0.000000	0.000000	6.082746	0.006367	NaN	0.000000	0.001627	0.001674	28.0792	0.144146	0.001994	72.2733	116.715	-164.369	-0.013898	0.081059	-0.962573	-0.963868	0.006367	72.2733	-0.962639	-7.119526E+12	-8.942966E-16	NaN
186	1.000000	0.122373	7.36686e+06	-47939.1	955.818	-29764.7	0.000000	0.000000	6.122766	0.015007	NaN	0.000000	0.001640	0.001651	28.079	0.029479	0.001950	15.1183	-114.74	-161.847	-0.035123	0.121071	-0.922554	-0.923855	0.015007	15.1183	-0.923298	-2.097647E+12	-7.154389E-15	NaN
186	1.000000	0.162382	7.36686e+06	-47939.1	955.819	-29764.7	0.000000	0.000000	6.162775	0.001553	NaN	0.000000	0.001656	0.001642	28.0774	0.034335	0.002014	17.044	33.0195	-163.483	-0.026508	0.161058	-0.882544	-0.883868	0.001553	17.044	-0.882612	-5.916065E+11	-2.625534E-15	NaN
186	1.000000	0.202440	7.36686e+06	-47939.1	955.819	-29764.7	0.000000	0.000000	6.202831	-0.038266	NaN	0.000000	0.001579	0.001620	28.0771	0.104051	0.001983	52.4591	-172.025	-160.962	-0.040691	0.201113	-0.842486	-0.843814	-0.038266	52.4591	-0.841939	-1.665562E+11	2.297511E-13	NaN
186	1.000000	0.242439	7.36686e+06	-47939.1	955.82	-29764.7	0.000000	0.000000	6.242829	-0.065440	NaN	0.000000	0.001621	0.001661	28.0777	0.037745	0.002073	18.2042	16.5604	-163.61	-0.121904	0.241143	-0.802487	-0.803783	-0.065440	18.2042	-0.799791	-4.467140E+10	1.464929E-12	NaN
186	1.000000	0.282479	7.36686e+06	-47939.1	955.818	-29764.7	0.000000	0.000000	6.282871	-0.034985	NaN	0.000000	0.001603	0.001640	28.0789	0.027639	0.001897	14.5672	-51.1676	-163.448	-0.051091	0.281123	-0.762447	-0.763804	-0.034985	14.5672	-0.760646	-1.312461E+10	2.665622E-12	NaN
186	1.000000	0.322453	7.36686e+06	-47939.1	955.819	-29764.7	0.000000	0.000000	6.322845	-0.026563	NaN	0.000000	0.001562	0.001666	28.0788	0.025917	0.002017	12.8474	46.7042	-164.463	0.098788	0.321140	-0.722473	-0.723786	-0.026563	12.8474	-0.720923	-3.776204E+9	7.034398E-12	NaN
186	1.000000	0.362484	7.36686e+06	-47939.1	955.819	-29764.7	0.000000	0.000000	6.362881	0.080300	NaN	0.000000	0.001604	0.001647	28.0787	0.083862	0.002034	41.2319	-175.624	-163.993	0.000288	0.361199	-0.682442	-0.683728	0.080300	41.2319	-0.683902	-1.179150E+9	-6.809968E-11	NaN
186	1.000000	0.402504	7.36686e+06	-47939.1	955.818	-29764.7	0.000000	0.000000	6.402896	-0.015556	NaN	0.000000	0.001595	0.001658	28.0787	0.088641	0.001909	46.4242	123.036	-165.561	-0.022340	0.401205	-0.642422	-0.643721	-0.015556	46.4242	-0.642171	-3.162803E+8	4.918413E-11	NaN
186	1.000000	0.442539	7.36686e+06	-47939.1	955.82	-29764.7	0.000000	0.000000	6.442931	-0.012801	NaN	0.000000	0.001588	0.001619	28.0779	0.024780	0.002110	11.7425	15.8215	-166.715	0.020061	0.441206	-0.602387	-0.603720	-0.012801	11.7425	-0.601570	-8.751384E+7	1.462789E-10	NaN
186	1.000000	0.482565	7.36686e+06	-47939.1	955.82	-29764.7	0.000000	0.000000	6.482959	0.016846	NaN	0.000000	0.001502	0.001627	28.0779	0.061157	0.002074	29.4839	-69.7927	-165.834	0.006383	0.481262	-0.562361	-0.563664	0.016846	29.4839	-0.562790	-2.552481E+7	-6.599829E-10	NaN
186	1.000000	0.522577	7.36686e+06	-47939.1	955.819	-29764.7	0.000000	0.000000	6.522967	-0.058798	NaN	0.000000	0.001566	0.001600	28.078	0.098121	0.002033	48.2614	-153.019	-166.25	-0.063705	0.521349	-0.522350	-0.523577	-0.058798	48.2614	-0.521436	-6.81658e+06	8.625703E-9	NaN
186	1.000000	0.562574	7.36686e+06	-47939.1	955.819	-29764.7	0.000000	0.000000	6.562967	0.005536	NaN	0.000000	0.001574	0.001663	28.0791	0.033309	0.001912	17.4172	33.047	-163.886	-0.082634	0.561273	-0.482353	-0.483653	0.005536	17.4172	-0.482591	-1.9579e+06	-2.827572E-9	NaN
186	1.000000	0.602574	7.36686e+06	-47939.1	955.819	-29764.7	0.000000	0.000000	6.602965	-0.029933	NaN	0.000000	0.001552	0.001591	28.079	0.054353	0.001899	28.6193	-159.937	-164.461	0.013606	0.601281	-0.442352	-0.443645	-0.029933	28.6193	-0.441568	-519386	5.763225E-8	NaN
186	1.000000	0.642612	7.36686e+06	-47939.1	955.818	-29764.7	0.000000	0.000000	6.643001	-0.089562	NaN	0.000000	0.001638	0.001613	28.079	0.155974	0.002058	75.797	-132.636	-164.385	-0.053221	0.641315	-0.402315	-0.403612	-0.089562	75.797	-0.401428	-140075	6.393900E-7	NaN
186	1.000000	0.682627	7.36686e+06	-47939.1	955.818	-29764.7	0.000000	0.000000	6.683018	-0.041956	NaN	0.000000	0.001590	0.001619	28.0789	0.033541	0.002048	16.3798	95.1301	-165.991	-0.036951	0.681374	-0.362299	-0.363553	-0.041956	16.3798	-0.360378	-36083.5	1.162753E-6	NaN
186	1.000000	0.722660	7.36686e+06	-47939.1	955.82	-29764.7	0.000000	0.000000	6.723055	0.046128	NaN	0.000000	0.001586	0.001616	28.0777	0.103790	0.001950	53.2195	-93.3233	-166.647	-0.049205	0.721334	-0.322266	-0.323592	0.046128	53.2195	-0.322916	-10269.1	-4.491940E-6	NaN
186	1.000000	0.762661	7.36686e+06	-47939.1	955.819	-29764.7	0.000000	0.000000	6.763053	0.001690	NaN	0.000000	0.001579	0.001598	28.0777	0.137451	0.002058	66.7844	-38.916	-164.744	0.036198	0.761316	-0.282266	-0.283610	0.001690	66.7844	-0.282285	-2555.11	-6.615809E-7	NaN
186	1.000000	0.802681	7.36686e+06	-47939.1	955.818	-29764.7	0.000000	0.000000	6.803072	-0.045208	NaN	0.000000	0.001570	0.001661	28.0774	0.041214	0.002002	20.5873	140.846	-163.418	-0.002407	0.801345	-0.242245	-0.243582	-0.045208	20.5873	-0.240598	-587.348	7.696936E-5	NaN
186	1.000000	0.842688	7.36686e+06	-47939.1	955.818	-29764.7	0.000000	0.000000	6.843081	0.015158	NaN	0.000000	0.001563	0.001633	28.0787	0.058608	0.002017	29.0511	-117.106	-165.615	0.070075	0.841404	-0.202239	-0.203523	0.015158	29.0511	-0.202630	-145.49	-0.000104	NaN
186	1.000000	0.882728	7.36686e+06	-47939.1	955.819	-29764.7	0.000000	0.000000	6.883117	-0.092937	NaN	0.000000	0.001554	0.001656	28.0789	0.010998	0.001996	5.508612	-0.044881	-162.39	-0.065341	0.881408	-0.162198	-0.163518	-0.092937	5.508612	-0.149544	-17.7702	0.005230	NaN
186	1.000000	0.922712	7.36686e+06	-47939.1	955.819	-29764.7	0.000000	0.000000	6.923103	-0.032851	NaN	0.000000	0.001591	0.001700	28.0788	0.043222	0.001839	23.4983	153.556	-165.562	-0.020556	0.921391	-0.122215	-0.123535	-0.032851	23.4983	-0.121166	-5.099915	0.006441	NaN
186	1.000000	0.962739	7.36686e+06	-47939.1	955.819	-29764.7	0.000000	0.000000	6.963130	-0.035856	NaN	0.000000	0.001596	0.001684	28.0777	0.038672	0.001971	19.622	-114.592	-162.162	-0.065427	0.961414	-0.082188	-0.083513	-0.035856	19.622	-0.080817	-0.648734	0.055271	NaN
186	1.000000	1.002748	7.36687e+06	-47939.1	955.818	-29764.7	0.000000	0.000000	7.003139	-0.039254	NaN	0.000000	0.001593	0.001665	28.0775	0.092455	0.001930	47.9098	-143.38	-163.046	-0.026955	1.001466	-0.042179	-0.043460	-0.039254	47.9098	-0.041564	-0.050463	0.777873	NaN
186	1.000000	1.042760	7.36687e+06	-47939.1	955.818	-29764.7	0.000000	0.000000	7.043150	-0.058838	NaN	0.000000	0.001586	0.001644	28.0774	0.041172	0.002037	20.2075	-128.743	-162.318	-0.011915	1.041452	-0.002167	-0.003474	-0.058838	20.2075	1.708087E-5	1.276892E-5	-4607.9	5166.66
186	2.000000	1.063233	7.36687e+06	-47939.1	955.819	-29764.7	0.000000	0.000000	7.064502	21.3223	NaN	0.000000	0.001622	0.001657	28.0774	17.0036	0.001601	10621.2	1.868876	-173.339	20.7798	1.062965	0.018307	0.018039	21.3223	10621.2	0.016801	0.017763	1200.41	72810.7
186	2.000000	1.073159	7.36687e+06	-47939.1	955.819	-29764.7	0.000000	0.000000	7.075658	51.2294	NaN	0.000000	0.001591	0.001602	28.0786	28.511	0.001810	15753.4	3.663839	-177.662	50.075	1.072889	0.028233	0.027963	51.2294	15753.4	0.025794	0.032476	1577.44	79866.7
186	2.000000	1.083202	7.36687e+06	-47939.1	955.819	-29764.7	0.000000	0.000000	7.087297	90.0364	NaN	0.000000	0.001635	0.001621	28.0786	38.6128	0.001890	20432.9	0.519060	-175.624	92.2222	1.082845	0.038276	0.037919	90.0364	20432.9	0.034971	0.051679	1742.23	82119.6
186	2.000000	1.093154	7.36687e+06	-47939.1	955.819	-29764.7	0.000000	0.000000	7.099135	135.934	NaN	0.000000	0.001636	0.001666	28.0785	47.893	0.001778	26933.3	6.328768	176.187	134.846	1.092737	0.048227	0.047811	135.934	26933.3	0.044442	0.076011	1788.34	89253.2
186	2.000000	1.103105	7.36687e+06	-47939.1	955.819	-29764.7	0.000000	0.000000	7.110980	181.985	NaN	0.000000	0.001644	0.001571	28.0774	57.1127	0.001912	29864	4.394827	176.788	180.328	1.102793	0.058179	0.057867	181.985	29864	0.053609	0.103893	1751.65	84650
186	2.000000	1.113100	7.36687e+06	-47939.1	955.819	-29764.7	0.000000	0.000000	7.123198	236.059	NaN	0.000000	0.001586	0.001630	28.0775	65.4538	0.001825	35873.9	3.348191	176.333	234.222	1.112957	0.068173	0.068031	236.059	35873.9	0.063238	0.137676	1714.6	88333.1
186	2.000000	1.123072	7.36687e+06	-47939.1	955.819	-29764.7	0.000000	0.000000	7.136041	305.895	NaN	0.000000	0.001592	0.001651	28.0778	76.1947	0.001815	41981.8	3.935151	174.801	303.294	1.122780	0.078145	0.077853	305.895	41981.8	0.072681	0.175163	1746.35	91646
186	2.000000	1.133159	7.36687e+06	-47939.1	955.819	-29764.7	0.000000	0.000000	7.149086	377.837	NaN	0.000000	0.001580	0.001654	28.0776	86.0112	0.001713	50204.4	2.875297	174.282	378.393	1.132828	0.088233	0.087902	377.837	50204.4	0.082588	0.219030	1725.04	98008.3
186	2.000000	1.143060	7.36687e+06	-47939.1	955.819	-29764.7	0.000000	0.000000	7.162285	458.059	NaN	0.000000	0.001604	0.001648	28.079	96.9005	0.001696	57121.2	7.828899	167.979	455.593	1.142880	0.098134	0.097953	458.059	57121.2	0.092119	0.265530	1725.07	101278
186	2.000000	1.152977	7.36687e+06	-47939.1	955.82	-29764.7	0.000000	0.000000	7.176334	558.534	NaN	0.000000	0.001660	0.001623	28.0793	106.628	0.001900	56128.5	4.425707	172.497	553.785	1.152810	0.108051	0.107883	558.534	56128.5	0.100588	0.310335	1799.78	92053.7
186	2.000000	1.155160	7.36687e+06	-47939.1	955.82	-29764.7	0.000000	0.000000	7.179196	575.078	NaN	0.000000	0.001619	0.001613	28.0789	107.62	0.001838	58546.3	7.371418	169.178	581.06	1.154730	0.110233	0.109803	575.078	58546.3	0.102866	0.322947	1780.72	94125.5