Folder: unikorn_login/remote_trans/data/nanoindenter/0828-1/data/Data_2025-08-06,11h17m57s (part 102)

File: 2025-07-22_16-23-58_1_221.txt
2025-07-22, 16:23:58, 1
Index	Phase	Displacement	Time	Pos X	Pos Y	Pos Z	Rot A	Rot B	Piezo Z	Force A	Force B	Gripper	Voltage A	Voltage B	Temperature	Amplitude force	Amplitude pos	Stiffness	Phase shift	Phase excitation	Force A raw	Displacement raw	HMax	HMax raw	Real Force	Real Stiffness	Contact Depth	Area	Hardness	Reduced Mod.
[#]	[#]	[um]	[s]	[um]	[um]	[um]	[m°]	[m°]	[um]	[uN]	[uN]	[V]	[V]	[V]	[°C]	[uN]	[um]	[N/m]	[°]	[°]	[uN]	[um]	[um]	[um]	[uN]	[N/m]	[um]	[um^2]	[MPa]	[MPa]
221	1.000000	0.002409	7.36721e+06	-49689.1	955.819	-29758.3	0.000000	0.000000	6.002804	0.056810	NaN	0.000000	0.001633	0.001723	28.0779	0.061317	0.001055	58.1373	25.9305	-167.591	0.060051	0.001114	-1.161161	-1.162457	0.056810	58.1373	-1.161894	-3.390434E+15	-1.675611E-17	NaN
221	1.000000	0.046351	7.36721e+06	-49689.1	955.818	-29758.3	0.000000	0.000000	6.046745	0.027242	NaN	0.000000	0.001603	0.001729	28.0798	0.069305	0.002040	33.9689	-52.4319	-164.765	-0.027934	0.045081	-1.117220	-1.118490	0.027242	33.9689	-1.117821	-8.694452E+14	-3.133284E-17	NaN
221	1.000000	0.090366	7.36721e+06	-49689.1	955.818	-29758.3	0.000000	0.000000	6.090763	0.093055	NaN	0.000000	0.001601	0.001721	28.079	0.065431	0.001961	33.3639	-60.9675	-166.433	0.078307	0.089091	-1.073205	-1.074480	0.093055	33.3639	-1.075296	-2.335286E+14	-3.984720E-16	NaN
221	1.000000	0.134389	7.36721e+06	-49689.1	955.819	-29758.4	0.000000	0.000000	6.134781	-0.035035	NaN	0.000000	0.001651	0.001699	28.0791	0.030973	0.001957	15.8288	174.116	-165.029	-0.054616	0.133070	-1.029181	-1.030501	-0.035035	15.8288	-1.027521	-5.322776E+13	6.582018E-16	NaN
221	1.000000	0.178396	7.36721e+06	-49689.1	955.818	-29758.4	0.000000	0.000000	6.178790	0.035112	NaN	0.000000	0.001609	0.001658	28.0792	0.071243	0.001941	36.6981	111.718	-166.067	0.069163	0.177128	-0.985174	-0.986443	0.035112	36.6981	-0.985892	-1.464811E+13	-2.397053E-15	NaN
221	1.000000	0.222444	7.36721e+06	-49689.1	955.818	-29758.4	0.000000	0.000000	6.222834	-0.058400	NaN	0.000000	0.001735	0.001665	28.0777	0.104835	0.002016	51.9947	41.979	-164.659	-0.082826	0.221157	-0.941126	-0.942414	-0.058400	51.9947	-0.940284	-3.556065E+12	1.642269E-14	NaN
221	1.000000	0.266444	7.36721e+06	-49689.1	955.818	-29758.4	0.000000	0.000000	6.266834	-0.049929	NaN	0.000000	0.001706	0.001717	28.0775	0.105345	0.001931	54.5522	-141.173	-163.052	-0.015756	0.265129	-0.897127	-0.898442	-0.049929	54.5522	-0.896441	-9.098431E+11	5.487617E-14	NaN
221	1.000000	0.310449	7.36721e+06	-49689.1	955.818	-29758.4	0.000000	0.000000	6.310843	0.016580	NaN	0.000000	0.001633	0.001653	28.0774	0.057075	0.001968	28.9947	-32.742	-166.749	0.009749	0.309101	-0.853121	-0.854470	0.016580	28.9947	-0.853550	-2.392250E+11	-6.930613E-14	NaN
221	1.000000	0.354491	7.36721e+06	-49689.1	955.819	-29758.4	0.000000	0.000000	6.354888	0.106497	NaN	0.000000	0.001627	0.001710	28.0789	0.025292	0.001906	13.2699	-63.4432	-165.258	0.023531	0.353149	-0.809080	-0.810422	0.106497	13.2699	-0.815099	-7.206773E+10	-1.477733E-12	NaN
221	1.000000	0.398500	7.36721e+06	-49689.1	955.818	-29758.4	0.000000	0.000000	6.398894	0.046262	NaN	0.000000	0.001608	0.001684	28.0789	0.049237	0.002025	24.3185	111.457	-162.691	-0.024268	0.397178	-0.765071	-0.766392	0.046262	24.3185	-0.766498	-1.576452E+10	-2.934565E-12	NaN
221	1.000000	0.442511	7.36721e+06	-49689.1	955.818	-29758.4	0.000000	0.000000	6.442907	0.091615	NaN	0.000000	0.001614	0.001674	28.0781	0.014409	0.001958	7.358705	-67.5113	-167.548	-0.013231	0.441210	-0.721060	-0.722360	0.091615	7.358705	-0.730397	-5.084234E+9	-1.801948E-11	NaN
221	1.000000	0.486555	7.36721e+06	-49689.1	955.819	-29758.4	0.000000	0.000000	6.486947	-0.030021	NaN	0.000000	0.001604	0.001676	28.0789	0.106920	0.001996	53.5749	171.856	-166.792	-0.063355	0.485245	-0.677015	-0.678325	-0.030021	53.5749	-0.676595	-9.367642E+8	3.204736E-11	NaN
221	1.000000	0.530553	7.36721e+06	-49689.1	955.819	-29758.4	0.000000	0.000000	6.530944	-0.048113	NaN	0.000000	0.001599	0.001693	28.0776	0.132661	0.002031	65.3254	127.787	-169.278	-0.057631	0.529257	-0.633017	-0.634314	-0.048113	65.3254	-0.632465	-2.327392E+8	2.067269E-10	NaN
221	1.000000	0.574586	7.36721e+06	-49689.1	955.818	-29758.4	0.000000	0.000000	6.574978	-0.016182	NaN	0.000000	0.001641	0.001723	28.0775	0.081868	0.002063	39.6832	104.29	-162.802	0.004091	0.573309	-0.588985	-0.590261	-0.016182	39.6832	-0.588679	-5.813708E+7	2.783380E-10	NaN
221	1.000000	0.618631	7.36721e+06	-49689.1	955.818	-29758.4	0.000000	0.000000	6.619023	-0.001104	NaN	0.000000	0.001607	0.001705	28.0788	0.134350	0.002104	63.8577	82.3713	-164.506	-0.005495	0.617255	-0.544940	-0.546316	-0.001104	63.8577	-0.544927	-1.444339E+7	7.643035E-11	NaN
221	1.000000	0.662613	7.36721e+06	-49689.1	955.817	-29758.4	0.000000	0.000000	6.663005	0.004103	NaN	0.000000	0.001582	0.001686	28.0786	0.115939	0.002001	57.9322	6.032848	-166.225	0.042829	0.661301	-0.500958	-0.502270	0.004103	57.9322	-0.501011	-3.54098e+06	-1.158610E-9	NaN
221	1.000000	0.706632	7.36721e+06	-49689.1	955.818	-29758.4	0.000000	0.000000	6.707025	0.008023	NaN	0.000000	0.001610	0.001641	28.0786	0.137108	0.002030	67.5296	-135.137	-166.156	0.012778	0.705357	-0.456939	-0.458214	0.008023	67.5296	-0.457028	-857508	-9.355680E-9	NaN
221	1.000000	0.750646	7.36721e+06	-49689.1	955.818	-29758.4	0.000000	0.000000	6.751040	0.044725	NaN	0.000000	0.001577	0.001675	28.0779	0.116034	0.001994	58.1913	168.54	-166.016	-0.032476	0.749374	-0.412925	-0.414197	0.044725	58.1913	-0.413501	-208050	-2.149746E-7	NaN
221	1.000000	0.794664	7.36721e+06	-49689.1	955.818	-29758.4	0.000000	0.000000	6.795057	-0.001977	NaN	0.000000	0.001551	0.001666	28.0778	0.110197	0.001915	57.5435	93.9505	-165.967	0.058026	0.793356	-0.368907	-0.370215	-0.001977	57.5435	-0.368881	-47863.9	4.130950E-8	NaN
221	1.000000	0.838692	7.36721e+06	-49689.1	955.818	-29758.4	0.000000	0.000000	6.839085	0.003416	NaN	0.000000	0.001561	0.001714	28.0775	0.078768	0.001802	43.7157	147.852	-166.047	-0.037622	0.837417	-0.324878	-0.326154	0.003416	43.7157	-0.324937	-10995.4	-3.107198E-7	NaN
221	1.000000	0.882727	7.36721e+06	-49689.1	955.817	-29758.4	0.000000	0.000000	6.883122	0.063063	NaN	0.000000	0.001575	0.001696	28.0787	0.075143	0.002058	36.513	-159.135	-163.781	-0.006825	0.881409	-0.280844	-0.282161	0.063063	36.513	-0.282139	-2542.26	-2.480573E-5	NaN
221	1.000000	0.926742	7.36721e+06	-49689.1	955.818	-29758.4	0.000000	0.000000	6.927134	-0.030853	NaN	0.000000	0.001633	0.001675	28.0789	0.011119	0.001966	5.656223	81.6453	-164.648	0.032398	0.925390	-0.236828	-0.238181	-0.030853	5.656223	-0.232737	-442.255	6.976321E-5	NaN
221	1.000000	0.970722	7.36721e+06	-49689.1	955.817	-29758.4	0.000000	0.000000	6.971116	0.015660	NaN	0.000000	0.001556	0.001669	28.0789	0.050753	0.001999	25.384	-171.608	-169.491	-0.013008	0.969491	-0.192848	-0.194079	0.015660	25.384	-0.193311	-102.136	-0.000153	NaN
221	1.000000	1.014798	7.36721e+06	-49689.1	955.817	-29758.4	0.000000	0.000000	7.015192	0.025795	NaN	0.000000	0.001568	0.001726	28.0774	0.086968	0.002013	43.1962	158.987	-163.744	0.047737	1.013483	-0.148773	-0.150087	0.025795	43.1962	-0.149220	-17.5295	-0.001472	NaN
221	1.000000	1.058781	7.36721e+06	-49689.1	955.818	-29758.4	0.000000	0.000000	7.059174	0.014499	NaN	0.000000	0.001556	0.001742	28.0775	0.035933	0.001932	18.5998	-63.3009	-164.66	0.063263	1.057449	-0.104789	-0.106122	0.014499	18.5998	-0.105374	-2.394679	-0.006055	NaN
221	1.000000	1.102803	7.36721e+06	-49689.1	955.817	-29758.4	0.000000	0.000000	7.103195	-0.002454	NaN	0.000000	0.001564	0.001649	28.0774	0.151921	0.001960	77.5239	-140.248	-165.071	0.018338	1.101530	-0.060768	-0.062041	-0.002454	77.5239	-0.060744	-0.189144	0.012976	NaN
221	1.000000	1.146819	7.36721e+06	-49689.1	955.817	-29758.4	0.000000	0.000000	7.147209	-0.080051	NaN	0.000000	0.001557	0.001662	28.0789	0.062430	0.001919	32.527	149.181	-165.641	-0.021873	1.145548	-0.016751	-0.018022	-0.080051	32.527	-0.014905	-0.009219	8.683439	NaN
221	2.000000	1.179333	7.36721e+06	-49689.1	955.818	-29758.4	0.000000	0.000000	7.180285	13.6084	NaN	0.000000	0.001641	0.001669	28.0787	12.4597	0.001638	7605.26	4.279510	-171.662	13.5752	1.179086	0.015762	0.015516	13.6084	7605.26	0.014420	0.014520	937.192	57663.2
221	2.000000	1.190292	7.36721e+06	-49689.1	955.817	-29758.4	0.000000	0.000000	7.192381	41.246	NaN	0.000000	0.001570	0.001681	28.0789	25.4436	0.001811	14046.3	8.310518	179.073	41.287	1.189892	0.026722	0.026321	41.246	14046.3	0.024519	0.030147	1368.16	73911.6
221	2.000000	1.201197	7.36721e+06	-49689.1	955.817	-29758.4	0.000000	0.000000	7.204922	81.0317	NaN	0.000000	0.001578	0.001688	28.0778	34.5406	0.001684	20511.1	3.424267	-178.583	78.3745	1.200846	0.037627	0.037276	81.0317	20511.1	0.034664	0.050965	1589.93	83009
221	2.000000	1.212168	7.36721e+06	-49689.1	955.818	-29758.4	0.000000	0.000000	7.217647	123.71	NaN	0.000000	0.001570	0.001670	28.078	46.0411	0.001703	27034.7	1.379885	-179.408	120.573	1.211931	0.048597	0.048361	123.71	27034.7	0.045165	0.078056	1584.89	88407.7
221	2.000000	1.223207	7.36721e+06	-49689.1	955.818	-29758.4	0.000000	0.000000	7.230604	170.339	NaN	0.000000	0.001582	0.001743	28.0782	57.7341	0.001827	31606.8	2.060797	178.811	167.436	1.222919	0.059636	0.059349	170.339	31606.8	0.055594	0.110485	1541.74	86876.3
221	2.000000	1.234105	7.36721e+06	-49689.1	955.819	-29758.4	0.000000	0.000000	7.244297	238.311	NaN	0.000000	0.001572	0.001745	28.079	67.5437	0.001854	36438.9	2.458803	177.66	232.401	1.233839	0.070534	0.070268	238.311	36438.9	0.065629	0.146765	1623.76	86901.6
221	2.000000	1.245128	7.36721e+06	-49689.1	955.818	-29758.4	0.000000	0.000000	7.258438	314.136	NaN	0.000000	0.001541	0.001718	28.0793	80.0757	0.001660	48233.2	6.147679	172.128	310.472	1.244771	0.081558	0.081200	314.136	48233.2	0.076673	0.192288	1633.68	100495
221	2.000000	1.256194	7.36721e+06	-49689.1	955.819	-29758.4	0.000000	0.000000	7.272624	390.01	NaN	0.000000	0.001550	0.001714	28.0794	91.1607	0.001833	49734.9	3.745873	173.835	391.7	1.255916	0.092624	0.092345	390.01	49734.9	0.086742	0.238783	1633.32	92989.1
221	2.000000	1.267217	7.36721e+06	-49689.1	955.82	-29758.4	0.000000	0.000000	7.287431	482.061	NaN	0.000000	0.001554	0.001670	28.0791	100.422	0.001790	56115.2	4.486463	172.119	483.779	1.266948	0.103646	0.103377	482.061	56115.2	0.097203	0.292034	1650.7	94871.7
221	2.000000	1.274154	7.36721e+06	-49689.1	955.819	-29758.4	0.000000	0.000000	7.297117	548.9	NaN	0.000000	0.001548	0.001673	28.0779	108.405	0.001838	58966.8	7.684481	169.22	547.95	1.273740	0.110583	0.110170	548.9	58966.8	0.103602	0.327067	1678.25	94202.5

File: 2025-07-22_16-23-58_1_222.txt
2025-07-22, 16:23:58, 1
Index	Phase	Displacement	Time	Pos X	Pos Y	Pos Z	Rot A	Rot B	Piezo Z	Force A	Force B	Gripper	Voltage A	Voltage B	Temperature	Amplitude force	Amplitude pos	Stiffness	Phase shift	Phase excitation	Force A raw	Displacement raw	HMax	HMax raw	Real Force	Real Stiffness	Contact Depth	Area	Hardness	Reduced Mod.
[#]	[#]	[um]	[s]	[um]	[um]	[um]	[m°]	[m°]	[um]	[uN]	[uN]	[V]	[V]	[V]	[°C]	[uN]	[um]	[N/m]	[°]	[°]	[uN]	[um]	[um]	[um]	[uN]	[N/m]	[um]	[um^2]	[MPa]	[MPa]
222	1.000000	0.002883	7.36722e+06	-49739.1	955.818	-29758.3	0.000000	0.000000	6.002817	-0.036544	NaN	0.000000	0.001551	0.001722	28.08	0.037422	0.000935	40.0226	-77.1921	-161.328	-0.003283	0.001575	-1.014487	-1.015795	-0.036544	40.0226	-1.013802	-3.479749E+13	1.050205E-15	NaN
222	1.000000	0.042823	7.36722e+06	-49739.1	955.819	-29758.3	0.000000	0.000000	6.042756	-0.046447	NaN	0.000000	0.001566	0.001710	28.08	0.097830	0.001954	50.0564	19.5993	-164.484	-0.010081	0.041492	-0.974547	-0.975877	-0.046447	50.0564	-0.973851	-1.008223E+13	4.606798E-15	NaN
222	1.000000	0.082810	7.36722e+06	-49739.1	955.817	-29758.3	0.000000	0.000000	6.082745	0.001858	NaN	0.000000	0.001628	0.001675	28.08	0.080960	0.002021	40.0503	108.25	-166.579	-0.079620	0.081494	-0.934560	-0.935876	0.001858	40.0503	-0.934594	-2.979884E+12	-6.235434E-16	NaN
222	1.000000	0.122849	7.36722e+06	-49739.1	955.819	-29758.3	0.000000	0.000000	6.122784	-0.018637	NaN	0.000000	0.001579	0.001667	28.0789	0.084160	0.001851	45.4646	16.9777	-161.431	-0.047447	0.121495	-0.894520	-0.895874	-0.018637	45.4646	-0.894213	-8.488970E+11	2.195405E-14	NaN
222	1.000000	0.162838	7.36722e+06	-49739.1	955.818	-29758.3	0.000000	0.000000	6.162775	0.032649	NaN	0.000000	0.001585	0.001675	28.0791	0.039641	0.001946	20.3697	-81.329	-167.36	-0.000409	0.161555	-0.854531	-0.855814	0.032649	20.3697	-0.855733	-2.560707E+11	-1.274993E-13	NaN
222	1.000000	0.202867	7.36722e+06	-49739.1	955.818	-29758.3	0.000000	0.000000	6.202805	0.043967	NaN	0.000000	0.001606	0.001738	28.0794	0.099644	0.001982	50.2712	-84.0942	-164.461	0.094869	0.201536	-0.814502	-0.815834	0.043967	50.2712	-0.815158	-7.220066E+10	-6.089526E-13	NaN
222	1.000000	0.242885	7.36722e+06	-49739.1	955.819	-29758.3	0.000000	0.000000	6.242818	-0.052326	NaN	0.000000	0.001695	0.001741	28.0806	0.067102	0.001940	34.58	8.358758	-166.195	-0.019514	0.241566	-0.774485	-0.775803	-0.052326	34.58	-0.773350	-1.953653E+10	2.678345E-12	NaN
222	1.000000	0.282913	7.36722e+06	-49739.1	955.818	-29758.4	0.000000	0.000000	6.282848	-0.010236	NaN	0.000000	0.001665	0.001673	28.0801	0.068409	0.002160	31.6677	95.4567	-165.775	0.002400	0.281637	-0.734457	-0.735732	-0.010236	31.6677	-0.734214	-5.731060E+9	1.786127E-12	NaN
222	1.000000	0.322933	7.36722e+06	-49739.1	955.819	-29758.4	0.000000	0.000000	6.322869	0.006399	NaN	0.000000	0.001693	0.001704	28.0801	0.013967	0.001937	7.212265	138.624	-162.048	-0.013940	0.321647	-0.694436	-0.695722	0.006399	7.212265	-0.695101	-1.677347E+9	-3.815247E-12	NaN
222	1.000000	0.362919	7.36722e+06	-49739.1	955.819	-29758.4	0.000000	0.000000	6.362854	-0.007296	NaN	0.000000	0.001645	0.001703	28.0804	0.113419	0.001964	57.7369	-166.064	-165.995	-0.037137	0.361588	-0.654450	-0.655781	-0.007296	57.7369	-0.654356	-4.646613E+8	1.570203E-11	NaN
222	1.000000	0.402976	7.36722e+06	-49739.1	955.819	-29758.4	0.000000	0.000000	6.402910	-0.031061	NaN	0.000000	0.001653	0.001708	28.0789	0.082669	0.002117	39.0447	171.177	-163.684	0.040975	0.401667	-0.614393	-0.615703	-0.031061	39.0447	-0.613797	-1.289270E+8	2.409161E-10	NaN
222	1.000000	0.442982	7.36722e+06	-49739.1	955.819	-29758.4	0.000000	0.000000	6.442915	-0.059054	NaN	0.000000	0.001696	0.001679	28.079	0.015086	0.001985	7.599416	-95.0086	-167.902	0.063149	0.441610	-0.574387	-0.575759	-0.059054	7.599416	-0.568559	-3.067022E+7	1.925436E-9	NaN
222	1.000000	0.483008	7.36722e+06	-49739.1	955.819	-29758.4	0.000000	0.000000	6.482940	-0.069927	NaN	0.000000	0.001599	0.001681	28.0788	0.071552	0.002054	34.8372	-63.763	-163.018	-0.084725	0.481726	-0.534362	-0.535644	-0.069927	34.8372	-0.532856	-9.82272e+06	7.118895E-9	NaN
222	1.000000	0.523013	7.36722e+06	-49739.1	955.818	-29758.4	0.000000	0.000000	6.522946	-0.070056	NaN	0.000000	0.001619	0.001672	28.0802	0.017555	0.002049	8.569334	-96.2452	-163.92	-0.140269	0.521702	-0.494356	-0.495667	-0.070056	8.569334	-0.488225	-2.34739e+06	2.984407E-8	NaN
222	1.000000	0.563023	7.36722e+06	-49739.1	955.819	-29758.4	0.000000	0.000000	6.562957	-0.026138	NaN	0.000000	0.001636	0.001707	28.0802	0.105795	0.002079	50.8826	-67.7966	-164.183	-0.019982	0.561745	-0.454346	-0.455625	-0.026138	50.8826	-0.453961	-776430	3.366481E-8	NaN
222	1.000000	0.603042	7.36722e+06	-49739.1	955.818	-29758.4	0.000000	0.000000	6.602978	0.019004	NaN	0.000000	0.001621	0.001715	28.0802	0.023579	0.001892	12.4615	41.0375	-167.316	0.008873	0.601677	-0.414327	-0.415692	0.019004	12.4615	-0.415471	-221895	-8.564412E-8	NaN
222	1.000000	0.643062	7.36722e+06	-49739.1	955.819	-29758.4	0.000000	0.000000	6.642997	-0.011545	NaN	0.000000	0.001655	0.001733	28.0803	0.129982	0.002012	64.5879	68.7426	-164.183	0.010720	0.641739	-0.374307	-0.375630	-0.011545	64.5879	-0.374173	-57039.8	2.024104E-7	NaN
222	1.000000	0.683098	7.36722e+06	-49739.1	955.819	-29758.4	0.000000	0.000000	6.683030	-0.066245	NaN	0.000000	0.001578	0.001717	28.0794	0.076809	0.001953	39.3247	-25.1901	-165.371	-0.022787	0.681758	-0.334272	-0.335611	-0.066245	39.3247	-0.333008	-14436.9	4.588608E-6	NaN
222	1.000000	0.723122	7.36722e+06	-49739.1	955.819	-29758.4	0.000000	0.000000	6.723057	-0.007863	NaN	0.000000	0.001610	0.001680	28.0792	0.033181	0.002106	15.7569	76.8615	-164.318	-0.015182	0.721802	-0.294247	-0.295567	-0.007863	15.7569	-0.293873	-3812.88	2.062102E-6	NaN
222	1.000000	0.763127	7.36722e+06	-49739.1	955.818	-29758.4	0.000000	0.000000	6.763063	0.023001	NaN	0.000000	0.001597	0.001689	28.079	0.055085	0.001971	27.9518	174.238	-164.237	0.080434	0.761738	-0.254242	-0.255631	0.023001	27.9518	-0.254859	-977.129	-2.353959E-5	NaN
222	1.000000	0.803128	7.36722e+06	-49739.1	955.819	-29758.4	0.000000	0.000000	6.803064	0.013486	NaN	0.000000	0.001619	0.001728	28.0802	0.033808	0.002043	16.5464	60.4033	-164.935	-0.047175	0.801803	-0.214241	-0.215566	0.013486	16.5464	-0.214853	-229.691	-5.871235E-5	NaN
222	1.000000	0.843171	7.36722e+06	-49739.1	955.817	-29758.4	0.000000	0.000000	6.843109	0.055080	NaN	0.000000	0.001601	0.001751	28.0803	0.022629	0.002011	11.2544	-127.574	-168.929	-0.007640	0.841885	-0.174198	-0.175485	0.055080	11.2544	-0.177868	-56.1211	-0.000981	NaN
222	1.000000	0.883168	7.36722e+06	-49739.1	955.818	-29758.4	0.000000	0.000000	6.883105	0.024922	NaN	0.000000	0.001589	0.001715	28.0803	0.054771	0.001938	28.2642	150.651	-165.863	-0.033740	0.881889	-0.134201	-0.135480	0.024922	28.2642	-0.134863	-9.455074	-0.002636	NaN
222	1.000000	0.923167	7.36722e+06	-49739.1	955.817	-29758.4	0.000000	0.000000	6.923104	0.017262	NaN	0.000000	0.001571	0.001696	28.0795	0.079453	0.002035	39.044	-27.8261	-168.408	-0.014714	0.921858	-0.094202	-0.095511	0.017262	39.044	-0.094534	-1.376489	-0.012541	NaN
222	1.000000	0.963189	7.36722e+06	-49739.1	955.818	-29758.4	0.000000	0.000000	6.963122	-0.058749	NaN	0.000000	0.001652	0.001714	28.0792	0.094549	0.001969	48.0066	-25.6518	-161.734	-0.084552	0.961890	-0.054180	-0.055480	-0.058749	48.0066	-0.053262	-0.114352	0.513757	NaN
222	1.000000	1.003216	7.36722e+06	-49739.1	955.818	-29758.4	0.000000	0.000000	7.003151	-0.031959	NaN	0.000000	0.001601	0.001698	28.0791	0.050000	0.001907	26.2169	100.16	-166.793	-0.035196	1.001902	-0.014153	-0.015468	-0.031959	26.2169	-0.013239	-0.008240	3.878481	NaN
222	2.000000	1.031757	7.36722e+06	-49739.1	955.818	-29758.4	0.000000	0.000000	7.032247	13.4866	NaN	0.000000	0.001622	0.001677	28.0791	13.9906	0.001803	7758.93	7.398863	-173.368	13.4219	1.031456	0.014388	0.014086	13.4866	7758.93	0.013084	0.012815	1052.4	62620.4
222	2.000000	1.041673	7.36722e+06	-49739.1	955.818	-29758.4	0.000000	0.000000	7.043245	39.8168	NaN	0.000000	0.001599	0.001698	28.0804	25.432	0.001770	14367	10.0816	177.548	38.9628	1.041317	0.024303	0.023948	39.8168	14367	0.022225	0.026160	1522.07	81156.3
222	2.000000	1.051614	7.36722e+06	-49739.1	955.82	-29758.4	0.000000	0.000000	7.054507	71.9333	NaN	0.000000	0.001580	0.001653	28.0802	35.0978	0.001851	18963.8	5.580407	179.557	69.957	1.051298	0.034245	0.033929	71.9333	18963.8	0.031400	0.043695	1646.27	82886.6
222	2.000000	1.061626	7.36722e+06	-49739.1	955.819	-29758.4	0.000000	0.000000	7.065887	105.184	NaN	0.000000	0.001595	0.001659	28.0803	44.9147	0.001800	24947.6	3.141162	179.044	103.925	1.061382	0.044257	0.044013	105.184	24947.6	0.041095	0.066889	1572.53	88130.3
222	2.000000	1.071558	7.36722e+06	-49739.1	955.819	-29758.4	0.000000	0.000000	7.077946	156.931	NaN	0.000000	0.001554	0.001636	28.0792	54.7411	0.001821	30059.6	4.712810	176.309	153.505	1.071306	0.054189	0.053937	156.931	30059.6	0.050273	0.093260	1682.73	89931.2
222	2.000000	1.081665	7.36722e+06	-49739.1	955.819	-29758.4	0.000000	0.000000	7.090194	208.986	NaN	0.000000	0.001591	0.001644	28.0794	64.9918	0.001860	34932.5	5.901060	173.773	211.359	1.081312	0.064296	0.063942	208.986	34932.5	0.059809	0.125123	1670.25	90226.7
222	2.000000	1.091507	7.36722e+06	-49739.1	955.819	-29758.4	0.000000	0.000000	7.102822	276.761	NaN	0.000000	0.001597	0.001677	28.0793	74.8971	0.001871	40021.1	7.881599	170.722	272.176	1.091207	0.074137	0.073838	276.761	40021.1	0.068951	0.159847	1731.42	91455.8
222	2.000000	1.101544	7.36722e+06	-49739.1	955.819	-29758.4	0.000000	0.000000	7.115776	347.698	NaN	0.000000	0.001584	0.001683	28.0791	84.7212	0.001859	45579.8	4.927591	173.841	343.493	1.101093	0.084174	0.083723	347.698	45579.8	0.078453	0.200164	1737.07	93079.2
222	2.000000	1.111469	7.36722e+06	-49739.1	955.819	-29758.4	0.000000	0.000000	7.128923	426.044	NaN	0.000000	0.001606	0.001684	28.0807	92.7027	0.001825	50808.3	5.781105	171.554	420.157	1.111257	0.094099	0.093888	426.044	50808.3	0.087811	0.243991	1746.15	93976.8
222	2.000000	1.121578	7.36722e+06	-49739.1	955.819	-29758.4	0.000000	0.000000	7.142240	504.07	NaN	0.000000	0.001565	0.001694	28.0806	104.222	0.001774	58746.1	6.858439	168.457	504.168	1.121366	0.104208	0.103997	504.07	58746.1	0.097773	0.295080	1708.25	98805.8
222	2.000000	1.126382	7.36722e+06	-49739.1	955.818	-29758.4	0.000000	0.000000	7.148934	550.023	NaN	0.000000	0.001617	0.001673	28.0806	106.432	0.001812	58729.8	4.405021	171.342	540.442	1.126173	0.109013	0.108804	550.023	58729.8	0.101989	0.318061	1729.3	95142.8