Folder: unikorn_login/remote_trans/data/nanoindenter/0828-1/data/Data_2025-08-06,11h17m57s (part 6)

File: 2025-07-22_16-23-58_1_10.txt
2025-07-22, 16:23:58, 1
Index	Phase	Displacement	Time	Pos X	Pos Y	Pos Z	Rot A	Rot B	Piezo Z	Force A	Force B	Gripper	Voltage A	Voltage B	Temperature	Amplitude force	Amplitude pos	Stiffness	Phase shift	Phase excitation	Force A raw	Displacement raw	HMax	HMax raw	Real Force	Real Stiffness	Contact Depth	Area	Hardness	Reduced Mod.
[#]	[#]	[um]	[s]	[um]	[um]	[um]	[m°]	[m°]	[um]	[uN]	[uN]	[V]	[V]	[V]	[°C]	[uN]	[um]	[N/m]	[°]	[°]	[uN]	[um]	[um]	[um]	[uN]	[N/m]	[um]	[um^2]	[MPa]	[MPa]
10	1.000000	0.002752	7.36514e+06	-39139.1	955.819	-29795.6	0.000000	0.000000	6.002800	0.026024	NaN	0.000000	0.001635	0.001698	28.1313	0.082013	0.000895	91.6716	114.669	-165.455	-0.060427	0.001568	-1.108480	-1.109664	0.026024	91.6716	-1.108693	-6.557643E+14	-3.968439E-17	NaN
10	1.000000	0.042717	7.36514e+06	-39139.1	955.818	-29795.6	0.000000	0.000000	6.042767	0.070733	NaN	0.000000	0.001559	0.001675	28.1292	0.093500	0.001966	47.5678	32.1364	-165.848	0.161752	0.041429	-1.068515	-1.069804	0.070733	47.5678	-1.069630	-1.959841E+14	-3.609126E-16	NaN
10	1.000000	0.082705	7.36514e+06	-39139.1	955.817	-29795.6	0.000000	0.000000	6.082751	-0.034769	NaN	0.000000	0.001598	0.001658	28.1313	0.112242	0.002108	53.2557	33.7762	-169.831	-0.029465	0.081393	-1.028527	-1.029839	-0.034769	53.2557	-1.028037	-5.408487E+13	6.428590E-16	NaN
10	1.000000	0.122742	7.36514e+06	-39139.1	955.819	-29795.6	0.000000	0.000000	6.122790	0.033112	NaN	0.000000	0.001601	0.001673	28.1306	0.131840	0.002011	65.552	-136.904	-163.517	0.035120	0.121387	-0.988490	-0.989845	0.033112	65.552	-0.988869	-1.606506E+13	-2.061097E-15	NaN
10	1.000000	0.162750	7.36514e+06	-39139.1	955.818	-29795.6	0.000000	0.000000	6.162797	-0.013000	NaN	0.000000	0.001551	0.001673	28.132	0.041889	0.002108	19.875	-17.3256	-165.621	0.024954	0.161482	-0.948482	-0.949750	-0.013000	19.875	-0.947991	-4.517912E+12	2.877347E-15	NaN
10	1.000000	0.202763	7.36514e+06	-39139.1	955.817	-29795.6	0.000000	0.000000	6.202811	0.037311	NaN	0.000000	0.001536	0.001663	28.1291	0.020780	0.002019	10.2945	19.2954	-169.123	0.036268	0.201420	-0.908469	-0.909812	0.037311	10.2945	-0.911188	-1.439476E+12	-2.591969E-14	NaN
10	1.000000	0.242795	7.36514e+06	-39139.1	955.818	-29795.6	0.000000	0.000000	6.242842	-0.007806	NaN	0.000000	0.001605	0.001683	28.1304	0.037877	0.001995	18.9828	89.4733	-163.644	-0.054373	0.241490	-0.868437	-0.869742	-0.007806	18.9828	-0.868128	-3.768085E+11	2.071669E-14	NaN
10	1.000000	0.282797	7.36514e+06	-39139.1	955.818	-29795.6	0.000000	0.000000	6.282845	0.022230	NaN	0.000000	0.001511	0.001666	28.1293	0.057157	0.002101	27.203	-31.8981	-163.831	0.061650	0.281534	-0.828435	-0.829698	0.022230	27.203	-0.829048	-1.113996E+11	-1.995551E-13	NaN
10	1.000000	0.322850	7.36514e+06	-39139.1	955.819	-29795.6	0.000000	0.000000	6.322896	-0.027445	NaN	0.000000	0.001541	0.001647	28.1312	0.032435	0.001877	17.2787	120.295	-163.803	-0.013480	0.321500	-0.788382	-0.789732	-0.027445	17.2787	-0.787191	-3.012492E+10	9.110482E-13	NaN
10	1.000000	0.362841	7.36514e+06	-39139.1	955.818	-29795.6	0.000000	0.000000	6.362887	-0.033582	NaN	0.000000	0.001538	0.001633	28.1302	0.034377	0.001964	17.5042	179.063	-168.081	-0.035469	0.361532	-0.748391	-0.749700	-0.033582	17.5042	-0.746952	-8.545354E+9	3.929891E-12	NaN
10	1.000000	0.402868	7.36514e+06	-39139.1	955.82	-29795.6	0.000000	0.000000	6.402913	-0.046996	NaN	0.000000	0.001558	0.001678	28.131	0.027475	0.001954	14.0636	116.498	-165.863	-0.029673	0.401554	-0.708364	-0.709678	-0.046996	14.0636	-0.705858	-2.352391E+9	1.997817E-11	NaN
10	1.000000	0.442912	7.36514e+06	-39139.1	955.818	-29795.6	0.000000	0.000000	6.442958	-0.025332	NaN	0.000000	0.001565	0.001665	28.1294	0.121322	0.002061	58.8759	161.344	-167.18	0.003523	0.441554	-0.668321	-0.669678	-0.025332	58.8759	-0.667998	-7.144715E+8	3.545498E-11	NaN
10	1.000000	0.482918	7.36514e+06	-39139.1	955.818	-29795.6	0.000000	0.000000	6.482964	-0.016840	NaN	0.000000	0.001545	0.001674	28.1301	0.031205	0.001961	15.9143	-111.339	-162.923	0.005073	0.481536	-0.628314	-0.629696	-0.016840	15.9143	-0.627520	-1.990531E+8	8.459943E-11	NaN
10	1.000000	0.522918	7.36514e+06	-39139.1	955.818	-29795.6	0.000000	0.000000	6.522966	0.010276	NaN	0.000000	0.001536	0.001646	28.1285	0.078141	0.001989	39.2932	152.472	-168.165	0.018615	0.521609	-0.588314	-0.589623	0.010276	39.2932	-0.588510	-5.782578E+7	-1.777109E-10	NaN
10	1.000000	0.562949	7.36514e+06	-39139.1	955.819	-29795.6	0.000000	0.000000	6.562999	0.074677	NaN	0.000000	0.001549	0.001701	28.1292	0.055171	0.002066	26.7018	-89.2219	-163.707	-0.005332	0.561594	-0.548283	-0.549639	0.074677	26.7018	-0.550381	-1.718818E+7	-4.344642E-9	NaN
10	1.000000	0.602941	7.36514e+06	-39139.1	955.818	-29795.6	0.000000	0.000000	6.602991	0.079534	NaN	0.000000	0.001532	0.001630	28.1291	0.017719	0.001896	9.344603	-75.3159	-167.656	0.058172	0.601650	-0.508291	-0.509582	0.079534	9.344603	-0.514675	-5.48917e+06	-1.448930E-8	NaN
10	1.000000	0.642960	7.36514e+06	-39139.1	955.818	-29795.6	0.000000	0.000000	6.643009	0.050268	NaN	0.000000	0.001613	0.001629	28.13	0.062152	0.002046	30.3709	119.899	-165.044	0.019830	0.641676	-0.468272	-0.469556	0.050268	30.3709	-0.469514	-1.28406e+06	-3.914816E-8	NaN
10	1.000000	0.682973	7.36514e+06	-39139.1	955.819	-29795.6	0.000000	0.000000	6.683018	-0.036744	NaN	0.000000	0.001655	0.001641	28.1286	0.124115	0.002121	58.5253	-138.107	-162.936	-0.037448	0.681715	-0.428259	-0.429517	-0.036744	58.5253	-0.427789	-331717	1.107686E-7	NaN
10	1.000000	0.722992	7.36514e+06	-39139.1	955.818	-29795.6	0.000000	0.000000	6.723039	-0.013486	NaN	0.000000	0.001567	0.001700	28.1295	0.059601	0.001986	30.0149	-71.9472	-164.562	0.040617	0.721677	-0.388240	-0.389555	-0.013486	30.0149	-0.387903	-89775.1	1.502210E-7	NaN
10	1.000000	0.763023	7.36514e+06	-39139.1	955.818	-29795.6	0.000000	0.000000	6.763070	0.002433	NaN	0.000000	0.001562	0.001658	28.1272	0.041868	0.002010	20.8251	172.79	-167.042	0.015454	0.761706	-0.348209	-0.349526	0.002433	20.8251	-0.348297	-24114.3	-1.008864E-7	NaN
10	1.000000	0.803045	7.36514e+06	-39139.1	955.818	-29795.6	0.000000	0.000000	6.803092	-0.001004	NaN	0.000000	0.001648	0.001677	28.1282	0.033778	0.002001	16.8786	170.485	-167.067	-0.007382	0.801738	-0.308187	-0.309494	-0.001004	16.8786	-0.308143	-6216.64	1.614902E-7	NaN
10	1.000000	0.843055	7.36514e+06	-39139.1	955.818	-29795.6	0.000000	0.000000	6.843104	0.031578	NaN	0.000000	0.001630	0.001655	28.1272	0.031163	0.002113	14.7509	23.4124	-166.909	0.039339	0.841747	-0.268177	-0.269485	0.031578	14.7509	-0.269782	-1652.85	-1.910499E-5	NaN
10	1.000000	0.883064	7.36514e+06	-39139.1	955.818	-29795.6	0.000000	0.000000	6.883111	0.003846	NaN	0.000000	0.001599	0.001704	28.1288	0.049124	0.001954	25.1434	-127.86	-165.989	-0.029362	0.881768	-0.228168	-0.229464	0.003846	25.1434	-0.228283	-376.165	-1.022440E-5	NaN
10	1.000000	0.923091	7.36514e+06	-39139.1	955.818	-29795.6	0.000000	0.000000	6.923140	0.028188	NaN	0.000000	0.001599	0.001693	28.1282	0.146989	0.002059	71.3874	117.481	-161.689	0.044538	0.921757	-0.188141	-0.189475	0.028188	71.3874	-0.188437	-84.6993	-0.000333	NaN
10	1.000000	0.963089	7.36514e+06	-39139.1	955.818	-29795.6	0.000000	0.000000	6.963137	0.026379	NaN	0.000000	0.001618	0.001668	28.129	0.061967	0.002023	30.6348	69.5011	-167.591	0.087109	0.961718	-0.148143	-0.149514	0.026379	30.6348	-0.148789	-17.214	-0.001532	NaN
10	1.000000	1.003144	7.36514e+06	-39139.1	955.816	-29795.6	0.000000	0.000000	7.003188	-0.060156	NaN	0.000000	0.001633	0.001674	28.1263	0.069953	0.002123	32.9449	-31.2535	-164.563	0.028233	1.001802	-0.108088	-0.109430	-0.060156	32.9449	-0.106719	-2.559440	0.023504	NaN
10	1.000000	1.043100	7.36514e+06	-39139.1	955.818	-29795.6	0.000000	0.000000	7.043147	-0.001937	NaN	0.000000	0.001612	0.001671	28.1272	0.060269	0.002077	29.0189	-169.856	-164.29	0.054726	1.041808	-0.068132	-0.069424	-0.001937	29.0189	-0.068082	-0.302811	0.006396	NaN
10	1.000000	1.083127	7.36514e+06	-39139.1	955.816	-29795.6	0.000000	0.000000	7.083325	3.673807	NaN	0.000000	0.001601	0.001670	28.1258	1.484762	0.002020	734.879	9.202502	-165.784	3.232545	1.081841	-0.028105	-0.029391	3.673807	734.879	-0.031854	-0.025956	-141.537	NaN
10	2.000000	1.101761	7.36515e+06	-39139.1	955.816	-29795.6	0.000000	0.000000	7.102537	17.7484	NaN	0.000000	0.001592	0.001654	28.1268	13.105	0.001778	7371.96	6.416761	-174.505	17.0603	1.101456	-0.009471	-0.009776	17.7484	7371.96	-0.011277	-0.007116	-2494.15	NaN
10	2.000000	1.111741	7.36515e+06	-39139.1	955.819	-29795.6	0.000000	0.000000	7.113573	43.4419	NaN	0.000000	0.001557	0.001642	28.1271	24.2689	0.001862	13034	4.541187	-176.486	43.4656	1.111402	0.000509	0.000170	43.4419	13034	-0.001991	-0.001433	-30319.6	NaN
10	2.000000	1.121709	7.36515e+06	-39139.1	955.818	-29795.6	0.000000	0.000000	7.124898	76.4449	NaN	0.000000	0.001571	0.001661	28.128	34.0969	0.001751	19478.3	4.211891	178.695	74.3558	1.121398	0.010477	0.010166	76.4449	19478.3	0.007534	0.006567	11640.7	219604
10	2.000000	1.131671	7.36515e+06	-39139.1	955.818	-29795.6	0.000000	0.000000	7.136776	123.075	NaN	0.000000	0.001600	0.001675	28.1268	46.0853	0.001874	24593.8	6.477379	174.737	121.334	1.131414	0.020439	0.020182	123.075	24593.8	0.016686	0.017600	6992.93	169373
10	2.000000	1.141697	7.36515e+06	-39139.1	955.817	-29795.6	0.000000	0.000000	7.149037	177.466	NaN	0.000000	0.001625	0.001651	28.1266	54.2551	0.001826	29713.9	3.049016	176.811	177.642	1.141509	0.030465	0.030277	177.466	29713.9	0.025986	0.032833	5405.12	149823
10	2.000000	1.151632	7.36515e+06	-39139.1	955.818	-29795.6	0.000000	0.000000	7.162047	252.322	NaN	0.000000	0.001576	0.001711	28.1257	64.8725	0.001761	36848.5	3.252976	174.882	249.183	1.151361	0.040399	0.040129	252.322	36848.5	0.035264	0.052362	4818.8	147124
10	2.000000	1.161632	7.36515e+06	-39139.1	955.817	-29795.6	0.000000	0.000000	7.175129	327.294	NaN	0.000000	0.001523	0.001703	28.126	74.5589	0.001796	41519.1	1.601477	175.821	325.07	1.161356	0.050400	0.050124	327.294	41519.1	0.044488	0.076140	4298.57	137472
10	2.000000	1.171631	7.36515e+06	-39139.1	955.816	-29795.6	0.000000	0.000000	7.188601	411.82	NaN	0.000000	0.001588	0.001722	28.1253	85.1548	0.001908	44623.3	3.474865	173.323	407.859	1.171342	0.060399	0.060110	411.82	44623.3	0.053478	0.103465	3980.28	126747
10	2.000000	1.181516	7.36515e+06	-39139.1	955.819	-29795.6	0.000000	0.000000	7.202064	498.899	NaN	0.000000	0.001612	0.001670	28.1269	92.9313	0.001782	52153	6.134142	169.619	492.668	1.181292	0.070284	0.070060	498.899	52153	0.063109	0.137192	3636.5	128643
10	2.000000	1.191602	7.36515e+06	-39139.1	955.819	-29795.6	0.000000	0.000000	7.216068	594.237	NaN	0.000000	0.001562	0.001680	28.1257	104.669	0.001904	54979.4	8.311218	167.11	591.576	1.191204	0.080370	0.079972	594.237	54979.4	0.072263	0.173417	3426.63	120622
10	2.000000	1.193038	7.36515e+06	-39139.1	955.818	-29795.6	0.000000	0.000000	7.218100	608.742	NaN	0.000000	0.001597	0.001654	28.0878	103.311	0.001777	58127.4	1.834235	-6.415535	601.288	1.192687	0.081806	0.081455	608.742	58127.4	0.073952	0.180535	3371.88	124990

File: 2025-07-22_16-23-58_1_11.txt
2025-07-22, 16:23:58, 1
Index	Phase	Displacement	Time	Pos X	Pos Y	Pos Z	Rot A	Rot B	Piezo Z	Force A	Force B	Gripper	Voltage A	Voltage B	Temperature	Amplitude force	Amplitude pos	Stiffness	Phase shift	Phase excitation	Force A raw	Displacement raw	HMax	HMax raw	Real Force	Real Stiffness	Contact Depth	Area	Hardness	Reduced Mod.
[#]	[#]	[um]	[s]	[um]	[um]	[um]	[m°]	[m°]	[um]	[uN]	[uN]	[V]	[V]	[V]	[°C]	[uN]	[um]	[N/m]	[°]	[°]	[uN]	[um]	[um]	[um]	[uN]	[N/m]	[um]	[um^2]	[MPa]	[MPa]
11	1.000000	0.002964	7.36515e+06	-39189.1	955.818	-29795.4	0.000000	0.000000	6.002810	-0.009628	NaN	0.000000	0.001571	0.001644	28.1199	0.062404	0.001063	58.7161	167.613	-165.422	-0.068674	0.001756	-1.078545	-1.079753	-0.009628	58.7161	-1.078422	-2.572349E+14	3.742930E-17	NaN
11	1.000000	0.042951	7.36515e+06	-39189.1	955.819	-29795.4	0.000000	0.000000	6.042800	0.080296	NaN	0.000000	0.001554	0.001654	28.1186	0.097849	0.001910	51.235	176.98	-168.205	0.051723	0.041610	-1.038559	-1.039900	0.080296	51.235	-1.039734	-7.769522E+13	-1.033480E-15	NaN
11	1.000000	0.082919	7.36515e+06	-39189.1	955.818	-29795.4	0.000000	0.000000	6.082768	0.061598	NaN	0.000000	0.001542	0.001616	28.1211	0.120619	0.002054	58.731	68.6118	-165.412	-0.006337	0.081587	-0.998590	-0.999922	0.061598	58.731	-0.999377	-2.225261E+13	-2.768114E-15	NaN
11	1.000000	0.122952	7.36515e+06	-39189.1	955.818	-29795.4	0.000000	0.000000	6.122801	0.061632	NaN	0.000000	0.001570	0.001614	28.1198	0.102361	0.002104	48.6439	-95.0912	-165.265	0.002854	0.121612	-0.958557	-0.959897	0.061632	48.6439	-0.959508	-6.459955E+12	-9.540678E-15	NaN
11	1.000000	0.162933	7.36515e+06	-39189.1	955.819	-29795.4	0.000000	0.000000	6.162777	-0.047465	NaN	0.000000	0.001525	0.001613	28.1199	0.079373	0.001961	40.4718	166.54	-167.307	-0.008931	0.161657	-0.918576	-0.919852	-0.047465	40.4718	-0.917697	-1.762418E+12	2.693155E-14	NaN
11	1.000000	0.202942	7.36515e+06	-39189.1	955.818	-29795.4	0.000000	0.000000	6.202789	0.011522	NaN	0.000000	0.001547	0.001593	28.1178	0.168053	0.001948	86.262	-61.1152	-164.499	-0.023344	0.201687	-0.878567	-0.879822	0.011522	86.262	-0.878667	-5.232207E+11	-2.202122E-14	NaN
11	1.000000	0.242980	7.36515e+06	-39189.1	955.818	-29795.4	0.000000	0.000000	6.242823	-0.090617	NaN	0.000000	0.001575	0.001626	28.1181	0.127296	0.002019	63.0493	13.62	-163.459	0.035172	0.241734	-0.838529	-0.839776	-0.090617	63.0493	-0.837451	-1.447982E+11	6.258174E-13	NaN
11	1.000000	0.283018	7.36515e+06	-39189.1	955.818	-29795.4	0.000000	0.000000	6.282863	-0.045163	NaN	0.000000	0.001618	0.001596	28.1165	0.077499	0.002040	37.9896	97.9331	-166.872	-0.020485	0.281707	-0.798491	-0.799803	-0.045163	37.9896	-0.797600	-4.171362E+10	1.082688E-12	NaN
11	1.000000	0.323003	7.36515e+06	-39189.1	955.817	-29795.4	0.000000	0.000000	6.322852	0.080707	NaN	0.000000	0.001504	0.001617	28.1191	0.056708	0.001966	28.8454	46.9374	-165.389	0.032320	0.321734	-0.758507	-0.759775	0.080707	28.8454	-0.760605	-1.310806E+10	-6.157028E-12	NaN
11	1.000000	0.363004	7.36515e+06	-39189.1	955.818	-29795.4	0.000000	0.000000	6.362851	0.011732	NaN	0.000000	0.001566	0.001598	28.1185	0.058242	0.001996	29.1815	134.674	-166.304	0.005061	0.361732	-0.718506	-0.719778	0.011732	29.1815	-0.718807	-3.533500E+9	-3.320268E-12	NaN
11	1.000000	0.403032	7.36515e+06	-39189.1	955.818	-29795.4	0.000000	0.000000	6.402878	-0.006963	NaN	0.000000	0.001566	0.001623	28.119	0.087952	0.001962	44.8364	103.805	-160.989	0.074788	0.401747	-0.678478	-0.679763	-0.006963	44.8364	-0.678361	-9.903569E+8	7.030663E-12	NaN
11	1.000000	0.443097	7.36515e+06	-39189.1	955.819	-29795.4	0.000000	0.000000	6.442945	0.047894	NaN	0.000000	0.001526	0.001608	28.1176	0.017992	0.002081	8.646663	-24.115	-165.479	0.042612	0.441774	-0.638413	-0.639736	0.047894	8.646663	-0.642567	-3.202658E+8	-1.495434E-10	NaN
11	1.000000	0.483078	7.36515e+06	-39189.1	955.818	-29795.4	0.000000	0.000000	6.482924	-0.002353	NaN	0.000000	0.001528	0.001630	28.1173	0.009519	0.001950	4.880645	178.279	-166.244	0.021107	0.481820	-0.598431	-0.599689	-0.002353	4.880645	-0.598070	-7.832008E+7	3.004379E-11	NaN
11	1.000000	0.523116	7.36515e+06	-39189.1	955.819	-29795.4	0.000000	0.000000	6.522962	0.002055	NaN	0.000000	0.001580	0.001608	28.116	0.097670	0.002139	45.6632	164.492	-163.076	0.024791	0.521820	-0.558394	-0.559690	0.002055	45.6632	-0.558427	-2.221363E+7	-9.250646E-11	NaN
11	1.000000	0.563099	7.36515e+06	-39189.1	955.818	-29795.4	0.000000	0.000000	6.562943	-0.064108	NaN	0.000000	0.001570	0.001572	28.1168	0.096084	0.001957	49.0948	158.771	-163.844	0.013580	0.561854	-0.518410	-0.519655	-0.064108	49.0948	-0.517431	-5.99601e+06	1.069172E-8	NaN
11	1.000000	0.603147	7.36515e+06	-39189.1	955.818	-29795.4	0.000000	0.000000	6.602996	0.066813	NaN	0.000000	0.001622	0.001561	28.1173	0.041844	0.002029	20.6216	-70.0172	-164.884	0.007794	0.601830	-0.478362	-0.479680	0.066813	20.6216	-0.480792	-1.84765e+06	-3.616117E-8	NaN
11	1.000000	0.643155	7.36515e+06	-39189.1	955.818	-29795.4	0.000000	0.000000	6.643001	0.002974	NaN	0.000000	0.001650	0.001543	28.1178	0.064268	0.001985	32.3822	-109.901	-167.908	-0.005357	0.641896	-0.438355	-0.439613	0.002974	32.3822	-0.438424	-468933	-6.342699E-9	NaN
11	1.000000	0.683163	7.36515e+06	-39189.1	955.818	-29795.4	0.000000	0.000000	6.683009	0.005819	NaN	0.000000	0.001632	0.001563	28.1163	0.078770	0.001962	40.1421	131.765	-162.628	0.058120	0.681901	-0.398347	-0.399608	0.005819	40.1421	-0.398456	-127048	-4.579865E-8	NaN
11	1.000000	0.723208	7.36515e+06	-39189.1	955.818	-29795.4	0.000000	0.000000	6.723050	-0.105326	NaN	0.000000	0.001698	0.001604	28.1168	0.156024	0.002046	76.2467	113.889	-167.141	-0.084461	0.721872	-0.358302	-0.359638	-0.105326	76.2467	-0.357266	-32531.4	3.237682E-6	NaN
11	1.000000	0.763226	7.36515e+06	-39189.1	955.819	-29795.4	0.000000	0.000000	6.763070	-0.043893	NaN	0.000000	0.001633	0.001558	28.1154	0.054781	0.001976	27.7235	80.3833	-167.404	-0.067100	0.761900	-0.318284	-0.319609	-0.043893	27.7235	-0.317097	-8430.83	5.206248E-6	NaN
11	1.000000	0.803243	7.36515e+06	-39189.1	955.819	-29795.4	0.000000	0.000000	6.803092	0.082803	NaN	0.000000	0.001656	0.001620	28.1154	0.067048	0.001972	34.0047	-10.9298	-165.926	0.021236	0.801925	-0.278267	-0.279584	0.082803	34.0047	-0.280093	-2367.97	-3.496776E-5	NaN
11	1.000000	0.843222	7.36515e+06	-39189.1	955.818	-29795.4	0.000000	0.000000	6.843069	0.010804	NaN	0.000000	0.001603	0.001565	28.1154	0.080144	0.002016	39.7534	148.546	-162.348	0.030516	0.841941	-0.238287	-0.239569	0.010804	39.7534	-0.238491	-544.464	-1.984402E-5	NaN
11	1.000000	0.883245	7.36515e+06	-39189.1	955.819	-29795.4	0.000000	0.000000	6.883092	0.001170	NaN	0.000000	0.001588	0.001552	28.1162	0.044460	0.001989	22.3546	-152.328	-167.209	-0.058787	0.881982	-0.198264	-0.199527	0.001170	22.3546	-0.198303	-123.532	-9.475084E-6	NaN
11	1.000000	0.923253	7.36515e+06	-39189.1	955.818	-29795.4	0.000000	0.000000	6.923099	-0.009115	NaN	0.000000	0.001611	0.001536	28.1161	0.067568	0.001964	34.3957	129.449	-163.849	-0.061741	0.922000	-0.158257	-0.159510	-0.009115	34.3957	-0.158058	-25.3159	0.000360	NaN
11	1.000000	0.963282	7.36515e+06	-39189.1	955.818	-29795.4	0.000000	0.000000	6.963128	-0.016911	NaN	0.000000	0.001601	0.001570	28.1158	0.009501	0.001888	5.032594	168.807	-167.142	-0.002953	0.961962	-0.118228	-0.119548	-0.016911	5.032594	-0.115707	-3.950607	0.004281	NaN
11	1.000000	1.003319	7.36515e+06	-39189.1	955.819	-29795.5	0.000000	0.000000	7.003170	0.112839	NaN	0.000000	0.001568	0.001586	28.1136	0.065210	0.001910	34.1357	70.5288	-164.005	0.045493	1.001998	-0.078190	-0.079512	0.112839	34.1357	-0.080670	-0.643267	-0.175416	NaN
11	1.000000	1.043331	7.36515e+06	-39189.1	955.818	-29795.5	0.000000	0.000000	7.043177	-0.011633	NaN	0.000000	0.001565	0.001555	28.1143	0.060282	0.001961	30.733	128.302	-166.476	0.052348	1.041988	-0.038178	-0.039522	-0.011633	30.733	-0.037894	-0.039056	0.297859	NaN
11	1.000000	1.083319	7.36515e+06	-39189.1	955.818	-29795.5	0.000000	0.000000	7.083229	1.537294	NaN	0.000000	0.001617	0.001599	28.1125	2.386685	0.002000	1193.51	8.487946	-169.141	0.585090	1.082035	0.001810	0.000526	1.537294	1193.51	0.000844	0.000641	2398.36	43070.2
11	2.000000	1.097836	7.36515e+06	-39189.1	955.819	-29795.5	0.000000	0.000000	7.098586	21.9781	NaN	0.000000	0.001617	0.001584	28.1136	15.8458	0.001769	8955.41	4.295334	-173.946	21.3032	1.097530	0.016327	0.016020	21.9781	8955.41	0.014486	0.014606	1504.71	67700.2
11	2.000000	1.107817	7.36515e+06	-39189.1	955.819	-29795.5	0.000000	0.000000	7.109264	38.9614	NaN	0.000000	0.001567	0.001582	28.1133	25.1948	0.001870	13474.4	3.181649	-176.449	37.4406	1.107541	0.026307	0.026031	38.9614	13474.4	0.024139	0.029467	1322.19	71715.4
11	2.000000	1.117806	7.36516e+06	-39189.1	955.819	-29795.5	0.000000	0.000000	7.120215	62.3721	NaN	0.000000	0.001536	0.001590	28.1147	34.2276	0.001933	17704.2	8.919899	177.642	62.3373	1.117482	0.036296	0.035972	62.3721	17704.2	0.033654	0.048658	1281.85	73328.8
11	2.000000	1.127850	7.36516e+06	-39189.1	955.818	-29795.5	0.000000	0.000000	7.131516	92.9631	NaN	0.000000	0.001548	0.001630	28.1137	43.1152	0.001977	21804.9	6.906006	177.071	93.166	1.127575	0.046340	0.046065	92.9631	21804.9	0.043143	0.072402	1283.98	74037.5
11	2.000000	1.137753	7.36516e+06	-39189.1	955.819	-29795.5	0.000000	0.000000	7.143292	138.543	NaN	0.000000	0.001604	0.001599	28.1127	52.0574	0.001794	29022.3	5.037439	175.385	135.326	1.137491	0.056243	0.055982	138.543	29022.3	0.052663	0.100822	1374.13	83507.9
11	2.000000	1.147751	7.36516e+06	-39189.1	955.82	-29795.5	0.000000	0.000000	7.155074	181.962	NaN	0.000000	0.001602	0.001618	28.1122	62.5898	0.001847	33879.6	4.839118	174.832	180.865	1.147455	0.066241	0.065946	181.962	33879.6	0.062213	0.133863	1359.32	84602.2
11	2.000000	1.157714	7.36516e+06	-39189.1	955.819	-29795.5	0.000000	0.000000	7.167048	230.898	NaN	0.000000	0.001575	0.001582	28.1133	71.5706	0.001792	39930	3.574183	175.177	229.009	1.157456	0.076204	0.075947	230.898	39930	0.071867	0.171766	1344.26	88024.6
11	2.000000	1.167681	7.36516e+06	-39189.1	955.82	-29795.5	0.000000	0.000000	7.179430	289.648	NaN	0.000000	0.001602	0.001612	28.1117	81.6854	0.001810	45126.3	1.942726	175.453	286.301	1.167444	0.086171	0.085935	289.648	45126.3	0.081358	0.213333	1357.73	89263.6
11	2.000000	1.177820	7.36516e+06	-39189.1	955.819	-29795.5	0.000000	0.000000	7.191842	344.973	NaN	0.000000	0.001588	0.001592	28.1145	91.2705	0.001857	49146.3	5.698804	170.802	346.367	1.177723	0.096311	0.096214	344.973	49146.3	0.091046	0.260086	1326.38	88045.1
11	2.000000	1.187722	7.36516e+06	-39189.1	955.819	-29795.5	0.000000	0.000000	7.205911	446.357	NaN	0.000000	0.001557	0.001595	28.1125	98.3386	0.001691	58142.8	2.589389	173.236	444.15	1.187355	0.106213	0.105845	446.357	58142.8	0.100455	0.309606	1441.69	95469.5