Folder: unikorn_login/remote_trans/data/nanoindenter/0828-1/data/Data_2025-08-06,11h17m57s (part 184)

File: 2025-07-22_16-23-58_1_385.txt
2025-07-22, 16:23:58, 1
Index	Phase	Displacement	Time	Pos X	Pos Y	Pos Z	Rot A	Rot B	Piezo Z	Force A	Force B	Gripper	Voltage A	Voltage B	Temperature	Amplitude force	Amplitude pos	Stiffness	Phase shift	Phase excitation	Force A raw	Displacement raw	HMax	HMax raw	Real Force	Real Stiffness	Contact Depth	Area	Hardness	Reduced Mod.
[#]	[#]	[um]	[s]	[um]	[um]	[um]	[m°]	[m°]	[um]	[uN]	[uN]	[V]	[V]	[V]	[°C]	[uN]	[um]	[N/m]	[°]	[°]	[uN]	[um]	[um]	[um]	[uN]	[N/m]	[um]	[um^2]	[MPa]	[MPa]
385	1.000000	0.002479	7.36883e+06	-57839.1	1005.82	-29739.9	0.000000	0.000000	6.002784	0.029146	NaN	0.000000	0.001618	0.001646	28.0786	0.030765	0.000951	32.3438	48.0251	-165.202	0.060071	0.001242	-1.293745	-1.294983	0.029146	32.3438	-1.294421	-2.012970E+17	-1.447896E-19	NaN
385	1.000000	0.050447	7.36883e+06	-57839.1	1005.82	-29739.9	0.000000	0.000000	6.050755	0.112319	NaN	0.000000	0.001625	0.001610	28.0788	0.046444	0.001779	26.103	-122.968	-166.306	0.044009	0.049130	-1.245777	-1.247094	0.112319	26.103	-1.249005	-4.972839E+16	-2.258642E-18	NaN
385	1.000000	0.098469	7.36883e+06	-57839.1	1005.82	-29739.9	0.000000	0.000000	6.098772	-0.005466	NaN	0.000000	0.001564	0.001579	28.0788	0.037140	0.002014	18.4374	109.287	-165.442	0.017793	0.097124	-1.197756	-1.199100	-0.005466	18.4374	-1.197533	-1.017921E+16	5.370074E-19	NaN
385	1.000000	0.146447	7.36883e+06	-57839.1	1005.82	-29739.9	0.000000	0.000000	6.146749	-0.039841	NaN	0.000000	0.001559	0.001637	28.0802	0.061006	0.002004	30.4375	94.4975	-163.575	0.014102	0.145190	-1.149777	-1.151034	-0.039841	30.4375	-1.148795	-2.262912E+15	1.760618E-17	NaN
385	1.000000	0.194484	7.36883e+06	-57839.1	1005.82	-29739.9	0.000000	0.000000	6.194789	0.038922	NaN	0.000000	0.001520	0.001625	28.08	0.096227	0.001961	49.0621	-137.134	-167.858	0.037111	0.193178	-1.101740	-1.103046	0.038922	49.0621	-1.102335	-5.387774E+14	-7.224147E-17	NaN
385	1.000000	0.242532	7.36883e+06	-57839.1	1005.82	-29739.9	0.000000	0.000000	6.242837	0.038537	NaN	0.000000	0.001539	0.001646	28.0789	0.069472	0.001994	34.8345	25.448	-166.309	0.086614	0.241167	-1.053692	-1.055057	0.038537	34.8345	-1.054522	-1.227993E+14	-3.138184E-16	NaN
385	1.000000	0.290555	7.36883e+06	-57839.1	1005.82	-29739.9	0.000000	0.000000	6.290858	-0.021605	NaN	0.000000	0.001576	0.001606	28.0787	0.075682	0.002066	36.6397	0.225253	-165.751	0.027116	0.289217	-1.005669	-1.007007	-0.021605	36.6397	-1.005227	-2.667705E+13	8.098907E-16	NaN
385	1.000000	0.338595	7.36883e+06	-57839.1	1005.82	-29739.9	0.000000	0.000000	6.338898	-0.007577	NaN	0.000000	0.001570	0.001622	28.0789	0.032725	0.001903	17.1939	109.464	-165.019	0.054740	0.337266	-0.957629	-0.958959	-0.007577	17.1939	-0.957299	-6.031845E+12	1.256226E-15	NaN
385	1.000000	0.386565	7.36883e+06	-57839.1	1005.82	-29739.9	0.000000	0.000000	6.386870	0.037798	NaN	0.000000	0.001606	0.001642	28.08	0.113499	0.002044	55.5245	-169.175	-165.255	0.072287	0.385211	-0.909659	-0.911013	0.037798	55.5245	-0.910170	-1.394617E+12	-2.710281E-14	NaN
385	1.000000	0.434565	7.36883e+06	-57839.1	1005.82	-29739.9	0.000000	0.000000	6.434868	0.001250	NaN	0.000000	0.001620	0.001612	28.0801	0.066117	0.001948	33.9334	166.362	-162.138	0.007358	0.433351	-0.861660	-0.862873	0.001250	33.9334	-0.861687	-3.082885E+11	-4.053882E-15	NaN
385	1.000000	0.482623	7.36883e+06	-57839.1	1005.82	-29739.9	0.000000	0.000000	6.482928	0.049278	NaN	0.000000	0.001613	0.001605	28.0799	0.092929	0.002119	43.8525	57.8066	-167.998	-0.009185	0.481311	-0.813602	-0.814914	0.049278	43.8525	-0.814444	-7.060967E+10	-6.978952E-13	NaN
385	1.000000	0.530666	7.36883e+06	-57839.1	1005.82	-29739.9	0.000000	0.000000	6.530973	0.065900	NaN	0.000000	0.001625	0.001590	28.0789	0.078289	0.001848	42.3678	18.3236	-164.496	0.005478	0.529322	-0.765558	-0.766902	0.065900	42.3678	-0.766724	-1.587687E+10	-4.150721E-12	NaN
385	1.000000	0.578669	7.36883e+06	-57839.1	1005.82	-29739.9	0.000000	0.000000	6.578975	0.050990	NaN	0.000000	0.001560	0.001601	28.0787	0.053987	0.001955	27.6159	67.5647	-163.822	-0.011501	0.577341	-0.717555	-0.718883	0.050990	27.6159	-0.718940	-3.548234E+9	-1.437039E-11	NaN
385	1.000000	0.626677	7.36883e+06	-57839.1	1005.82	-29739.9	0.000000	0.000000	6.626981	0.031934	NaN	0.000000	0.001552	0.001659	28.0788	0.064943	0.001868	34.7586	171.087	-163.508	-0.100408	0.625391	-0.669548	-0.670833	0.031934	34.7586	-0.670237	-7.667063E+8	-4.165052E-11	NaN
385	1.000000	0.674722	7.36883e+06	-57839.1	1005.82	-29739.9	0.000000	0.000000	6.675025	-0.014512	NaN	0.000000	0.001591	0.001695	28.0799	0.026557	0.002007	13.2322	-134.17	-165.379	0.000147	0.673388	-0.621502	-0.622837	-0.014512	13.2322	-0.620680	-1.603165E+8	9.052234E-11	NaN
385	1.000000	0.722742	7.36883e+06	-57839.1	1005.82	-29739.9	0.000000	0.000000	6.723047	0.039658	NaN	0.000000	0.001627	0.001684	28.0799	0.019453	0.002049	9.495806	101.518	-162.45	0.062827	0.721382	-0.573483	-0.574842	0.039658	9.495806	-0.576615	-3.962756E+7	-1.000765E-9	NaN
385	1.000000	0.770723	7.36883e+06	-57839.1	1005.82	-29739.9	0.000000	0.000000	6.771030	0.078895	NaN	0.000000	0.001598	0.001674	28.0799	0.033634	0.002063	16.3068	-179.342	-165.279	0.072181	0.769437	-0.525501	-0.526787	0.078895	16.3068	-0.529130	-8.7195e+06	-9.048061E-9	NaN
385	1.000000	0.818783	7.36883e+06	-57839.1	1005.82	-29739.9	0.000000	0.000000	6.819089	0.058526	NaN	0.000000	0.001633	0.001688	28.0789	0.069904	0.002036	34.3345	18.9663	-167.518	-0.042275	0.817477	-0.477441	-0.478747	0.058526	34.3345	-0.478720	-1.72822e+06	-3.386462E-8	NaN
385	1.000000	0.866753	7.36883e+06	-57839.1	1005.82	-29739.9	0.000000	0.000000	6.867055	-0.026285	NaN	0.000000	0.001638	0.001653	28.0786	0.152908	0.002124	71.98	170.975	-165.356	-0.084170	0.865475	-0.429471	-0.430749	-0.026285	71.98	-0.429197	-347300	7.568446E-8	NaN
385	1.000000	0.914797	7.36883e+06	-57839.1	1005.82	-29739.9	0.000000	0.000000	6.915101	0.009472	NaN	0.000000	0.001615	0.001675	28.0788	0.006853	0.001994	3.436244	-175.687	-165.221	-0.028234	0.913471	-0.381427	-0.382753	0.009472	3.436244	-0.383494	-77626.3	-1.220210E-7	NaN
385	1.000000	0.962814	7.36883e+06	-57839.1	1005.82	-29739.9	0.000000	0.000000	6.963119	0.022811	NaN	0.000000	0.001631	0.001634	28.0798	0.071227	0.002020	35.2598	160.467	-166.712	-0.022080	0.961583	-0.333410	-0.334641	0.022811	35.2598	-0.333895	-14874.4	-1.533571E-6	NaN
385	1.000000	1.010845	7.36883e+06	-57839.1	1005.82	-29739.9	0.000000	0.000000	7.011148	-0.011576	NaN	0.000000	0.001631	0.001630	28.0798	0.011937	0.001942	6.145580	-151.865	-165.496	-0.067165	1.009545	-0.285379	-0.286679	-0.011576	6.145580	-0.283967	-2708.47	4.274145E-6	NaN
385	1.000000	1.058845	7.36883e+06	-57839.1	1005.82	-29739.9	0.000000	0.000000	7.059147	-0.017624	NaN	0.000000	0.001603	0.001677	28.0796	0.085692	0.002041	41.976	-24.6036	-164.203	-0.029290	1.057590	-0.237380	-0.238635	-0.017624	41.976	-0.237065	-517.171	3.407831E-5	NaN
385	1.000000	1.106872	7.36883e+06	-57839.1	1005.82	-29739.9	0.000000	0.000000	7.107175	-0.034866	NaN	0.000000	0.001609	0.001649	28.0787	0.077342	0.001935	39.9789	-172.684	-162.948	-0.010700	1.105551	-0.189352	-0.190673	-0.034866	39.9789	-0.188698	-85.5555	0.000408	NaN
385	1.000000	1.154906	7.36883e+06	-57839.1	1005.82	-29739.9	0.000000	0.000000	7.155212	0.069285	NaN	0.000000	0.001558	0.001657	28.0782	0.081545	0.002086	39.0873	109.401	-162.737	0.101994	1.153609	-0.141318	-0.142615	0.069285	39.0873	-0.142648	-13.2586	-0.005226	NaN
385	1.000000	1.202939	7.36883e+06	-57839.1	1005.82	-29739.9	0.000000	0.000000	7.203245	0.069813	NaN	0.000000	0.001587	0.001658	28.0797	0.062788	0.001927	32.5868	27.6366	-162.592	0.057765	1.201628	-0.093286	-0.094596	0.069813	32.5868	-0.094892	-1.402696	-0.049771	NaN
385	1.000000	1.250953	7.36883e+06	-57839.1	1005.82	-29739.9	0.000000	0.000000	7.251261	0.113311	NaN	0.000000	0.001585	0.001695	28.0798	0.053274	0.001949	27.3321	36.8423	-165.583	0.150931	1.249651	-0.045271	-0.046573	0.113311	27.3321	-0.048380	-0.081493	-1.390434	NaN
385	1.000000	1.298947	7.36883e+06	-57839.1	1005.82	-29739.9	0.000000	0.000000	7.299309	1.409638	NaN	0.000000	0.001642	0.001712	28.0801	0.617340	0.001986	310.865	8.629721	-162.117	1.409685	1.297650	0.002723	0.001426	1.409638	310.865	-0.000678	-0.000500	-2819.96	NaN
385	2.000000	1.337509	7.36883e+06	-57839.1	1005.82	-29739.9	0.000000	0.000000	7.338192	9.224593	NaN	0.000000	0.001668	0.001656	28.0791	2.828707	0.001934	1462.52	13.1231	-171.2	9.344535	1.337208	0.041285	0.040984	9.224593	1462.52	0.036554	0.055427	166.427	5675.62
385	2.000000	1.349452	7.36883e+06	-57839.1	1005.82	-29739.9	0.000000	0.000000	7.350236	11.6649	NaN	0.000000	0.001697	0.001673	28.079	3.179473	0.002009	1582.23	9.283740	-167.75	11.8052	1.349140	0.053228	0.052915	11.6649	1582.23	0.047698	0.085432	136.539	4945.73
385	2.000000	1.361434	7.36883e+06	-57839.1	1005.82	-29739.9	0.000000	0.000000	7.362387	15.796	NaN	0.000000	0.001629	0.001648	28.0783	4.187261	0.002072	2020.99	12.066	-169.501	15.7012	1.361085	0.065210	0.064861	15.796	2020.99	0.059348	0.123480	127.924	5254.61
385	2.000000	1.373395	7.36883e+06	-57839.1	1005.82	-29739.9	0.000000	0.000000	7.374664	23.4491	NaN	0.000000	0.001621	0.001684	28.0799	5.614194	0.001850	3035.06	7.993965	-169.031	23.0918	1.373054	0.077171	0.076830	23.4491	3035.06	0.071377	0.169733	138.153	6730.67
385	2.000000	1.385383	7.36883e+06	-57839.1	1005.82	-29739.9	0.000000	0.000000	7.387019	32.3744	NaN	0.000000	0.001609	0.001695	28.0795	7.361713	0.002040	3608.14	10.1908	-171.225	32.1932	1.385034	0.089159	0.088810	32.3744	3608.14	0.082430	0.218293	148.307	7055.64
385	2.000000	1.397370	7.36883e+06	-57839.1	1005.82	-29739.9	0.000000	0.000000	7.399393	41.808	NaN	0.000000	0.001545	0.001641	28.0797	8.542461	0.002038	4191.27	9.772771	-170.324	41.7982	1.397102	0.101146	0.100878	41.808	4191.27	0.093664	0.273460	152.885	7322.71
385	2.000000	1.409327	7.36884e+06	-57839.1	1005.82	-29739.9	0.000000	0.000000	7.411820	53.1928	NaN	0.000000	0.001552	0.001678	28.0783	9.230721	0.001890	4884.4	5.329849	-169.088	52.9003	1.409034	0.113103	0.112810	53.1928	4884.4	0.104935	0.334603	158.973	7714.7
385	2.000000	1.421335	7.36884e+06	-57839.1	1005.82	-29739.9	0.000000	0.000000	7.424366	66.2809	NaN	0.000000	0.001565	0.001710	28.0785	10.0183	0.001942	5157.72	5.891750	-169.046	65.7873	1.421022	0.125111	0.124797	66.2809	5157.72	0.115473	0.396983	166.962	7479.03
385	2.000000	1.432830	7.36884e+06	-57839.1	1005.82	-29739.9	0.000000	0.000000	7.436397	79.316	NaN	0.000000	0.001657	0.001705	28.0782	11.5669	0.002003	5774.85	9.695385	5.577850	78.9186	1.432458	0.136606	0.136234	79.316	5774.85	0.126305	0.466357	170.076	7726

File: 2025-07-22_16-23-58_1_386.txt
2025-07-22, 16:23:58, 1
Index	Phase	Displacement	Time	Pos X	Pos Y	Pos Z	Rot A	Rot B	Piezo Z	Force A	Force B	Gripper	Voltage A	Voltage B	Temperature	Amplitude force	Amplitude pos	Stiffness	Phase shift	Phase excitation	Force A raw	Displacement raw	HMax	HMax raw	Real Force	Real Stiffness	Contact Depth	Area	Hardness	Reduced Mod.
[#]	[#]	[um]	[s]	[um]	[um]	[um]	[m°]	[m°]	[um]	[uN]	[uN]	[V]	[V]	[V]	[°C]	[uN]	[um]	[N/m]	[°]	[°]	[uN]	[um]	[um]	[um]	[uN]	[N/m]	[um]	[um^2]	[MPa]	[MPa]
386	1.000000	0.002407	7.36884e+06	-57789.1	1005.82	-29736.6	0.000000	0.000000	6.002800	-0.004917	NaN	0.000000	0.001687	0.001685	28.0796	0.073666	0.000955	77.098	-39.4068	-165.773	-0.025786	0.001127	-1.022866	-1.024146	-0.004917	77.098	-1.022818	-4.601144E+13	1.068565E-16	NaN
386	1.000000	0.042374	7.36884e+06	-57789.1	1005.82	-29736.6	0.000000	0.000000	6.042766	-0.033045	NaN	0.000000	0.001610	0.001651	28.0796	0.045674	0.002012	22.7059	-146.844	-165.287	-0.014357	0.041042	-0.982899	-0.984231	-0.033045	22.7059	-0.981807	-1.290494E+13	2.560644E-15	NaN
386	1.000000	0.082372	7.36884e+06	-57789.1	1005.82	-29736.6	0.000000	0.000000	6.082767	0.068076	NaN	0.000000	0.001619	0.001644	28.0795	0.056983	0.002038	27.9546	-63.0405	-166.513	0.075098	0.081096	-0.942901	-0.944177	0.068076	27.9546	-0.944728	-4.082408E+12	-1.667540E-14	NaN
386	1.000000	0.122412	7.36884e+06	-57789.1	1005.82	-29736.6	0.000000	0.000000	6.122807	0.067391	NaN	0.000000	0.001608	0.001668	28.0811	0.019994	0.002093	9.553425	-48.9181	-166.227	0.055449	0.121108	-0.902861	-0.904165	0.067391	9.553425	-0.908152	-1.309778E+12	-5.145255E-14	NaN
386	1.000000	0.162425	7.36884e+06	-57789.1	1005.82	-29736.6	0.000000	0.000000	6.162818	0.013549	NaN	0.000000	0.001567	0.001656	28.0809	0.013474	0.002017	6.681238	-178.861	-164.442	0.093030	0.161086	-0.862848	-0.864187	0.013549	6.681238	-0.864369	-3.351572E+11	-4.042694E-14	NaN
386	1.000000	0.202417	7.36884e+06	-57789.1	1005.82	-29736.6	0.000000	0.000000	6.202812	0.043805	NaN	0.000000	0.001620	0.001678	28.081	0.044021	0.001965	22.405	62.0403	-163.408	0.072597	0.201104	-0.822856	-0.824169	0.043805	22.405	-0.824322	-9.612051E+10	-4.557325E-13	NaN
386	1.000000	0.242442	7.36884e+06	-57789.1	1005.82	-29736.6	0.000000	0.000000	6.242840	0.112484	NaN	0.000000	0.001615	0.001674	28.0814	0.071898	0.002171	33.1249	87.4235	-161.935	0.093905	0.241163	-0.782831	-0.784110	0.112484	33.1249	-0.785378	-2.846401E+10	-3.951814E-12	NaN
386	1.000000	0.282448	7.36884e+06	-57789.1	1005.82	-29736.6	0.000000	0.000000	6.282841	0.012782	NaN	0.000000	0.001631	0.001722	28.0803	0.028574	0.001947	14.6746	-67.0691	-166.81	-0.014236	0.281128	-0.742825	-0.744145	0.012782	14.6746	-0.743478	-7.663454E+9	-1.667980E-12	NaN
386	1.000000	0.322482	7.36884e+06	-57789.1	1005.82	-29736.6	0.000000	0.000000	6.322873	-0.041170	NaN	0.000000	0.001608	0.001666	28.0799	0.045907	0.002103	21.8284	-96.4611	-166.52	-0.024788	0.321222	-0.702791	-0.704051	-0.041170	21.8284	-0.701376	-2.043260E+9	2.014931E-11	NaN
386	1.000000	0.362463	7.36884e+06	-57789.1	1005.82	-29736.6	0.000000	0.000000	6.362862	0.141429	NaN	0.000000	0.001601	0.001658	28.0801	0.005051	0.001986	2.542714	-69.7014	-167.517	0.052817	0.361168	-0.662810	-0.664105	0.141429	2.542714	-0.704526	-2.255943E+9	-6.269170E-11	NaN
386	1.000000	0.402491	7.36884e+06	-57789.1	1005.82	-29736.6	0.000000	0.000000	6.402885	0.016740	NaN	0.000000	0.001605	0.001643	28.0812	0.055687	0.001932	28.8221	143.082	-165.391	-0.019940	0.401252	-0.622782	-0.624021	0.016740	28.8221	-0.623218	-1.737211E+8	-9.636417E-11	NaN
386	1.000000	0.442514	7.36884e+06	-57789.1	1005.82	-29736.6	0.000000	0.000000	6.442912	0.134752	NaN	0.000000	0.001577	0.001685	28.0811	0.170430	0.001974	86.3553	-149.835	-165.961	0.211104	0.441245	-0.582759	-0.584027	0.134752	86.3553	-0.583929	-4.999698E+7	-2.695197E-9	NaN
386	1.000000	0.482549	7.36884e+06	-57789.1	1005.82	-29736.6	0.000000	0.000000	6.482944	0.045088	NaN	0.000000	0.001613	0.001666	28.0814	0.129298	0.002057	62.8629	157.078	-161.92	0.059044	0.481233	-0.542724	-0.544040	0.045088	62.8629	-0.543262	-1.369565E+7	-3.292169E-9	NaN
386	1.000000	0.522527	7.36884e+06	-57789.1	1005.82	-29736.6	0.000000	0.000000	6.522921	0.026456	NaN	0.000000	0.001602	0.001672	28.0804	0.092251	0.002054	44.9079	-92.6551	-167.307	0.108677	0.521252	-0.502746	-0.504021	0.026456	44.9079	-0.503188	-3.79737e+06	-6.967014E-9	NaN
386	1.000000	0.562579	7.36884e+06	-57789.1	1005.82	-29736.6	0.000000	0.000000	6.562971	0.001659	NaN	0.000000	0.001620	0.001685	28.0802	0.111921	0.002149	52.0759	163.414	-164.989	0.037159	0.561296	-0.462694	-0.463977	0.001659	52.0759	-0.462718	-1.03088e+06	-1.609339E-9	NaN
386	1.000000	0.602588	7.36884e+06	-57789.1	1005.82	-29736.6	0.000000	0.000000	6.602981	0.015543	NaN	0.000000	0.001614	0.001639	28.0801	0.071261	0.001873	38.0395	-62.5369	-164.649	0.013901	0.601252	-0.422685	-0.424021	0.015543	38.0395	-0.422992	-283682	-5.478956E-8	NaN
386	1.000000	0.642589	7.36884e+06	-57789.1	1005.82	-29736.6	0.000000	0.000000	6.642981	-0.001706	NaN	0.000000	0.001665	0.001632	28.08	0.096548	0.002088	46.2457	-62.624	-168.175	-0.024167	0.641302	-0.382684	-0.383971	-0.001706	46.2457	-0.382657	-75509	2.259600E-8	NaN
386	1.000000	0.682605	7.36884e+06	-57789.1	1005.82	-29736.6	0.000000	0.000000	6.682997	-0.024279	NaN	0.000000	0.001638	0.001669	28.0811	0.102767	0.002126	48.3346	35.2719	-165.004	0.011804	0.681315	-0.342668	-0.343958	-0.024279	48.3346	-0.342291	-19721.2	1.231136E-6	NaN
386	1.000000	0.722631	7.36884e+06	-57789.1	1005.82	-29736.6	0.000000	0.000000	6.723023	-0.002902	NaN	0.000000	0.001625	0.001704	28.0814	0.045620	0.001802	25.3217	162.81	-169.015	-0.008936	0.721323	-0.302642	-0.303950	-0.002902	25.3217	-0.302556	-5136.39	5.649209E-7	NaN
386	1.000000	0.762634	7.36884e+06	-57789.1	1005.82	-29736.6	0.000000	0.000000	6.763028	0.033452	NaN	0.000000	0.001548	0.001664	28.0811	0.068059	0.001918	35.4868	168.832	-167.888	-0.017351	0.761334	-0.262639	-0.263939	0.033452	35.4868	-0.263346	-1318.63	-2.536909E-5	NaN
386	1.000000	0.802657	7.36884e+06	-57789.1	1005.82	-29736.6	0.000000	0.000000	6.803050	0.019546	NaN	0.000000	0.001579	0.001669	28.0796	0.064079	0.001961	32.6793	-80.4732	-163.89	-0.021711	0.801365	-0.222616	-0.223908	0.019546	32.6793	-0.223065	-310.857	-6.287763E-5	NaN
386	1.000000	0.842696	7.36884e+06	-57789.1	1005.82	-29736.7	0.000000	0.000000	6.843089	0.008636	NaN	0.000000	0.001573	0.001639	28.0799	0.034480	0.002030	16.9835	48.813	-166	-0.000810	0.841396	-0.182577	-0.183877	0.008636	16.9835	-0.182958	-68.4939	-0.000126	NaN
386	1.000000	0.882692	7.36884e+06	-57789.1	1005.82	-29736.7	0.000000	0.000000	6.883086	0.037059	NaN	0.000000	0.001529	0.001604	28.0797	0.053261	0.001892	28.1442	-113.625	-166.026	-0.015243	0.881423	-0.142581	-0.143850	0.037059	28.1442	-0.143569	-13.7923	-0.002687	NaN
386	1.000000	0.922724	7.36884e+06	-57789.1	1005.82	-29736.7	0.000000	0.000000	6.923117	0.001231	NaN	0.000000	0.001660	0.001605	28.0799	0.012104	0.002073	5.839306	40.3945	-166.56	0.086336	0.921434	-0.102549	-0.103839	0.001231	5.839306	-0.102707	-2.095777	-0.000587	NaN
386	1.000000	0.962736	7.36884e+06	-57789.1	1005.82	-29736.7	0.000000	0.000000	6.963132	0.067538	NaN	0.000000	0.001592	0.001659	28.0812	0.084522	0.001970	42.8937	-116.77	-163.658	0.049975	0.961437	-0.062537	-0.063836	0.067538	42.8937	-0.063718	-0.229532	-0.294241	NaN
386	1.000000	1.002757	7.36884e+06	-57789.1	1005.82	-29736.7	0.000000	0.000000	7.003149	-0.020519	NaN	0.000000	0.001615	0.001632	28.0814	0.045868	0.001892	24.2446	-155.083	-166.7	0.058039	1.001456	-0.022516	-0.023817	-0.020519	24.2446	-0.021882	-0.014023	1.463172	NaN
386	2.000000	1.035402	7.36884e+06	-57789.1	1005.82	-29736.7	0.000000	0.000000	7.036242	10.8511	NaN	0.000000	0.001594	0.001622	28.0817	10.3286	0.001770	5836.15	6.444096	-171.096	11.3561	1.035118	0.010129	0.009845	10.8511	5836.15	0.008735	0.007809	1389.52	60338.6
386	2.000000	1.045350	7.36884e+06	-57789.1	1005.82	-29736.7	0.000000	0.000000	7.046867	27.32	NaN	0.000000	0.001587	0.001594	28.0811	20.6128	0.001693	12176.8	8.863064	179.342	28.9387	1.045078	0.020077	0.019805	27.32	12176.8	0.018395	0.020082	1360.4	78505.4
386	2.000000	1.055296	7.36884e+06	-57789.1	1005.82	-29736.7	0.000000	0.000000	7.058055	57.4885	NaN	0.000000	0.001647	0.001637	28.0817	31.6871	0.001730	18314.6	4.664460	-179.878	56.8957	1.054948	0.030024	0.029675	57.4885	18314.6	0.027669	0.036051	1594.63	88127.3
386	2.000000	1.065259	7.36884e+06	-57789.1	1005.82	-29736.7	0.000000	0.000000	7.069547	94.6667	NaN	0.000000	0.001659	0.001640	28.0819	43.4555	0.001864	23314.4	2.196668	179.605	93.2318	1.065053	0.039986	0.039780	94.6667	23314.4	0.036941	0.056361	1679.65	89724
386	2.000000	1.075240	7.36884e+06	-57789.1	1005.82	-29736.7	0.000000	0.000000	7.081964	153.874	NaN	0.000000	0.001669	0.001607	28.0812	53.1913	0.001760	30229.5	3.579888	175.857	151.898	1.074968	0.049967	0.049695	153.874	30229.5	0.046149	0.080884	1902.41	97112
386	2.000000	1.085189	7.36884e+06	-57789.1	1005.82	-29736.7	0.000000	0.000000	7.094970	228.172	NaN	0.000000	0.001620	0.001672	28.0815	64.1221	0.001873	34237.7	4.470994	174.366	223.321	1.084949	0.059916	0.059676	228.172	34237.7	0.054918	0.108217	2108.46	95088.8
386	2.000000	1.095215	7.36884e+06	-57789.1	1005.82	-29736.7	0.000000	0.000000	7.108181	305.566	NaN	0.000000	0.001629	0.001646	28.0815	75.3977	0.001762	42785.5	7.357942	169.351	302.867	1.095048	0.069942	0.069775	305.566	42785.5	0.064586	0.142764	2140.35	103457
386	2.000000	1.105183	7.36884e+06	-57789.1	1005.82	-29736.7	0.000000	0.000000	7.122069	400.845	NaN	0.000000	0.001608	0.001589	28.0815	84.5765	0.001635	51733.4	2.057569	173.598	396.681	1.104910	0.079910	0.079638	400.845	51733.4	0.074099	0.181162	2212.64	111048
386	2.000000	1.115159	7.36884e+06	-57789.1	1005.82	-29736.7	0.000000	0.000000	7.136145	500.501	NaN	0.000000	0.001667	0.001648	28.0802	95.271	0.001781	53497.7	8.209286	166.817	495.653	1.114911	0.089886	0.089638	500.501	53497.7	0.082869	0.220342	2271.47	104126
386	2.000000	1.125184	7.36884e+06	-57789.1	1005.82	-29736.7	0.000000	0.000000	7.150533	606.543	NaN	0.000000	0.001655	0.001675	28.0801	103.853	0.001752	59292.3	1.335516	173.828	605.063	1.124920	0.099911	0.099647	606.543	59292.3	0.092239	0.266138	2279.05	105007
386	2.000000	1.131890	7.36885e+06	-57789.1	1005.82	-29736.7	0.000000	0.000000	7.159825	669.38	NaN	0.000000	0.001666	0.001597	28.0802	112.795	0.001814	62196.6	11.8068	-16.3989	678.98	1.131343	0.106617	0.106070	669.38	62196.6	0.098546	0.299230	2237.01	103881