Folder: unikorn_login/remote_trans/data/nanoindenter/0828-1/data/Data_2025-08-06,11h17m57s (part 183)

File: 2025-07-22_16-23-58_1_383.txt
2025-07-22, 16:23:58, 1
Index	Phase	Displacement	Time	Pos X	Pos Y	Pos Z	Rot A	Rot B	Piezo Z	Force A	Force B	Gripper	Voltage A	Voltage B	Temperature	Amplitude force	Amplitude pos	Stiffness	Phase shift	Phase excitation	Force A raw	Displacement raw	HMax	HMax raw	Real Force	Real Stiffness	Contact Depth	Area	Hardness	Reduced Mod.
[#]	[#]	[um]	[s]	[um]	[um]	[um]	[m°]	[m°]	[um]	[uN]	[uN]	[V]	[V]	[V]	[°C]	[uN]	[um]	[N/m]	[°]	[°]	[uN]	[um]	[um]	[um]	[uN]	[N/m]	[um]	[um^2]	[MPa]	[MPa]
383	1.000000	0.002286	7.36881e+06	-57789.1	955.818	-29736.6	0.000000	0.000000	6.002758	0.028165	NaN	0.000000	0.001609	0.001650	28.0795	0.083691	0.000959	87.2963	-120.883	-159.153	0.100721	0.001075	-1.083768	-1.084980	0.028165	87.2963	-1.084010	-3.057575E+14	-9.211604E-17	NaN
383	1.000000	0.044293	7.36881e+06	-57789.1	955.819	-29736.6	0.000000	0.000000	6.044765	0.032412	NaN	0.000000	0.001574	0.001659	28.0799	0.008919	0.002058	4.334492	56.0007	18.9303	0.087587	0.042903	-1.041762	-1.043152	0.032412	4.334492	-1.047370	-9.841385E+13	-3.293394E-16	NaN
383	1.000000	0.086293	7.36881e+06	-57789.1	955.819	-29736.6	0.000000	0.000000	6.086766	0.041470	NaN	0.000000	0.001625	0.001670	28.0812	0.054044	0.002043	26.4593	-134.317	-163.761	0.075043	0.085024	-0.999762	-1.001031	0.041470	26.4593	-1.000937	-2.335529E+13	-1.775596E-15	NaN
383	1.000000	0.128303	7.36881e+06	-57789.1	955.819	-29736.6	0.000000	0.000000	6.128774	0.006617	NaN	0.000000	0.001639	0.001610	28.0811	0.064191	0.002010	31.9399	157.976	14.6405	0.082681	0.126959	-0.957752	-0.959095	0.006617	31.9399	-0.957907	-6.146892E+12	-1.076463E-15	NaN
383	1.000000	0.170312	7.36881e+06	-57789.1	955.819	-29736.6	0.000000	0.000000	6.170784	0.025790	NaN	0.000000	0.001593	0.001634	28.0814	0.037977	0.001951	19.4632	-160.928	-165.258	0.016799	0.168993	-0.915742	-0.917062	0.025790	19.4632	-0.916736	-1.710557E+12	-1.507686E-14	NaN
383	1.000000	0.212342	7.36881e+06	-57789.1	955.819	-29736.6	0.000000	0.000000	6.212811	-0.035028	NaN	0.000000	0.001617	0.001655	28.081	0.050688	0.002013	25.1767	-26.5916	16.4426	-0.021191	0.210982	-0.873713	-0.875072	-0.035028	25.1767	-0.872669	-4.340652E+11	8.069746E-14	NaN
383	1.000000	0.254362	7.36881e+06	-57789.1	955.819	-29736.6	0.000000	0.000000	6.254834	0.019738	NaN	0.000000	0.001608	0.001618	28.0799	0.180977	0.002002	90.3859	170.296	-165.459	0.023763	0.253067	-0.831692	-0.832987	0.019738	90.3859	-0.831856	-1.216016E+11	-1.623184E-13	NaN
383	1.000000	0.296372	7.36881e+06	-57789.1	955.82	-29736.6	0.000000	0.000000	6.296846	0.080122	NaN	0.000000	0.001625	0.001662	28.0799	0.021390	0.001943	11.0094	133.606	15.7927	0.061102	0.294921	-0.789682	-0.791133	0.080122	11.0094	-0.795141	-3.862698E+10	-2.074241E-12	NaN
383	1.000000	0.338407	7.36881e+06	-57789.1	955.819	-29736.6	0.000000	0.000000	6.338878	-0.007099	NaN	0.000000	0.001570	0.001626	28.0799	0.068652	0.001983	34.6275	-59.9559	-166.368	-0.004000	0.337150	-0.747647	-0.748904	-0.007099	34.6275	-0.747493	-8.691561E+9	8.168005E-13	NaN
383	1.000000	0.380429	7.36881e+06	-57789.1	955.819	-29736.6	0.000000	0.000000	6.380900	0.012647	NaN	0.000000	0.001583	0.001687	28.0809	0.090835	0.001880	48.3229	176.439	15.9102	-0.045670	0.379024	-0.705626	-0.707031	0.012647	48.3229	-0.705822	-2.349752E+9	-5.382280E-12	NaN
383	1.000000	0.422441	7.36881e+06	-57789.1	955.818	-29736.6	0.000000	0.000000	6.422915	0.077881	NaN	0.000000	0.001646	0.001645	28.0809	0.077877	0.002077	37.4913	122.097	-167.957	-0.005984	0.421188	-0.663614	-0.664867	0.077881	37.4913	-0.665172	-6.535700E+8	-1.191622E-10	NaN
383	1.000000	0.464449	7.36881e+06	-57789.1	955.819	-29736.6	0.000000	0.000000	6.464922	0.051348	NaN	0.000000	0.001597	0.001661	28.0809	0.049619	0.001993	24.8976	-7.771522	12.4433	0.049312	0.463091	-0.621606	-0.622964	0.051348	24.8976	-0.623152	-1.733633E+8	-2.961862E-10	NaN
383	1.000000	0.506512	7.36881e+06	-57789.1	955.819	-29736.6	0.000000	0.000000	6.506984	0.016559	NaN	0.000000	0.001578	0.001665	28.0797	0.140381	0.001977	71.0075	153.574	-165.005	0.024108	0.505127	-0.579542	-0.580927	0.016559	71.0075	-0.579717	-4.373423E+7	-3.786307E-10	NaN
383	1.000000	0.548490	7.36881e+06	-57789.1	955.819	-29736.6	0.000000	0.000000	6.548962	0.025645	NaN	0.000000	0.001588	0.001696	28.0795	0.061371	0.002068	29.6723	-22.1787	16.1709	-0.057726	0.547192	-0.537564	-0.538863	0.025645	29.6723	-0.538212	-1.165638E+7	-2.200040E-9	NaN
383	1.000000	0.590507	7.36881e+06	-57789.1	955.82	-29736.6	0.000000	0.000000	6.590979	0.020197	NaN	0.000000	0.001613	0.001673	28.0795	0.089531	0.001960	45.6897	-150.5	-164.144	0.035969	0.589229	-0.495548	-0.496826	0.020197	45.6897	-0.495879	-3.00267e+06	-6.726427E-9	NaN
383	1.000000	0.632537	7.36881e+06	-57789.1	955.819	-29736.6	0.000000	0.000000	6.633010	0.047157	NaN	0.000000	0.001597	0.001638	28.0805	0.030782	0.001990	15.4649	-3.435367	16.3226	-0.020567	0.631143	-0.453517	-0.454911	0.047157	15.4649	-0.455804	-824195	-5.721565E-8	NaN
383	1.000000	0.674540	7.36881e+06	-57789.1	955.819	-29736.6	0.000000	0.000000	6.675010	-0.010885	NaN	0.000000	0.001559	0.001669	28.0807	0.084110	0.001834	45.8603	-105.039	-167.392	-0.033126	0.673205	-0.411515	-0.412850	-0.010885	45.8603	-0.411337	-193823	5.616171E-8	NaN
383	1.000000	0.716548	7.36881e+06	-57789.1	955.82	-29736.6	0.000000	0.000000	6.717021	0.052142	NaN	0.000000	0.001646	0.001651	28.0806	0.101937	0.001977	51.5669	62.7484	15.851	-0.027969	0.715197	-0.369506	-0.370858	0.052142	51.5669	-0.370265	-50111.6	-1.040508E-6	NaN
383	1.000000	0.758590	7.36881e+06	-57789.1	955.819	-29736.6	0.000000	0.000000	6.759059	-0.049973	NaN	0.000000	0.001662	0.001662	28.081	0.072012	0.001941	37.1061	38.5612	-165.926	0.045839	0.757255	-0.327465	-0.328800	-0.049973	37.1061	-0.326455	-11574.1	4.317696E-6	NaN
383	1.000000	0.800602	7.36881e+06	-57789.1	955.819	-29736.6	0.000000	0.000000	6.801074	0.010463	NaN	0.000000	0.001593	0.001623	28.0796	0.101086	0.002118	47.7222	-72.5753	15.5075	0.075566	0.799187	-0.285452	-0.286868	0.010463	47.7222	-0.285617	-2867.7	-3.648590E-6	NaN
383	1.000000	0.842614	7.36881e+06	-57789.1	955.818	-29736.6	0.000000	0.000000	6.843082	-0.058243	NaN	0.000000	0.001604	0.001643	28.0794	0.053053	0.001917	27.6805	-44.4023	-165.173	-0.026745	0.841347	-0.243441	-0.244707	-0.058243	27.6805	-0.241863	-614.635	9.476086E-5	NaN
383	1.000000	0.884653	7.36881e+06	-57789.1	955.819	-29736.6	0.000000	0.000000	6.885123	-0.014407	NaN	0.000000	0.001580	0.001589	28.0797	0.068199	0.001852	36.8316	-85.4892	13.9354	-0.010571	0.883232	-0.201402	-0.202822	-0.014407	36.8316	-0.201108	-137.372	0.000105	NaN
383	1.000000	0.926632	7.36881e+06	-57789.1	955.819	-29736.6	0.000000	0.000000	6.927103	-0.003586	NaN	0.000000	0.001549	0.001622	28.0809	0.097754	0.002109	46.3505	75.5947	-166.332	-0.098789	0.925344	-0.159423	-0.160710	-0.003586	46.3505	-0.159364	-26.7106	0.000134	NaN
383	1.000000	0.968669	7.36881e+06	-57789.1	955.82	-29736.6	0.000000	0.000000	6.969141	0.016414	NaN	0.000000	0.001573	0.001628	28.081	0.074990	0.001951	38.4421	162.884	13.4617	0.049780	0.967302	-0.117386	-0.118753	0.016414	38.4421	-0.117706	-4.340686	-0.003782	NaN
383	1.000000	1.010682	7.36881e+06	-57789.1	955.819	-29736.6	0.000000	0.000000	7.011154	0.042283	NaN	0.000000	0.001565	0.001653	28.0816	0.063047	0.001889	33.3835	-28.5759	-163.973	0.019031	1.009383	-0.075373	-0.076672	0.042283	33.3835	-0.076323	-0.499562	-0.084639	NaN
383	1.000000	1.052709	7.36881e+06	-57789.1	955.819	-29736.6	0.000000	0.000000	7.053183	0.065394	NaN	0.000000	0.001580	0.001590	28.0798	0.017718	0.002040	8.683567	142.59	14.0644	0.003689	1.051322	-0.033345	-0.034733	0.065394	8.683567	-0.038993	-0.042154	-1.551336	NaN
383	1.000000	1.094709	7.36881e+06	-57789.1	955.82	-29736.6	0.000000	0.000000	7.095400	5.329553	NaN	0.000000	0.001678	0.001600	28.0797	5.831965	0.001818	3207.9	11.9871	-168.745	4.581124	1.093348	0.008655	0.007294	5.329553	3207.9	0.007409	0.006441	827.397	36517.8
383	2.000000	1.107687	7.36881e+06	-57789.1	955.82	-29736.6	0.000000	0.000000	7.108919	18.4964	NaN	0.000000	0.001572	0.001602	28.0796	16.5739	0.001827	9070.2	10.7982	2.526487	18.4086	1.107313	0.021632	0.021258	18.4964	9070.2	0.020103	0.022704	814.678	54997.1
383	2.000000	1.118196	7.36881e+06	-57789.1	955.82	-29736.6	0.000000	0.000000	7.120303	39.7676	NaN	0.000000	0.001555	0.001604	28.0807	26.2213	0.001738	15084.9	4.092689	-178.088	39.9018	1.117872	0.032141	0.031818	39.7676	15084.9	0.030164	0.041084	967.961	67995.3
383	2.000000	1.128659	7.36881e+06	-57789.1	955.819	-29736.6	0.000000	0.000000	7.132134	73.0089	NaN	0.000000	0.001562	0.001599	28.0809	36.3824	0.001721	21139	6.211879	-2.519789	72.849	1.128165	0.042605	0.042111	73.0089	21139	0.040014	0.064065	1139.6	76304
383	2.000000	1.139096	7.36881e+06	-57789.1	955.821	-29736.6	0.000000	0.000000	7.144027	108.388	NaN	0.000000	0.001607	0.001648	28.0808	46.1324	0.001935	23845.2	7.188542	176.047	106.662	1.138790	0.053042	0.052735	108.388	23845.2	0.049633	0.091281	1187.41	72108.2
383	2.000000	1.149622	7.36881e+06	-57789.1	955.821	-29736.6	0.000000	0.000000	7.156352	152.122	NaN	0.000000	0.001671	0.001639	28.081	55.2422	0.001804	30627.6	4.647411	-4.111482	151.032	1.149169	0.063568	0.063114	152.122	30627.6	0.059843	0.125244	1214.6	79069.2
383	2.000000	1.160173	7.36881e+06	-57789.1	955.821	-29736.6	0.000000	0.000000	7.168937	201.551	NaN	0.000000	0.001609	0.001640	28.08	66.2207	0.001825	36294.8	2.840220	176.399	204.726	1.159870	0.074119	0.073816	201.551	36294.8	0.069954	0.163900	1229.72	81908.5
383	2.000000	1.170618	7.36881e+06	-57789.1	955.822	-29736.6	0.000000	0.000000	7.181873	262.098	NaN	0.000000	0.001600	0.001626	28.0801	74.9777	0.001836	40837.8	4.073592	-5.603718	261.918	1.170314	0.084564	0.084259	262.098	40837.8	0.079750	0.205996	1272.35	82206.5
383	2.000000	1.181086	7.36881e+06	-57789.1	955.821	-29736.6	0.000000	0.000000	7.195030	327.445	NaN	0.000000	0.001587	0.001552	28.08	84.1316	0.001767	47603.6	4.516299	172.332	327.471	1.180688	0.095031	0.094633	327.445	47603.6	0.089872	0.254190	1288.19	86264.8
383	2.000000	1.191548	7.36881e+06	-57789.1	955.82	-29736.6	0.000000	0.000000	7.208129	391.527	NaN	0.000000	0.001569	0.001513	28.0815	92.9383	0.001812	51288.2	5.921192	-9.331139	388.412	1.191073	0.105494	0.105019	391.527	51288.2	0.099768	0.305855	1280.11	84729.2
383	2.000000	1.196543	7.36881e+06	-57789.1	955.821	-29736.6	0.000000	0.000000	7.214734	430.653	NaN	0.000000	0.001545	0.001557	28.0812	97.0936	0.001784	54413.4	9.588534	-13.5884	425.926	1.196128	0.110489	0.110073	430.653	54413.4	0.104553	0.332434	1295.45	86223.7

File: 2025-07-22_16-23-58_1_384.txt
2025-07-22, 16:23:58, 1
Index	Phase	Displacement	Time	Pos X	Pos Y	Pos Z	Rot A	Rot B	Piezo Z	Force A	Force B	Gripper	Voltage A	Voltage B	Temperature	Amplitude force	Amplitude pos	Stiffness	Phase shift	Phase excitation	Force A raw	Displacement raw	HMax	HMax raw	Real Force	Real Stiffness	Contact Depth	Area	Hardness	Reduced Mod.
[#]	[#]	[um]	[s]	[um]	[um]	[um]	[m°]	[m°]	[um]	[uN]	[uN]	[V]	[V]	[V]	[°C]	[uN]	[um]	[N/m]	[°]	[°]	[uN]	[um]	[um]	[um]	[uN]	[N/m]	[um]	[um^2]	[MPa]	[MPa]
384	1.000000	0.002858	7.36882e+06	-57839.1	955.818	-29739.7	0.000000	0.000000	6.002792	-0.026636	NaN	0.000000	0.001570	0.001571	28.0789	0.025176	0.000946	26.6104	-17.0762	-163.425	0.011018	0.001680	-1.322391	-1.323568	-0.026636	26.6104	-1.321640	-4.650652E+17	5.727393E-20	NaN
384	1.000000	0.050813	7.36882e+06	-57839.1	955.819	-29739.7	0.000000	0.000000	6.050745	-0.080512	NaN	0.000000	0.001635	0.001581	28.0788	0.051554	0.001964	26.2523	4.017513	-164.119	0.044795	0.049527	-1.274435	-1.275722	-0.080512	26.2523	-1.272135	-1.013776E+17	7.941815E-19	NaN
384	1.000000	0.098839	7.36882e+06	-57839.1	955.817	-29739.7	0.000000	0.000000	6.098772	-0.043238	NaN	0.000000	0.001623	0.001608	28.08	0.021181	0.002087	10.1513	-107.213	-164.286	0.022557	0.097508	-1.226410	-1.227741	-0.043238	10.1513	-1.223215	-2.246677E+16	1.924537E-18	NaN
384	1.000000	0.146888	7.36882e+06	-57839.1	955.818	-29739.7	0.000000	0.000000	6.146826	0.071746	NaN	0.000000	0.001624	0.001587	28.0798	0.038730	0.001992	19.4382	74.4177	-164.765	0.075624	0.145510	-1.178360	-1.179738	0.071746	19.4382	-1.181129	-6.137508E+15	-1.168984E-17	NaN
384	1.000000	0.194833	7.36882e+06	-57839.1	955.817	-29739.7	0.000000	0.000000	6.194768	-0.024786	NaN	0.000000	0.001633	0.001598	28.0799	0.079572	0.001844	43.1421	112.576	-168.489	-0.016865	0.193549	-1.130415	-1.131699	-0.024786	43.1421	-1.129984	-1.265933E+15	1.957953E-17	NaN
384	1.000000	0.242890	7.36882e+06	-57839.1	955.819	-29739.7	0.000000	0.000000	6.242823	-0.059371	NaN	0.000000	0.001563	0.001638	28.0785	0.054207	0.001938	27.9701	89.804	-166.936	-0.070739	0.241615	-1.082358	-1.083633	-0.059371	27.9701	-1.080766	-2.765755E+14	2.146662E-16	NaN
384	1.000000	0.290895	7.36882e+06	-57839.1	955.818	-29739.7	0.000000	0.000000	6.290830	-0.012351	NaN	0.000000	0.001580	0.001555	28.0788	0.114368	0.002027	56.4141	135.712	-168.681	-0.040576	0.289634	-1.034354	-1.035614	-0.012351	56.4141	-1.034190	-6.543798E+13	1.887496E-16	NaN
384	1.000000	0.338952	7.36882e+06	-57839.1	955.818	-29739.7	0.000000	0.000000	6.338886	-0.030874	NaN	0.000000	0.001531	0.001597	28.0783	0.035888	0.002069	17.3466	-113.987	-165.549	0.002000	0.337632	-0.986297	-0.987617	-0.030874	17.3466	-0.984962	-1.423167E+13	2.169360E-15	NaN
384	1.000000	0.386970	7.36882e+06	-57839.1	955.819	-29739.7	0.000000	0.000000	6.386905	-0.015377	NaN	0.000000	0.001640	0.001563	28.0799	0.048574	0.001988	24.4353	19.6094	-164.506	-0.036743	0.385647	-0.938278	-0.939601	-0.015377	24.4353	-0.937806	-3.292612E+12	4.670162E-15	NaN
384	1.000000	0.434986	7.36882e+06	-57839.1	955.818	-29739.7	0.000000	0.000000	6.434922	0.005874	NaN	0.000000	0.001568	0.001607	28.0803	0.069336	0.002102	32.98	-133.914	-164.267	-0.014435	0.433654	-0.890262	-0.891595	0.005874	32.98	-0.890396	-7.538128E+11	-7.792390E-15	NaN
384	1.000000	0.483014	7.36882e+06	-57839.1	955.818	-29739.7	0.000000	0.000000	6.482950	0.011411	NaN	0.000000	0.001633	0.001630	28.0801	0.039133	0.001983	19.7363	168.866	-164.493	-0.047633	0.481662	-0.842235	-0.843587	0.011411	19.7363	-0.842668	-1.703882E+11	-6.696824E-14	NaN
384	1.000000	0.531024	7.36882e+06	-57839.1	955.817	-29739.7	0.000000	0.000000	6.530958	-0.027797	NaN	0.000000	0.001553	0.001635	28.0788	0.034627	0.002093	16.5456	-144.477	-165.098	-0.004715	0.529706	-0.794225	-0.795542	-0.027797	16.5456	-0.792965	-3.608679E+10	7.702806E-13	NaN
384	1.000000	0.579036	7.36882e+06	-57839.1	955.819	-29739.7	0.000000	0.000000	6.578969	-0.057563	NaN	0.000000	0.001585	0.001602	28.0789	0.057200	0.001963	29.1421	-169.587	-162.083	0.017867	0.577745	-0.746212	-0.747503	-0.057563	29.1421	-0.744731	-7.970503E+9	7.221989E-12	NaN
384	1.000000	0.627042	7.36882e+06	-57839.1	955.818	-29739.7	0.000000	0.000000	6.626977	-0.011224	NaN	0.000000	0.001575	0.001617	28.0798	0.100524	0.002023	49.6839	173.827	-163.049	0.009068	0.625741	-0.698207	-0.699507	-0.011224	49.6839	-0.698037	-1.839616E+9	6.101331E-12	NaN
384	1.000000	0.675078	7.36882e+06	-57839.1	955.818	-29739.7	0.000000	0.000000	6.675014	0.005245	NaN	0.000000	0.001597	0.001689	28.0803	0.032757	0.001944	16.8464	64.3338	-161.914	-0.084734	0.673716	-0.650170	-0.651533	0.005245	16.8464	-0.650403	-4.101738E+8	-1.278824E-11	NaN
384	1.000000	0.723079	7.36882e+06	-57839.1	955.818	-29739.7	0.000000	0.000000	6.723014	-0.013773	NaN	0.000000	0.001586	0.001679	28.0797	0.044872	0.001920	23.3656	20.8707	-164.436	0.002751	0.721774	-0.602169	-0.603475	-0.013773	23.3656	-0.601727	-8.795214E+7	1.565946E-10	NaN
384	1.000000	0.771102	7.36882e+06	-57839.1	955.819	-29739.7	0.000000	0.000000	6.771037	-0.014657	NaN	0.000000	0.001617	0.001688	28.0788	0.102703	0.001961	52.3735	21.1733	-162.412	-0.022674	0.769821	-0.554146	-0.555427	-0.014657	52.3735	-0.553936	-1.925135E+7	7.613392E-10	NaN
384	1.000000	0.819118	7.36882e+06	-57839.1	955.818	-29739.7	0.000000	0.000000	6.819052	-0.032874	NaN	0.000000	0.001604	0.001641	28.0788	0.009231	0.001937	4.764726	74.0935	-167.201	0.050232	0.817787	-0.506131	-0.507462	-0.032874	4.764726	-0.500956	-3.53475e+06	9.300220E-9	NaN
384	1.000000	0.867169	7.36882e+06	-57839.1	955.817	-29739.7	0.000000	0.000000	6.867103	-0.018431	NaN	0.000000	0.001608	0.001679	28.0789	0.142930	0.002052	69.6625	110.54	-166.623	-0.043679	0.865818	-0.458080	-0.459430	-0.018431	69.6625	-0.457882	-881537	2.090767E-8	NaN
384	1.000000	0.915170	7.36882e+06	-57839.1	955.819	-29739.7	0.000000	0.000000	6.915105	-0.001880	NaN	0.000000	0.001615	0.001646	28.08	0.033892	0.002103	16.115	-25.6852	-166.207	0.023770	0.913880	-0.410078	-0.411368	-0.001880	16.115	-0.409991	-185469	1.013633E-8	NaN
384	1.000000	0.963187	7.36882e+06	-57839.1	955.817	-29739.7	0.000000	0.000000	6.963120	-0.055737	NaN	0.000000	0.001617	0.001666	28.0805	0.138184	0.002071	66.7072	-32.7262	-168.733	-0.079038	0.961893	-0.362062	-0.363356	-0.055737	66.7072	-0.361435	-37375	1.491297E-6	NaN
384	1.000000	1.011204	7.36882e+06	-57839.1	955.817	-29739.7	0.000000	0.000000	7.011139	-0.034329	NaN	0.000000	0.001593	0.001672	28.0799	0.078534	0.002048	38.3524	-53.5204	-163.774	0.014868	1.009921	-0.314044	-0.315328	-0.034329	38.3524	-0.313373	-7428.85	4.621097E-6	NaN
384	1.000000	1.059242	7.36882e+06	-57839.1	955.818	-29739.7	0.000000	0.000000	7.059177	-0.014102	NaN	0.000000	0.001576	0.001693	28.0788	0.011072	0.001963	5.641011	-17.4319	-166.896	-0.031348	1.057949	-0.266006	-0.267299	-0.014102	5.641011	-0.264131	-1355.59	1.040279E-5	NaN
384	1.000000	1.107200	7.36882e+06	-57839.1	955.819	-29739.7	0.000000	0.000000	7.107133	-0.058119	NaN	0.000000	0.001613	0.001647	28.0786	0.064658	0.001854	34.8706	36.7427	-164.732	-0.078518	1.105940	-0.218049	-0.219308	-0.058119	34.8706	-0.216798	-246.836	0.000235	NaN
384	1.000000	1.155253	7.36882e+06	-57839.1	955.818	-29739.7	0.000000	0.000000	7.155188	-0.011277	NaN	0.000000	0.001528	0.001678	28.0787	0.040984	0.001986	20.634	104.37	-167.048	0.023954	1.153976	-0.169995	-0.171272	-0.011277	20.634	-0.169585	-40.4027	0.000279	NaN
384	1.000000	1.203282	7.36882e+06	-57839.1	955.82	-29739.7	0.000000	0.000000	7.203215	-0.052789	NaN	0.000000	0.001574	0.001685	28.0835	0.088220	0.002054	42.9605	115.276	-164.039	-0.045208	1.201931	-0.121967	-0.123318	-0.052789	42.9605	-0.121045	-5.071462	0.010409	NaN
384	1.000000	1.251319	7.36882e+06	-57839.1	955.819	-29739.7	0.000000	0.000000	7.251251	-0.089377	NaN	0.000000	0.001589	0.001653	28.0802	0.085044	0.001933	43.9913	101.607	-170.481	-0.079994	1.250007	-0.073930	-0.075242	-0.089377	43.9913	-0.072406	-0.395184	0.226165	NaN
384	1.000000	1.299324	7.36882e+06	-57839.1	955.82	-29739.7	0.000000	0.000000	7.299259	-0.001883	NaN	0.000000	0.001592	0.001696	28.0802	0.053456	0.001968	27.1587	-20.116	-168.78	0.021516	1.298054	-0.025925	-0.027194	-0.001883	27.1587	-0.025873	-0.017784	0.105853	NaN
384	1.000000	1.347374	7.36882e+06	-57839.1	955.818	-29739.7	0.000000	0.000000	7.347659	8.488856	NaN	0.000000	0.001606	0.001636	28.0786	3.076651	0.001994	1542.81	13.4534	-168.681	7.696159	1.346077	0.022125	0.020828	8.488856	1542.81	0.017999	0.019494	435.45	10095.6
384	2.000000	1.360822	7.36882e+06	-57839.1	955.818	-29739.7	0.000000	0.000000	7.361513	18.3432	NaN	0.000000	0.001616	0.001620	28.0791	4.639068	0.001985	2337.24	7.729900	-168.95	18.0035	1.360562	0.035574	0.035314	18.3432	2337.24	0.029688	0.040099	457.45	10663.8
384	2.000000	1.372795	7.36882e+06	-57839.1	955.819	-29739.7	0.000000	0.000000	7.373989	30.5735	NaN	0.000000	0.001619	0.001639	28.0799	6.116441	0.001948	3140.23	7.646555	-171.328	30.3882	1.372526	0.047547	0.047278	30.5735	3140.23	0.040245	0.064662	472.82	11282.6
384	2.000000	1.384799	7.36882e+06	-57839.1	955.819	-29739.7	0.000000	0.000000	7.386637	46.2312	NaN	0.000000	0.001621	0.001636	28.0812	7.147940	0.002022	3535.15	7.308025	-172.713	46.075	1.384494	0.059551	0.059245	46.2312	3535.15	0.049743	0.091619	504.601	10670.6
384	2.000000	1.396750	7.36882e+06	-57839.1	955.819	-29739.7	0.000000	0.000000	7.399319	64.015	NaN	0.000000	0.001594	0.001639	28.08	8.074084	0.001812	4454.67	4.542440	-172.98	63.69	1.396410	0.071501	0.071162	64.015	4454.67	0.060724	0.128416	498.495	11357.4
384	2.000000	1.408784	7.36882e+06	-57839.1	955.819	-29739.7	0.000000	0.000000	7.412141	83.1498	NaN	0.000000	0.001609	0.001541	28.0789	9.282393	0.002066	4492.42	5.895406	-171.988	83.0626	1.408438	0.083536	0.083190	83.1498	4492.42	0.069654	0.162684	511.113	10176.1
384	2.000000	1.420748	7.36882e+06	-57839.1	955.819	-29739.7	0.000000	0.000000	7.424981	104.448	NaN	0.000000	0.001617	0.001574	28.0788	10.5575	0.002018	5232.8	7.480150	-175.006	103.945	1.420398	0.095499	0.095150	104.448	5232.8	0.080529	0.209536	498.472	10444.2
384	2.000000	1.432711	7.36882e+06	-57839.1	955.821	-29739.7	0.000000	0.000000	7.437927	128.346	NaN	0.000000	0.001601	0.001581	28.0789	11.3308	0.001875	6042.94	5.723318	-174.69	127.404	1.432366	0.107462	0.107118	128.346	6042.94	0.091533	0.262550	488.844	10775
384	2.000000	1.444728	7.36882e+06	-57839.1	955.819	-29739.7	0.000000	0.000000	7.450926	152.205	NaN	0.000000	0.001581	0.001625	28.08	12.7679	0.001949	6550.85	4.684386	-173.984	151.952	1.444344	0.119480	0.119096	152.205	6550.85	0.102054	0.318422	477.996	10606.4
384	2.000000	1.448198	7.36882e+06	-57839.1	955.819	-29739.7	0.000000	0.000000	7.454647	158.307	NaN	0.000000	0.001598	0.001594	28.08	12.8645	0.001932	6657.64	3.104313	7.376736	157.317	1.447884	0.122949	0.122635	158.307	6657.64	0.105116	0.335629	471.674	10499.4