Folder: unikorn_login/remote_trans/data/nanoindenter/0828-1/data/Data_2025-08-06,11h17m57s (part 117)

File: 2025-07-22_16-23-58_1_251.txt
2025-07-22, 16:23:58, 1
Index	Phase	Displacement	Time	Pos X	Pos Y	Pos Z	Rot A	Rot B	Piezo Z	Force A	Force B	Gripper	Voltage A	Voltage B	Temperature	Amplitude force	Amplitude pos	Stiffness	Phase shift	Phase excitation	Force A raw	Displacement raw	HMax	HMax raw	Real Force	Real Stiffness	Contact Depth	Area	Hardness	Reduced Mod.
[#]	[#]	[um]	[s]	[um]	[um]	[um]	[m°]	[m°]	[um]	[uN]	[uN]	[V]	[V]	[V]	[°C]	[uN]	[um]	[N/m]	[°]	[°]	[uN]	[um]	[um]	[um]	[uN]	[N/m]	[um]	[um^2]	[MPa]	[MPa]
251	1.000000	0.002261	7.3675e+06	-51189.1	955.82	-29753.4	0.000000	0.000000	6.002790	0.046876	NaN	0.000000	0.001612	0.001683	28.0789	0.039180	0.000968	40.4955	124.462	-161.152	0.050500	0.000975	-1.152221	-1.153506	0.046876	40.4955	-1.153089	-2.583611E+15	-1.814351E-17	NaN
251	1.000000	0.044206	7.3675e+06	-51189.1	955.818	-29753.4	0.000000	0.000000	6.044733	-0.000752	NaN	0.000000	0.001616	0.001644	28.079	0.104926	0.001953	53.7192	-45.9719	17.3468	-0.010236	0.042848	-1.110275	-1.111634	-0.000752	53.7192	-1.110265	-6.883972E+14	1.092550E-18	NaN
251	1.000000	0.086230	7.3675e+06	-51189.1	955.819	-29753.4	0.000000	0.000000	6.086757	0.005774	NaN	0.000000	0.001572	0.001668	28.0784	0.047144	0.002024	23.294	-75.2535	-165.154	0.037836	0.084951	-1.068251	-1.069531	0.005774	23.294	-1.068437	-1.888840E+14	-3.057028E-17	NaN
251	1.000000	0.128246	7.3675e+06	-51189.1	955.819	-29753.4	0.000000	0.000000	6.128770	-0.058643	NaN	0.000000	0.001585	0.001652	28.0779	0.023843	0.002049	11.6383	-128.878	15.4373	-0.051925	0.126901	-1.026235	-1.027581	-0.058643	11.6383	-1.022456	-4.549897E+13	1.288887E-15	NaN
251	1.000000	0.170252	7.3675e+06	-51189.1	955.82	-29753.4	0.000000	0.000000	6.170779	-0.003862	NaN	0.000000	0.001587	0.001660	28.078	0.038805	0.002015	19.2577	-57.0718	-166.686	-0.021859	0.168917	-0.984229	-0.985565	-0.003862	19.2577	-0.984079	-1.384718E+13	2.789214E-16	NaN
251	1.000000	0.212281	7.3675e+06	-51189.1	955.819	-29753.4	0.000000	0.000000	6.212806	-0.050627	NaN	0.000000	0.001575	0.001688	28.0789	0.076515	0.002131	35.9106	158.159	17.2335	-0.042480	0.210905	-0.942200	-0.943577	-0.050627	35.9106	-0.941143	-3.652239E+12	1.386194E-14	NaN
251	1.000000	0.254289	7.3675e+06	-51189.1	955.818	-29753.4	0.000000	0.000000	6.254815	-0.015387	NaN	0.000000	0.001538	0.001643	28.0789	0.045434	0.001974	23.0221	-44.5806	-163.442	-0.082115	0.253010	-0.900193	-0.901472	-0.015387	23.0221	-0.899691	-1.006688E+12	1.528478E-14	NaN
251	1.000000	0.296330	7.36751e+06	-51189.1	955.819	-29753.4	0.000000	0.000000	6.296859	0.051828	NaN	0.000000	0.001563	0.001635	28.0789	0.083156	0.001957	42.4813	-49.4033	16.556	-0.003508	0.295007	-0.858152	-0.859475	0.051828	42.4813	-0.859067	-2.841113E+11	-1.824205E-13	NaN
251	1.000000	0.338346	7.36751e+06	-51189.1	955.819	-29753.4	0.000000	0.000000	6.338874	0.019538	NaN	0.000000	0.001544	0.001643	28.078	0.082146	0.002014	40.7792	-0.081609	-168.555	0.013747	0.337037	-0.816135	-0.817445	0.019538	40.7792	-0.816494	-7.527817E+10	-2.595450E-13	NaN
251	1.000000	0.380360	7.36751e+06	-51189.1	955.818	-29753.4	0.000000	0.000000	6.380886	-0.028441	NaN	0.000000	0.001545	0.001666	28.0781	0.076192	0.002018	37.7645	120.361	17.3246	-0.052788	0.378967	-0.774121	-0.775515	-0.028441	37.7645	-0.773557	-1.966337E+10	1.446417E-12	NaN
251	1.000000	0.422373	7.36751e+06	-51189.1	955.818	-29753.4	0.000000	0.000000	6.422900	0.001664	NaN	0.000000	0.001579	0.001684	28.0779	0.101190	0.002006	50.4431	-100.113	-166.766	0.037633	0.421078	-0.732108	-0.733404	0.001664	50.4431	-0.732133	-5.368779E+9	-3.099061E-13	NaN
251	1.000000	0.464408	7.36751e+06	-51189.1	955.819	-29753.4	0.000000	0.000000	6.464935	0.002807	NaN	0.000000	0.001548	0.001698	28.0794	0.025852	0.001916	13.4928	-137.085	14.3001	-0.024309	0.463050	-0.690073	-0.691431	0.002807	13.4928	-0.690229	-1.438978E+9	-1.950596E-12	NaN
251	1.000000	0.506391	7.36751e+06	-51189.1	955.819	-29753.4	0.000000	0.000000	6.506916	-0.029596	NaN	0.000000	0.001508	0.001708	28.0795	0.019276	0.001972	9.772702	-32.072	-162.345	-0.061398	0.505120	-0.648091	-0.649361	-0.029596	9.772702	-0.645820	-3.549088E+8	8.339083E-11	NaN
251	1.000000	0.548462	7.36751e+06	-51189.1	955.82	-29753.4	0.000000	0.000000	6.548987	-0.041001	NaN	0.000000	0.001587	0.001706	28.0795	0.045821	0.001917	23.903	-48.6706	16.2423	-0.035731	0.547054	-0.606020	-0.607428	-0.041001	23.903	-0.604733	-9.674605E+7	4.238047E-10	NaN
251	1.000000	0.590470	7.36751e+06	-51189.1	955.818	-29753.4	0.000000	0.000000	6.590996	-0.025010	NaN	0.000000	0.001612	0.001671	28.0791	0.021770	0.002019	10.781	80.2658	-164.687	-0.079438	0.589137	-0.564012	-0.565344	-0.025010	10.781	-0.562272	-2.510730E+7	9.961279E-10	NaN
251	1.000000	0.632483	7.36751e+06	-51189.1	955.818	-29753.4	0.000000	0.000000	6.633008	-0.040422	NaN	0.000000	0.001549	0.001657	28.0774	0.108212	0.001935	55.9294	150.341	9.663508	-0.029864	0.631060	-0.521998	-0.523422	-0.040422	55.9294	-0.521456	-6.82097e+06	5.926173E-9	NaN
251	1.000000	0.674508	7.36751e+06	-51189.1	955.819	-29753.4	0.000000	0.000000	6.675033	-0.031393	NaN	0.000000	0.001611	0.001714	28.0778	0.089130	0.001983	44.9497	132.497	-163.805	-0.061459	0.673149	-0.479974	-0.481333	-0.031393	44.9497	-0.479450	-1.76942e+06	1.774186E-8	NaN
251	1.000000	0.716502	7.36751e+06	-51189.1	955.818	-29753.4	0.000000	0.000000	6.717028	0.003583	NaN	0.000000	0.001590	0.001703	28.0781	0.049376	0.001881	26.2505	-155.641	15.8045	0.033029	0.715173	-0.437980	-0.439308	0.003583	26.2505	-0.438082	-463760	-7.726758E-9	NaN
251	1.000000	0.758512	7.36751e+06	-51189.1	955.819	-29753.4	0.000000	0.000000	6.759034	-0.119214	NaN	0.000000	0.001540	0.001708	28.0794	0.052466	0.002068	25.3648	-98.2897	-165.939	-0.091641	0.757295	-0.395969	-0.397186	-0.119214	25.3648	-0.392444	-104260	1.143432E-6	NaN
251	1.000000	0.800548	7.36751e+06	-51189.1	955.819	-29753.4	0.000000	0.000000	6.801074	0.000749	NaN	0.000000	0.001515	0.001700	28.0794	0.052523	0.001946	26.9868	-59.2221	13.895	0.000260	0.799170	-0.353934	-0.355311	0.000749	26.9868	-0.353955	-29130.7	-2.572341E-8	NaN
251	1.000000	0.842554	7.36751e+06	-51189.1	955.818	-29753.4	0.000000	0.000000	6.843077	-0.090479	NaN	0.000000	0.001521	0.001744	28.0792	0.092184	0.001971	46.7699	127.13	-164.219	-0.056824	0.841234	-0.311927	-0.313248	-0.090479	46.7699	-0.310476	-6731.34	1.344152E-5	NaN
251	1.000000	0.884555	7.36751e+06	-51189.1	955.819	-29753.4	0.000000	0.000000	6.885081	-0.020137	NaN	0.000000	0.001565	0.001695	28.0779	0.012640	0.002148	5.884186	78.9818	16.1207	-0.064268	0.883230	-0.269926	-0.271251	-0.020137	5.884186	-0.267360	-1518.33	1.326239E-5	NaN
251	1.000000	0.926590	7.36751e+06	-51189.1	955.818	-29753.4	0.000000	0.000000	6.927117	0.012985	NaN	0.000000	0.001526	0.001692	28.078	0.022785	0.002005	11.3664	-57.0872	-167.409	-0.035665	0.925323	-0.227892	-0.229159	0.012985	11.3664	-0.228749	-382.599	-3.394018E-5	NaN
251	1.000000	0.968594	7.36751e+06	-51189.1	955.819	-29753.4	0.000000	0.000000	6.969119	-0.022091	NaN	0.000000	0.001595	0.001661	28.0781	0.114630	0.002047	56.01	122.962	14.8283	0.012329	0.967288	-0.185888	-0.187194	-0.022091	56.01	-0.185592	-75.8767	0.000291	NaN
251	1.000000	1.010613	7.36751e+06	-51189.1	955.817	-29753.4	0.000000	0.000000	7.011137	-0.057606	NaN	0.000000	0.001580	0.001691	28.0794	0.144799	0.001955	74.0502	-130.432	-169.272	-0.117531	1.009321	-0.143869	-0.145160	-0.057606	74.0502	-0.143285	-13.6258	0.004228	NaN
251	1.000000	1.052618	7.36751e+06	-51189.1	955.82	-29753.4	0.000000	0.000000	7.053143	-0.046504	NaN	0.000000	0.001588	0.001677	28.0794	0.145054	0.002020	71.7942	-162.042	14.469	-0.062612	1.051310	-0.101863	-0.103172	-0.046504	71.7942	-0.101377	-1.959727	0.023730	NaN
251	1.000000	1.094647	7.36751e+06	-51189.1	955.819	-29753.4	0.000000	0.000000	7.095170	-0.096161	NaN	0.000000	0.001576	0.001689	28.0793	0.074139	0.001933	38.3594	-27.1951	-162.692	-0.064027	1.093306	-0.059834	-0.061176	-0.096161	38.3594	-0.057954	-0.157190	0.611752	NaN
251	1.000000	1.136696	7.36751e+06	-51189.1	955.818	-29753.4	0.000000	0.000000	7.137221	-0.033461	NaN	0.000000	0.001579	0.001706	28.079	0.052719	0.001976	26.6806	-22.2058	14.1543	-0.140469	1.135317	-0.017785	-0.019165	-0.033461	26.6806	-0.016845	-0.010412	3.213818	NaN
251	2.000000	1.168211	7.36751e+06	-51189.1	955.819	-29753.4	0.000000	0.000000	7.169324	14.2546	NaN	0.000000	0.001565	0.001656	28.0779	13.574	0.001784	7609.96	10.9687	-177.896	14.4068	1.167916	0.013730	0.013434	14.2546	7609.96	0.012325	0.011882	1199.72	63784.8
251	2.000000	1.178615	7.36751e+06	-51189.1	955.82	-29753.4	0.000000	0.000000	7.180669	37.1332	NaN	0.000000	0.001556	0.001704	28.0778	24.0855	0.001751	13756.8	7.421006	-0.312653	34.8011	1.178286	0.024134	0.023804	37.1332	13756.8	0.022109	0.025966	1430.09	77999.7
251	2.000000	1.189134	7.36751e+06	-51189.1	955.819	-29753.4	0.000000	0.000000	7.192357	65.5652	NaN	0.000000	0.001591	0.001723	28.0779	35.1713	0.001697	20725.5	7.996147	175.01	65.6058	1.188863	0.034653	0.034381	65.5652	20725.5	0.032280	0.045602	1437.76	88671.6
251	2.000000	1.199580	7.36751e+06	-51189.1	955.819	-29753.4	0.000000	0.000000	7.204495	106.715	NaN	0.000000	0.001653	0.001678	28.0799	43.0172	0.001744	24659.4	0.773602	0.792845	103.568	1.199226	0.045098	0.044745	106.715	24659.4	0.041852	0.068903	1548.76	85829.3
251	2.000000	1.210035	7.36751e+06	-51189.1	955.82	-29753.4	0.000000	0.000000	7.216920	154.607	NaN	0.000000	0.001590	0.001715	28.0795	55.2919	0.001794	30828.9	2.931307	177.512	151.396	1.209752	0.055554	0.055271	154.607	30828.9	0.051792	0.098034	1577.07	89958.7
251	2.000000	1.220576	7.36751e+06	-51189.1	955.819	-29753.4	0.000000	0.000000	7.229641	207.637	NaN	0.000000	0.001571	0.001702	28.079	65.9122	0.001804	36527.2	1.789006	-2.705345	206.935	1.220345	0.066095	0.065864	207.637	36527.2	0.061831	0.132456	1567.58	91696.6
251	2.000000	1.230993	7.36751e+06	-51189.1	955.819	-29753.4	0.000000	0.000000	7.243128	282.268	NaN	0.000000	0.001543	0.001683	28.0779	75.4528	0.001782	42330.2	3.819210	173.683	276.905	1.230699	0.076512	0.076217	282.268	42330.2	0.071510	0.170287	1657.6	93720.3
251	2.000000	1.241542	7.36751e+06	-51189.1	955.819	-29753.4	0.000000	0.000000	7.256862	359.737	NaN	0.000000	0.001591	0.001675	28.078	84.5477	0.001790	47224.6	4.747945	-8.162890	356.429	1.241121	0.087060	0.086639	359.737	47224.6	0.081347	0.213284	1686.66	93424.8
251	2.000000	1.251958	7.36751e+06	-51189.1	955.82	-29753.4	0.000000	0.000000	7.270837	446.271	NaN	0.000000	0.001568	0.001679	28.0778	93.0372	0.001764	52751.3	4.411486	171.75	441.975	1.251639	0.097477	0.097157	446.271	52751.3	0.091132	0.260518	1713.01	94425
251	2.000000	1.262486	7.36751e+06	-51189.1	955.818	-29753.4	0.000000	0.000000	7.285000	534.681	NaN	0.000000	0.001585	0.001657	28.0787	103.294	0.001774	58217	3.318660	-7.299428	529.775	1.262054	0.108004	0.107573	534.681	58217	0.101116	0.313237	1706.95	95035.6
251	2.000000	1.263050	7.36751e+06	-51189.1	955.819	-29753.4	0.000000	0.000000	7.285702	538.027	NaN	0.000000	0.001595	0.001678	28.079	103.151	0.001737	59401.5	1.724550	174.009	536.651	1.262734	0.108568	0.108252	538.027	59401.5	0.101775	0.316877	1697.9	96410.7

File: 2025-07-22_16-23-58_1_252.txt
2025-07-22, 16:23:58, 1
Index	Phase	Displacement	Time	Pos X	Pos Y	Pos Z	Rot A	Rot B	Piezo Z	Force A	Force B	Gripper	Voltage A	Voltage B	Temperature	Amplitude force	Amplitude pos	Stiffness	Phase shift	Phase excitation	Force A raw	Displacement raw	HMax	HMax raw	Real Force	Real Stiffness	Contact Depth	Area	Hardness	Reduced Mod.
[#]	[#]	[um]	[s]	[um]	[um]	[um]	[m°]	[m°]	[um]	[uN]	[uN]	[V]	[V]	[V]	[°C]	[uN]	[um]	[N/m]	[°]	[°]	[uN]	[um]	[um]	[um]	[uN]	[N/m]	[um]	[um^2]	[MPa]	[MPa]
252	1.000000	0.002609	7.36751e+06	-51239.1	955.818	-29753.2	0.000000	0.000000	6.002809	-0.082967	NaN	0.000000	0.001604	0.001682	28.078	0.043338	0.001005	43.1144	-89.0449	-163.949	0.038062	0.001379	-1.156733	-1.157962	-0.082967	43.1144	-1.155290	-2.765225E+15	3.000388E-17	NaN
252	1.000000	0.046546	7.36751e+06	-51239.1	955.82	-29753.2	0.000000	0.000000	6.046746	-0.081052	NaN	0.000000	0.001533	0.001686	28.0776	0.018465	0.002060	8.964703	56.966	-165.782	-0.075808	0.045231	-1.112796	-1.114111	-0.081052	8.964703	-1.106015	-6.036768E+14	1.342647E-16	NaN
252	1.000000	0.090553	7.36751e+06	-51239.1	955.819	-29753.2	0.000000	0.000000	6.090757	0.016094	NaN	0.000000	0.001540	0.001675	28.0779	0.009762	0.001948	5.011335	-22.4884	-166	-0.019640	0.089265	-1.068788	-1.070076	0.016094	5.011335	-1.071197	-2.057174E+14	-7.823465E-17	NaN
252	1.000000	0.134613	7.36751e+06	-51239.1	955.818	-29753.2	0.000000	0.000000	6.134818	0.032318	NaN	0.000000	0.001616	0.001718	28.0789	0.031786	0.001890	16.8154	177.03	-165.369	0.002835	0.133245	-1.024728	-1.026097	0.032318	16.8154	-1.026170	-5.104573E+13	-6.331252E-16	NaN
252	1.000000	0.178602	7.36751e+06	-51239.1	955.818	-29753.2	0.000000	0.000000	6.178806	0.019215	NaN	0.000000	0.001612	0.001713	28.0788	0.072127	0.001988	36.2831	44.6749	-165.933	0.027714	0.177304	-0.980740	-0.982038	0.019215	36.2831	-0.981137	-1.263936E+13	-1.520266E-15	NaN
252	1.000000	0.222635	7.36751e+06	-51239.1	955.818	-29753.2	0.000000	0.000000	6.222840	0.047311	NaN	0.000000	0.001597	0.001662	28.0789	0.069909	0.002054	34.0369	-110.35	-164.139	0.073266	0.221373	-0.936707	-0.937969	0.047311	34.0369	-0.937749	-3.286759E+12	-1.439427E-14	NaN
252	1.000000	0.266631	7.36751e+06	-51239.1	955.818	-29753.2	0.000000	0.000000	6.266832	-0.057447	NaN	0.000000	0.001696	0.001685	28.0778	0.089089	0.001931	46.1448	-133.293	-166.543	-0.034978	0.265391	-0.892711	-0.893950	-0.057447	46.1448	-0.891777	-7.869295E+11	7.300188E-14	NaN
252	1.000000	0.310651	7.36752e+06	-51239.1	955.819	-29753.2	0.000000	0.000000	6.310854	0.010128	NaN	0.000000	0.001692	0.001707	28.0776	0.004846	0.001968	2.462774	128.662	-163.42	0.018268	0.309362	-0.848691	-0.849980	0.010128	2.462774	-0.851775	-2.263474E+11	-4.474522E-14	NaN
252	1.000000	0.354707	7.36752e+06	-51239.1	955.819	-29753.2	0.000000	0.000000	6.354910	-0.001322	NaN	0.000000	0.001685	0.001651	28.0775	0.031751	0.002053	15.4642	-78.2209	-165.443	0.003479	0.353332	-0.804635	-0.806010	-0.001322	15.4642	-0.804571	-5.186807E+10	2.549681E-14	NaN
252	1.000000	0.398700	7.36752e+06	-51239.1	955.818	-29753.2	0.000000	0.000000	6.398902	-0.018144	NaN	0.000000	0.001567	0.001693	28.0787	0.120328	0.002025	59.4244	102.424	-164.043	-0.019473	0.397400	-0.760642	-0.761942	-0.018144	59.4244	-0.760413	-1.302926E+10	1.392534E-12	NaN
252	1.000000	0.442725	7.36752e+06	-51239.1	955.819	-29753.2	0.000000	0.000000	6.442929	0.013155	NaN	0.000000	0.001603	0.001704	28.0788	0.052756	0.001936	27.2559	65.8336	-168.793	-0.048180	0.441426	-0.716617	-0.717916	0.013155	27.2559	-0.716979	-3.336296E+9	-3.942914E-12	NaN
252	1.000000	0.486736	7.36752e+06	-51239.1	955.818	-29753.2	0.000000	0.000000	6.486937	-0.049279	NaN	0.000000	0.001567	0.001713	28.0792	0.087737	0.002028	43.2572	-103.699	-166.44	-0.049487	0.485493	-0.672606	-0.673849	-0.049279	43.2572	-0.671752	-8.041976E+8	6.127764E-11	NaN
252	1.000000	0.530729	7.36752e+06	-51239.1	955.818	-29753.2	0.000000	0.000000	6.530933	0.003891	NaN	0.000000	0.001572	0.001649	28.0776	0.135391	0.002080	65.0882	130.43	-164.239	0.050877	0.529360	-0.628612	-0.629981	0.003891	65.0882	-0.628657	-2.063401E+8	-1.885577E-11	NaN
252	1.000000	0.574777	7.36752e+06	-51239.1	955.818	-29753.2	0.000000	0.000000	6.574980	-0.000949	NaN	0.000000	0.001617	0.001670	28.0777	0.065316	0.001979	33.0063	165.283	-166.595	0.032733	0.573509	-0.584564	-0.585833	-0.000949	33.0063	-0.584543	-5.098096E+7	1.860914E-11	NaN
252	1.000000	0.618793	7.36752e+06	-51239.1	955.819	-29753.2	0.000000	0.000000	6.618997	0.008191	NaN	0.000000	0.001569	0.001648	28.0774	0.111226	0.001904	58.4123	-128.571	-166.523	0.085251	0.617532	-0.540548	-0.541810	0.008191	58.4123	-0.540653	-1.260145E+7	-6.500075E-10	NaN
252	1.000000	0.662827	7.36752e+06	-51239.1	955.819	-29753.2	0.000000	0.000000	6.663029	-0.023502	NaN	0.000000	0.001542	0.001667	28.0789	0.068126	0.001984	34.3317	179.988	-162.681	0.003629	0.661500	-0.496514	-0.497842	-0.023502	34.3317	-0.496001	-3.01446e+06	7.796523E-9	NaN
252	1.000000	0.706815	7.36752e+06	-51239.1	955.818	-29753.2	0.000000	0.000000	6.707022	0.084695	NaN	0.000000	0.001584	0.001688	28.0788	0.058615	0.002093	27.9988	37.1998	-164.128	0.052261	0.705533	-0.452526	-0.453808	0.084695	27.9988	-0.454795	-797686	-1.061759E-7	NaN
252	1.000000	0.750833	7.36752e+06	-51239.1	955.818	-29753.2	0.000000	0.000000	6.751037	0.014209	NaN	0.000000	0.001631	0.001663	28.0788	0.008252	0.001915	4.308469	106.971	-163.752	-0.022765	0.749500	-0.408509	-0.409841	0.014209	4.308469	-0.410982	-191586	-7.416367E-8	NaN
252	1.000000	0.794883	7.36752e+06	-51239.1	955.818	-29753.2	0.000000	0.000000	6.795087	0.020062	NaN	0.000000	0.001572	0.001695	28.0777	0.071450	0.002002	35.6961	-34.9035	-169.235	-0.061156	0.793542	-0.364459	-0.365800	0.020062	35.6961	-0.364880	-41910.9	-4.786712E-7	NaN
252	1.000000	0.838892	7.36752e+06	-51239.1	955.818	-29753.2	0.000000	0.000000	6.839095	-0.016940	NaN	0.000000	0.001564	0.001730	28.0773	0.066808	0.001964	34.0117	-21.7546	-165.808	0.017251	0.837545	-0.320449	-0.321797	-0.016940	34.0117	-0.320076	-9327.26	1.816155E-6	NaN
252	1.000000	0.882900	7.36752e+06	-51239.1	955.818	-29753.2	0.000000	0.000000	6.883103	0.009864	NaN	0.000000	0.001578	0.001736	28.0775	0.106397	0.001975	53.8729	-11.0349	-167.741	-0.112766	0.881602	-0.276442	-0.277740	0.009864	53.8729	-0.276579	-2095.54	-4.707054E-6	NaN
252	1.000000	0.926903	7.36752e+06	-51239.1	955.818	-29753.2	0.000000	0.000000	6.927107	0.018135	NaN	0.000000	0.001622	0.001686	28.0787	0.014485	0.002020	7.172643	-38.2606	-164.897	-0.040991	0.925631	-0.232439	-0.233711	0.018135	7.172643	-0.234335	-468.601	-3.869993E-5	NaN
252	1.000000	0.970947	7.36752e+06	-51239.1	955.819	-29753.2	0.000000	0.000000	6.971146	-0.081330	NaN	0.000000	0.001638	0.001710	28.0782	0.180753	0.001962	92.1486	169.534	-168.736	-0.018847	0.969621	-0.188395	-0.189720	-0.081330	92.1486	-0.187733	-82.43	0.000987	NaN
252	1.000000	1.014981	7.36752e+06	-51239.1	955.818	-29753.2	0.000000	0.000000	7.015182	-0.049127	NaN	0.000000	0.001670	0.001749	28.0784	0.053682	0.002099	25.5688	-172.017	-163.955	0.020086	1.013646	-0.144361	-0.145696	-0.049127	25.5688	-0.142920	-13.4144	0.003662	NaN
252	1.000000	1.058987	7.36752e+06	-51239.1	955.819	-29753.2	0.000000	0.000000	7.059188	-0.040050	NaN	0.000000	0.001643	0.001693	28.0775	0.051739	0.001992	25.969	88.0792	-161.804	-0.020303	1.057656	-0.100355	-0.101685	-0.040050	25.969	-0.099198	-1.753711	0.022837	NaN
252	1.000000	1.102964	7.36752e+06	-51239.1	955.819	-29753.2	0.000000	0.000000	7.103165	-0.046849	NaN	0.000000	0.001656	0.001719	28.0777	0.045706	0.002027	22.5461	147.931	-164.46	-0.003078	1.101680	-0.056377	-0.057662	-0.046849	22.5461	-0.054819	-0.127200	0.368306	NaN
252	1.000000	1.146995	7.36752e+06	-51239.1	955.819	-29753.2	0.000000	0.000000	7.147197	-0.018100	NaN	0.000000	0.001675	0.001662	28.0778	0.143444	0.001980	72.433	88.5293	-166.668	-0.038727	1.145668	-0.012347	-0.013674	-0.018100	72.433	-0.012160	-0.007620	2.375418	NaN
252	2.000000	1.174617	7.36752e+06	-51239.1	955.819	-29753.2	0.000000	0.000000	7.175407	14.2759	NaN	0.000000	0.001586	0.001596	28.0786	14.5718	0.001785	8161.98	7.608006	-175.021	14.1062	1.174333	0.015276	0.014991	14.2759	8161.98	0.013964	0.013928	1024.96	63186
252	2.000000	1.185626	7.36752e+06	-51239.1	955.819	-29753.2	0.000000	0.000000	7.187387	37.8732	NaN	0.000000	0.001600	0.001641	28.0788	25.5193	0.001701	14999.9	4.503088	-176.989	38.1921	1.185165	0.026284	0.025824	37.8732	14999.9	0.024391	0.029917	1265.96	79232.7
252	2.000000	1.196520	7.36752e+06	-51239.1	955.82	-29753.2	0.000000	0.000000	7.199716	72.776	NaN	0.000000	0.001617	0.001612	28.0786	35.7924	0.001681	21291.2	5.807757	178.277	71.0389	1.196165	0.037179	0.036823	72.776	21291.2	0.034615	0.050854	1431.08	86260.5
252	2.000000	1.207562	7.36752e+06	-51239.1	955.82	-29753.2	0.000000	0.000000	7.212532	115.923	NaN	0.000000	0.001588	0.001641	28.0781	47.5808	0.001807	26325.4	10.3184	171.995	118.7	1.207205	0.048220	0.047864	115.923	26325.4	0.044918	0.077354	1498.6	86478.1
252	2.000000	1.218388	7.36752e+06	-51239.1	955.819	-29753.2	0.000000	0.000000	7.225605	170.547	NaN	0.000000	0.001572	0.001602	28.0776	57.013	0.001892	30130.6	4.030511	176.406	163.811	1.218165	0.059047	0.058823	170.547	30130.6	0.054802	0.107830	1581.63	83832.1
252	2.000000	1.229612	7.36752e+06	-51239.1	955.819	-29753.2	0.000000	0.000000	7.239151	227.015	NaN	0.000000	0.001649	0.001610	28.0776	65.7119	0.001811	36287.2	4.983267	174.723	234.011	1.229281	0.070271	0.069939	227.015	36287.2	0.065579	0.146569	1548.86	86597.8
252	2.000000	1.240651	7.36752e+06	-51239.1	955.82	-29753.2	0.000000	0.000000	7.252898	292.868	NaN	0.000000	0.001662	0.001623	28.0778	78.6784	0.001881	41829.3	8.963134	169.445	303.55	1.240274	0.081309	0.080932	292.868	41829.3	0.076058	0.189602	1544.65	87767.3
252	2.000000	1.251442	7.36752e+06	-51239.1	955.82	-29753.2	0.000000	0.000000	7.267566	387.141	NaN	0.000000	0.001548	0.001634	28.0789	87.3843	0.001779	49112	6.754748	170.677	385.167	1.251111	0.092101	0.091769	387.141	49112	0.086189	0.236104	1639.71	92344.1
252	2.000000	1.262449	7.36752e+06	-51239.1	955.82	-29753.2	0.000000	0.000000	7.282439	481.147	NaN	0.000000	0.001540	0.001631	28.0789	98.3729	0.001813	54250.3	10.9738	166.412	480.367	1.261990	0.103107	0.102648	481.147	54250.3	0.096456	0.288064	1670.28	92348.6
252	2.000000	1.267465	7.36752e+06	-51239.1	955.819	-29753.2	0.000000	0.000000	7.289058	520.142	NaN	0.000000	0.001514	0.001642	28.0789	101.762	0.001660	61304.3	3.441155	172.508	518.844	1.267148	0.108123	0.107806	520.142	61304.3	0.101760	0.316791	1641.91	99512.4