Folder: unikorn_login/remote_trans/data/nanoindenter/0828-1/data/Data_2025-08-06,11h17m57s (part 195)

File: 2025-07-22_16-23-58_1_407.txt
2025-07-22, 16:23:58, 1
Index	Phase	Displacement	Time	Pos X	Pos Y	Pos Z	Rot A	Rot B	Piezo Z	Force A	Force B	Gripper	Voltage A	Voltage B	Temperature	Amplitude force	Amplitude pos	Stiffness	Phase shift	Phase excitation	Force A raw	Displacement raw	HMax	HMax raw	Real Force	Real Stiffness	Contact Depth	Area	Hardness	Reduced Mod.
[#]	[#]	[um]	[s]	[um]	[um]	[um]	[m°]	[m°]	[um]	[uN]	[uN]	[V]	[V]	[V]	[°C]	[uN]	[um]	[N/m]	[°]	[°]	[uN]	[um]	[um]	[um]	[uN]	[N/m]	[um]	[um^2]	[MPa]	[MPa]
407	1.000000	0.002556	7.36904e+06	-56739.1	1005.82	-29738.3	0.000000	0.000000	6.002780	-0.030364	NaN	0.000000	0.001576	0.001588	28.0798	0.021068	0.000895	23.5356	-111.063	-166.208	0.035917	0.001295	-1.097388	-1.098649	-0.030364	23.5356	-1.096420	-4.487564E+14	6.766226E-17	NaN
407	1.000000	0.044517	7.36904e+06	-56739.1	1005.82	-29738.3	0.000000	0.000000	6.044743	0.023080	NaN	0.000000	0.001588	0.001634	28.0813	0.020507	0.002071	9.900405	-180	12.3223	-0.012274	0.043121	-1.055427	-1.056823	0.023080	9.900405	-1.057175	-1.333083E+14	-1.731297E-16	NaN
407	1.000000	0.086525	7.36904e+06	-56739.1	1005.82	-29738.3	0.000000	0.000000	6.086748	-0.040649	NaN	0.000000	0.001611	0.001648	28.0806	0.026733	0.001943	13.7619	74.8414	-163.65	0.016321	0.085207	-1.013419	-1.014736	-0.040649	13.7619	-1.011204	-3.210581E+13	1.266088E-15	NaN
407	1.000000	0.128552	7.36904e+06	-56739.1	1005.82	-29738.3	0.000000	0.000000	6.128776	-0.036947	NaN	0.000000	0.001631	0.001647	28.0807	0.086592	0.002031	42.6438	92.5895	14.769	-0.074270	0.127169	-0.971392	-0.972774	-0.036947	42.6438	-0.970742	-9.155121E+12	4.035634E-15	NaN
407	1.000000	0.170579	7.36904e+06	-56739.1	1005.82	-29738.3	0.000000	0.000000	6.170802	-0.057131	NaN	0.000000	0.001640	0.001643	28.0796	0.074015	0.001983	37.3281	-137.02	-168.362	-0.035578	0.169270	-0.929364	-0.930674	-0.057131	37.3281	-0.928217	-2.444141E+12	2.337463E-14	NaN
407	1.000000	0.212605	7.36904e+06	-56739.1	1005.82	-29738.3	0.000000	0.000000	6.212828	-0.071261	NaN	0.000000	0.001660	0.001657	28.0795	0.082972	0.002131	38.9368	93.1743	16.6752	0.007686	0.211241	-0.887338	-0.888703	-0.071261	38.9368	-0.885966	-6.567131E+11	1.085119E-13	NaN
407	1.000000	0.254613	7.36904e+06	-56739.1	1005.82	-29738.3	0.000000	0.000000	6.254840	0.023256	NaN	0.000000	0.001641	0.001638	28.08	0.061256	0.002084	29.397	-6.238305	-161.468	0.005859	0.253357	-0.845330	-0.846586	0.023256	29.397	-0.845923	-1.885949E+11	-1.233101E-13	NaN
407	1.000000	0.296634	7.36904e+06	-56739.1	1005.82	-29738.3	0.000000	0.000000	6.296859	-0.012686	NaN	0.000000	0.001638	0.001660	28.0802	0.102989	0.002054	50.1337	-104.394	16.6413	-0.040783	0.295236	-0.803310	-0.804708	-0.012686	50.1337	-0.803120	-4.956905E+10	2.559250E-13	NaN
407	1.000000	0.338664	7.36904e+06	-56739.1	1005.82	-29738.3	0.000000	0.000000	6.338890	0.017677	NaN	0.000000	0.001636	0.001671	28.0809	0.067004	0.002064	32.4632	144.896	-166.488	0.023531	0.337334	-0.761279	-0.762610	0.017677	32.4632	-0.761688	-1.356005E+10	-1.303641E-12	NaN
407	1.000000	0.380664	7.36904e+06	-56739.1	1005.82	-29738.3	0.000000	0.000000	6.380891	0.041444	NaN	0.000000	0.001618	0.001678	28.081	0.157215	0.001878	83.708	-135.139	12.5382	0.050529	0.379288	-0.719280	-0.720655	0.041444	83.708	-0.719651	-3.628427E+9	-1.142194E-11	NaN
407	1.000000	0.422658	7.36904e+06	-56739.1	1005.82	-29738.4	0.000000	0.000000	6.422882	-0.033247	NaN	0.000000	0.001609	0.001667	28.0806	0.036783	0.001865	19.7276	85.9207	-163.087	-0.012729	0.421349	-0.677285	-0.678595	-0.033247	19.7276	-0.676021	-9.199965E+8	3.613774E-11	NaN
407	1.000000	0.464679	7.36904e+06	-56739.1	1005.82	-29738.4	0.000000	0.000000	6.464906	0.015651	NaN	0.000000	0.001626	0.001705	28.0795	0.035836	0.001948	18.4006	-75.6217	14.5815	0.073929	0.463297	-0.635264	-0.636647	0.015651	18.4006	-0.635902	-2.594502E+8	-6.032523E-11	NaN
407	1.000000	0.506704	7.36904e+06	-56739.1	1005.82	-29738.4	0.000000	0.000000	6.506929	-0.012489	NaN	0.000000	0.001605	0.001704	28.0798	0.138210	0.002026	68.222	166.384	-162.892	-0.024395	0.505456	-0.593239	-0.594488	-0.012489	68.222	-0.593102	-6.689962E+7	1.866888E-10	NaN
407	1.000000	0.548734	7.36904e+06	-56739.1	1005.82	-29738.4	0.000000	0.000000	6.548959	-0.003167	NaN	0.000000	0.001649	0.001675	28.0798	0.058242	0.001992	29.2383	76.8563	17.0111	-0.042494	0.547392	-0.551210	-0.552551	-0.003167	29.2383	-0.551128	-1.760292E+7	1.799072E-10	NaN
407	1.000000	0.590742	7.36904e+06	-56739.1	1005.82	-29738.4	0.000000	0.000000	6.590968	0.016140	NaN	0.000000	0.001678	0.001688	28.0809	0.069079	0.002019	34.2095	-116.86	-161.811	-0.025300	0.589465	-0.509201	-0.510479	0.016140	34.2095	-0.509555	-4.6582e+06	-3.464832E-9	NaN
407	1.000000	0.632794	7.36904e+06	-56739.1	1005.82	-29738.4	0.000000	0.000000	6.633021	0.022570	NaN	0.000000	0.001671	0.001669	28.081	0.080059	0.002101	38.114	-56.6045	16.156	0.058440	0.631393	-0.467149	-0.468551	0.022570	38.114	-0.467593	-1.20683e+06	-1.870151E-8	NaN
407	1.000000	0.674772	7.36904e+06	-56739.1	1005.82	-29738.4	0.000000	0.000000	6.674994	-0.082161	NaN	0.000000	0.001674	0.001643	28.0812	0.036201	0.001915	18.9002	141.918	-164.246	-0.067859	0.673508	-0.425171	-0.426436	-0.082161	18.9002	-0.421911	-273849	3.000219E-7	NaN
407	1.000000	0.716832	7.36904e+06	-56739.1	1005.82	-29738.4	0.000000	0.000000	6.717058	0.015400	NaN	0.000000	0.001595	0.001619	28.08	0.058636	0.002008	29.2003	-120.974	16.6683	0.013279	0.715461	-0.383112	-0.384482	0.015400	29.2003	-0.383508	-77660.3	-1.983051E-7	NaN
407	1.000000	0.758815	7.36904e+06	-56739.1	1005.82	-29738.4	0.000000	0.000000	6.759039	-0.025728	NaN	0.000000	0.001588	0.001585	28.0798	0.077994	0.001908	40.873	-26.3262	-163.184	-0.051911	0.757546	-0.341129	-0.342397	-0.025728	40.873	-0.340657	-18669.1	1.378087E-6	NaN
407	1.000000	0.800865	7.36904e+06	-56739.1	1005.82	-29738.4	0.000000	0.000000	6.801089	-0.034983	NaN	0.000000	0.001646	0.001589	28.0798	0.068529	0.002012	34.0618	135.286	14.4261	-0.122230	0.799472	-0.299079	-0.300471	-0.034983	34.0618	-0.298308	-4440.57	7.877938E-6	NaN
407	1.000000	0.842853	7.36904e+06	-56739.1	1005.82	-29738.4	0.000000	0.000000	6.843077	-0.052689	NaN	0.000000	0.001624	0.001575	28.0799	0.126545	0.002035	62.1727	50.3393	-164.548	-0.064986	0.841575	-0.257090	-0.258369	-0.052689	62.1727	-0.256455	-1033.93	5.096018E-5	NaN
407	1.000000	0.884881	7.36904e+06	-56739.1	1005.82	-29738.4	0.000000	0.000000	6.885106	-0.003786	NaN	0.000000	0.001628	0.001613	28.0811	0.117480	0.001969	59.658	7.575395	15.8218	-0.075030	0.883559	-0.215063	-0.216385	-0.003786	59.658	-0.215015	-231.079	1.638420E-5	NaN
407	1.000000	0.926894	7.36905e+06	-56739.1	1005.82	-29738.4	0.000000	0.000000	6.927119	0.004722	NaN	0.000000	0.001655	0.001609	28.0809	0.020770	0.001949	10.6588	-34.3088	-164.153	0.052007	0.925550	-0.173050	-0.174393	0.004722	10.6588	-0.173382	-47.0036	-0.000100	NaN
407	1.000000	0.968876	7.36905e+06	-56739.1	1005.82	-29738.4	0.000000	0.000000	6.969103	0.030223	NaN	0.000000	0.001629	0.001560	28.0809	0.045340	0.001892	23.9632	-20.7486	14.3633	0.048193	0.967560	-0.131067	-0.132384	0.030223	23.9632	-0.132013	-8.336445	-0.003625	NaN
407	1.000000	1.010942	7.36905e+06	-56739.1	1005.82	-29738.4	0.000000	0.000000	7.011166	-0.022641	NaN	0.000000	0.001618	0.001618	28.0794	0.036113	0.001948	18.5376	142.855	-165.638	-0.032577	1.009627	-0.089002	-0.090317	-0.022641	18.5376	-0.088086	-0.974180	0.023241	NaN
407	1.000000	1.052985	7.36905e+06	-56739.1	1005.82	-29738.4	0.000000	0.000000	7.053209	-0.052963	NaN	0.000000	0.001627	0.001606	28.0795	0.043921	0.001969	22.3012	68.8366	14.6935	-0.050143	1.051579	-0.046958	-0.048365	-0.052963	22.3012	-0.045177	-0.065074	0.813888	NaN
407	1.000000	1.094960	7.36905e+06	-56739.1	1005.82	-29738.4	0.000000	0.000000	7.095190	0.100046	NaN	0.000000	0.001547	0.001672	28.0796	0.121723	0.002045	59.5112	36.4453	-165.958	0.178681	1.093698	-0.004983	-0.006246	0.100046	59.5112	-0.006244	-0.004185	-23.9046	NaN
407	2.000000	1.117049	7.36905e+06	-56739.1	1005.82	-29738.4	0.000000	0.000000	7.117934	16.0336	NaN	0.000000	0.001561	0.001696	28.0805	14.9765	0.001624	9224.24	6.669223	5.355930	15.3282	1.116670	0.017106	0.016726	16.0336	9224.24	0.015802	0.016370	979.478	65869.7
407	2.000000	1.127519	7.36905e+06	-56739.1	1005.82	-29738.4	0.000000	0.000000	7.129308	38.0166	NaN	0.000000	0.001647	0.001604	28.0808	25.3816	0.001805	14062.4	3.070146	-174.853	37.3988	1.127202	0.027575	0.027259	38.0166	14062.4	0.025548	0.032019	1187.3	71800.3
407	2.000000	1.138000	7.36905e+06	-56739.1	1005.82	-29738.4	0.000000	0.000000	7.141204	72.3876	NaN	0.000000	0.001663	0.001660	28.0809	36.6681	0.001749	20968	5.313300	-1.567544	70.9033	1.137682	0.038056	0.037738	72.3876	20968	0.035467	0.052839	1369.96	83340
407	2.000000	1.148477	7.36905e+06	-56739.1	1005.82	-29738.4	0.000000	0.000000	7.153638	119.963	NaN	0.000000	0.001661	0.001656	28.0798	47.2292	0.001808	26122.5	6.715134	175.596	119.627	1.148148	0.048534	0.048205	119.963	26122.5	0.045089	0.077841	1541.12	85542.7
407	2.000000	1.158955	7.36905e+06	-56739.1	1005.82	-29738.4	0.000000	0.000000	7.166439	176.439	NaN	0.000000	0.001622	0.001651	28.08	54.9536	0.001767	31094.7	2.787759	-1.440851	173.966	1.158602	0.059011	0.058659	176.439	31094.7	0.054756	0.107677	1638.6	86576
407	2.000000	1.169347	7.36905e+06	-56739.1	1005.82	-29738.4	0.000000	0.000000	7.179419	239.319	NaN	0.000000	0.001629	0.001679	28.0795	66.5255	0.001800	36968	2.848817	177.113	233.956	1.169101	0.069404	0.069157	239.319	36968	0.064548	0.142621	1678	89435
407	2.000000	1.179911	7.36905e+06	-56739.1	1005.82	-29738.4	0.000000	0.000000	7.192900	310.228	NaN	0.000000	0.001616	0.001661	28.0799	78.6035	0.001820	43194.8	5.354042	-6.926332	305.465	1.179518	0.079968	0.079574	310.228	43194.8	0.074581	0.183221	1693.19	92197.1
407	2.000000	1.190456	7.36905e+06	-56739.1	1005.82	-29738.4	0.000000	0.000000	7.206467	383.681	NaN	0.000000	0.001585	0.001646	28.0807	88.784	0.001786	49717.4	4.473532	173.268	383.741	1.190116	0.090512	0.090172	383.681	49717.4	0.084724	0.229088	1674.82	94903
407	2.000000	1.200788	7.36905e+06	-56739.1	1005.82	-29738.4	0.000000	0.000000	7.220725	479.112	NaN	0.000000	0.001596	0.001625	28.0805	99.0453	0.001688	58665.2	8.248260	-12.1931	470.108	1.200498	0.100844	0.100555	479.112	58665.2	0.094719	0.278935	1717.65	101485
407	2.000000	1.208853	7.36905e+06	-56739.1	1005.82	-29738.4	0.000000	0.000000	7.231715	550.21	NaN	0.000000	0.001563	0.001623	28.0805	106.288	0.001908	55711.4	2.577332	-5.741440	546.656	1.208606	0.108909	0.108662	550.21	55711.4	0.101502	0.315367	1744.67	90637.8

File: 2025-07-22_16-23-58_1_408.txt
2025-07-22, 16:23:58, 1
Index	Phase	Displacement	Time	Pos X	Pos Y	Pos Z	Rot A	Rot B	Piezo Z	Force A	Force B	Gripper	Voltage A	Voltage B	Temperature	Amplitude force	Amplitude pos	Stiffness	Phase shift	Phase excitation	Force A raw	Displacement raw	HMax	HMax raw	Real Force	Real Stiffness	Contact Depth	Area	Hardness	Reduced Mod.
[#]	[#]	[um]	[s]	[um]	[um]	[um]	[m°]	[m°]	[um]	[uN]	[uN]	[V]	[V]	[V]	[°C]	[uN]	[um]	[N/m]	[°]	[°]	[uN]	[um]	[um]	[um]	[uN]	[N/m]	[um]	[um^2]	[MPa]	[MPa]
408	1.000000	0.002039	7.36905e+06	-56689.1	1005.82	-29738.4	0.000000	0.000000	6.002778	0.006446	NaN	0.000000	0.001617	0.001614	28.0801	0.093044	0.000858	108.481	-138.275	-169.875	0.045688	0.000838	-1.220508	-1.221710	0.006446	108.481	-1.220553	-2.069697E+16	-3.114560E-19	NaN
408	1.000000	0.046019	7.36905e+06	-56689.1	1005.82	-29738.4	0.000000	0.000000	6.046756	-0.045301	NaN	0.000000	0.001611	0.001620	28.0813	0.017404	0.001935	8.992226	23.3079	-162.043	-0.010988	0.044706	-1.176528	-1.177841	-0.045301	8.992226	-1.172750	-4.739518E+15	9.558171E-18	NaN
408	1.000000	0.090029	7.36905e+06	-56689.1	1005.82	-29738.4	0.000000	0.000000	6.090771	0.076325	NaN	0.000000	0.001615	0.001617	28.0812	0.055577	0.001920	28.9427	61.4767	-160.639	0.061972	0.088657	-1.132519	-1.133891	0.076325	28.9427	-1.134497	-1.455231E+15	-5.244888E-17	NaN
408	1.000000	0.134062	7.36905e+06	-56689.1	1005.82	-29738.4	0.000000	0.000000	6.134800	-0.010382	NaN	0.000000	0.001681	0.001664	28.0813	0.014114	0.001921	7.346414	-151.552	-164.236	0.040628	0.132771	-1.088486	-1.089777	-0.010382	7.346414	-1.087426	-3.398196E+14	3.055166E-17	NaN
408	1.000000	0.178100	7.36905e+06	-56689.1	1005.82	-29738.4	0.000000	0.000000	6.178838	-0.016017	NaN	0.000000	0.001643	0.001666	28.08	0.085232	0.002121	40.1822	-61.6583	-166.306	0.095964	0.176788	-1.044447	-1.045760	-0.016017	40.1822	-1.044149	-8.907342E+13	1.798162E-16	NaN
408	1.000000	0.222084	7.36905e+06	-56689.1	1005.82	-29738.4	0.000000	0.000000	6.222824	0.028952	NaN	0.000000	0.001685	0.001612	28.08	0.024741	0.001946	12.7152	-29.9139	-166.321	-0.058161	0.220772	-1.000464	-1.001775	0.028952	12.7152	-1.002171	-2.426625E+13	-1.193079E-15	NaN
408	1.000000	0.266113	7.36905e+06	-56689.1	1005.82	-29738.4	0.000000	0.000000	6.266851	-0.009161	NaN	0.000000	0.001664	0.001646	28.0802	0.027482	0.001997	13.7628	-94.8632	-166.605	-0.013282	0.264754	-0.956434	-0.957793	-0.009161	13.7628	-0.955935	-5.781824E+12	1.584411E-15	NaN
408	1.000000	0.310122	7.36905e+06	-56689.1	1005.82	-29738.4	0.000000	0.000000	6.310862	0.045686	NaN	0.000000	0.001646	0.001636	28.0812	0.061810	0.001888	32.7446	159.252	-163.686	-0.040886	0.308801	-0.912426	-0.913747	0.045686	32.7446	-0.913473	-1.545477E+12	-2.956137E-14	NaN
408	1.000000	0.354140	7.36905e+06	-56689.1	1005.82	-29738.4	0.000000	0.000000	6.354879	0.014669	NaN	0.000000	0.001668	0.001606	28.0811	0.033623	0.001993	16.869	-83.0209	-167.637	-0.003870	0.352844	-0.868407	-0.869704	0.014669	16.869	-0.869059	-3.878989E+11	-3.781543E-14	NaN
408	1.000000	0.398167	7.36905e+06	-56689.1	1005.82	-29738.4	0.000000	0.000000	6.398909	0.086488	NaN	0.000000	0.001574	0.001629	28.081	0.092132	0.001907	48.3218	85.4329	-166.051	-0.000530	0.396866	-0.824380	-0.825681	0.086488	48.3218	-0.825723	-1.004164E+11	-8.612979E-13	NaN
408	1.000000	0.442186	7.36905e+06	-56689.1	1005.82	-29738.4	0.000000	0.000000	6.442924	-0.010058	NaN	0.000000	0.001597	0.001631	28.0802	0.014141	0.001980	7.142739	-62.8547	-167.307	-0.013894	0.440807	-0.780362	-0.781741	-0.010058	7.142739	-0.779305	-2.353924E+10	4.272986E-13	NaN
408	1.000000	0.486211	7.36905e+06	-56689.1	1005.82	-29738.4	0.000000	0.000000	6.486948	-0.032607	NaN	0.000000	0.001574	0.001592	28.0802	0.079255	0.002096	37.8095	118.988	-164.593	-0.033687	0.484856	-0.736337	-0.737692	-0.032607	37.8095	-0.735690	-6.002714E+9	5.432095E-12	NaN
408	1.000000	0.530221	7.36905e+06	-56689.1	1005.82	-29738.4	0.000000	0.000000	6.530962	0.046835	NaN	0.000000	0.001581	0.001603	28.0798	0.098141	0.002055	47.7612	-174.744	-161.813	0.147067	0.528882	-0.692326	-0.693666	0.046835	47.7612	-0.693062	-1.573102E+9	-2.977222E-11	NaN
408	1.000000	0.574244	7.36905e+06	-56689.1	1005.82	-29738.4	0.000000	0.000000	6.574982	0.006492	NaN	0.000000	0.001576	0.001622	28.0813	0.075188	0.002085	36.0597	77.8986	-166.162	-0.070479	0.572952	-0.648304	-0.649596	0.006492	36.0597	-0.648439	-3.855105E+8	-1.683971E-11	NaN
408	1.000000	0.618233	7.36905e+06	-56689.1	1005.82	-29738.4	0.000000	0.000000	6.618977	0.142991	NaN	0.000000	0.001600	0.001638	28.081	0.028661	0.002191	13.081	68.288	-164.232	0.094166	0.616953	-0.604315	-0.605595	0.142991	13.081	-0.612513	-1.237907E+8	-1.155104E-9	NaN
408	1.000000	0.662266	7.36905e+06	-56689.1	1005.82	-29738.4	0.000000	0.000000	6.663006	0.037871	NaN	0.000000	0.001568	0.001598	28.0812	0.021470	0.002038	10.5367	-41.927	-167.441	0.070239	0.660942	-0.560282	-0.561606	0.037871	10.5367	-0.562977	-2.567786E+7	-1.474857E-9	NaN
408	1.000000	0.706320	7.36905e+06	-56689.1	1005.82	-29738.4	0.000000	0.000000	6.707061	0.049837	NaN	0.000000	0.001565	0.001651	28.08	0.063479	0.001909	33.2539	-123.415	-167.839	0.074171	0.704981	-0.516227	-0.517567	0.049837	33.2539	-0.517351	-5.98071e+06	-8.332893E-9	NaN
408	1.000000	0.750265	7.36905e+06	-56689.1	1005.82	-29738.4	0.000000	0.000000	6.751005	0.041191	NaN	0.000000	0.001571	0.001631	28.0802	0.041198	0.001898	21.7054	158.661	-162.391	-0.059451	0.748967	-0.472283	-0.473581	0.041191	21.7054	-0.473706	-1.47017e+06	-2.801772E-8	NaN
408	1.000000	0.794322	7.36905e+06	-56689.1	1005.82	-29738.4	0.000000	0.000000	6.795059	-0.035940	NaN	0.000000	0.001636	0.001628	28.0796	0.167716	0.001917	87.4828	97.8891	-167.927	-0.044800	0.793004	-0.428226	-0.429544	-0.035940	87.4828	-0.427918	-333117	1.078910E-7	NaN
408	1.000000	0.838345	7.36905e+06	-56689.1	1005.82	-29738.4	0.000000	0.000000	6.839084	0.016982	NaN	0.000000	0.001601	0.001618	28.0808	0.025601	0.001890	13.5433	92.069	-167.501	-0.062953	0.837098	-0.384203	-0.385449	0.016982	13.5433	-0.385144	-81967.7	-2.071760E-7	NaN
408	1.000000	0.882352	7.36905e+06	-56689.1	1005.82	-29738.4	0.000000	0.000000	6.883092	0.037196	NaN	0.000000	0.001656	0.001614	28.0812	0.046981	0.001995	23.5476	-62.4945	-166.232	0.030547	0.881083	-0.340195	-0.341465	0.037196	23.5476	-0.341380	-19127.7	-1.944599E-6	NaN
408	1.000000	0.926353	7.36905e+06	-56689.1	1005.82	-29738.4	0.000000	0.000000	6.927092	0.021118	NaN	0.000000	0.001650	0.001633	28.0812	0.066250	0.002159	30.6888	63.4484	-165.774	0.043941	0.925072	-0.296195	-0.297476	0.021118	30.6888	-0.296711	-4203.63	-5.023655E-6	NaN
408	1.000000	0.970421	7.36905e+06	-56689.1	1005.82	-29738.4	0.000000	0.000000	6.971161	0.051150	NaN	0.000000	0.001691	0.001650	28.08	0.100718	0.002000	50.3604	-90.1404	-164.314	0.073561	0.969083	-0.252127	-0.253465	0.051150	50.3604	-0.252889	-911.128	-5.613934E-5	NaN
408	1.000000	1.014413	7.36906e+06	-56689.1	1005.82	-29738.4	0.000000	0.000000	7.015153	0.022950	NaN	0.000000	0.001723	0.001654	28.0797	0.055042	0.001942	28.3367	-170.789	-162.068	0.002573	1.013120	-0.208134	-0.209427	0.022950	28.3367	-0.208742	-182.989	-0.000125	NaN
408	1.000000	1.058424	7.36906e+06	-56689.1	1005.82	-29738.4	0.000000	0.000000	7.059164	0.043239	NaN	0.000000	0.001691	0.001651	28.0799	0.109497	0.002079	52.6563	-0.698082	-165.947	0.088211	1.057115	-0.164124	-0.165433	0.043239	52.6563	-0.164740	-33.2459	-0.001301	NaN
408	1.000000	1.102416	7.36906e+06	-56689.1	1005.82	-29738.4	0.000000	0.000000	7.103153	-0.055358	NaN	0.000000	0.001674	0.001635	28.0808	0.069531	0.001966	35.3579	-21.6733	-166.263	0.059512	1.101078	-0.120131	-0.121470	-0.055358	35.3579	-0.118957	-4.602445	0.012028	NaN
408	1.000000	1.146459	7.36906e+06	-56689.1	1005.82	-29738.4	0.000000	0.000000	7.147199	0.024743	NaN	0.000000	0.001692	0.001654	28.081	0.049175	0.002082	23.6227	135.87	-168.206	0.013538	1.145176	-0.076089	-0.077371	0.024743	23.6227	-0.076874	-0.516051	-0.047947	NaN
408	1.000000	1.190478	7.36906e+06	-56689.1	1005.82	-29738.4	0.000000	0.000000	7.191219	0.075631	NaN	0.000000	0.001653	0.001640	28.0813	0.128454	0.001973	65.1137	62.9697	-165.155	0.090993	1.189180	-0.032070	-0.033368	0.075631	65.1137	-0.032941	-0.027888	-2.711933	NaN
408	2.000000	1.233163	7.36906e+06	-56689.1	1005.82	-29738.4	0.000000	0.000000	7.234253	8.543251	NaN	0.000000	0.001754	0.001641	28.0804	8.319915	0.001685	4937.26	7.784787	-170.293	8.558776	1.232789	0.010615	0.010241	8.543251	4937.26	0.009317	0.008433	1013.11	49122
408	2.000000	1.244140	7.36906e+06	-56689.1	1005.82	-29738.4	0.000000	0.000000	7.245708	20.163	NaN	0.000000	0.001673	0.001626	28.0799	18.2275	0.001730	10534.4	8.024464	-177.438	20.4833	1.243826	0.021592	0.021278	20.163	10534.4	0.020157	0.022789	884.763	63755.6
408	2.000000	1.255109	7.36906e+06	-56689.1	1005.82	-29738.4	0.000000	0.000000	7.257455	39.0844	NaN	0.000000	0.001655	0.001641	28.08	29.3486	0.001731	16958.2	8.127229	178.296	39.0017	1.254768	0.032561	0.032220	39.0844	16958.2	0.030832	0.042487	919.924	75167.2
408	2.000000	1.266094	7.36906e+06	-56689.1	1005.82	-29738.4	0.000000	0.000000	7.269722	70.2309	NaN	0.000000	0.001708	0.001700	28.0801	39.1102	0.001606	24354.4	4.092358	178.498	70.3332	1.265767	0.043546	0.043219	70.2309	24354.4	0.041383	0.067652	1038.12	85548
408	2.000000	1.277017	7.36906e+06	-56689.1	1005.82	-29738.4	0.000000	0.000000	7.282286	110.127	NaN	0.000000	0.001644	0.001662	28.082	50.5964	0.001823	27759	4.880861	175.75	108.23	1.276746	0.054469	0.054198	110.127	27759	0.051494	0.097085	1134.33	81395.5
408	2.000000	1.288058	7.36906e+06	-56689.1	1005.82	-29738.4	0.000000	0.000000	7.295691	167.591	NaN	0.000000	0.001674	0.001645	28.0814	62.3906	0.001864	33469.3	0.717092	178.979	167.961	1.287715	0.065510	0.065167	167.591	33469.3	0.061755	0.132176	1267.94	84109.2
408	2.000000	1.298970	7.36906e+06	-56689.1	1005.82	-29738.4	0.000000	0.000000	7.309268	232.359	NaN	0.000000	0.001676	0.001652	28.0813	73.7008	0.001644	44837.6	3.177507	173.102	226.598	1.298603	0.076422	0.076056	232.359	44837.6	0.072535	0.174554	1331.16	98050.9
408	2.000000	1.310091	7.36906e+06	-56689.1	1005.82	-29738.4	0.000000	0.000000	7.323805	315.373	NaN	0.000000	0.001596	0.001677	28.0802	84.4117	0.001785	47286.7	6.696771	170.336	318.632	1.309629	0.087544	0.087081	315.373	47286.7	0.082541	0.218813	1441.29	92358.2
408	2.000000	1.320974	7.36906e+06	-56689.1	1005.82	-29738.4	0.000000	0.000000	7.338546	409.154	NaN	0.000000	0.001544	0.001651	28.08	95.228	0.001836	51874.7	4.656924	172.195	404.215	1.320607	0.098426	0.098059	409.154	51874.7	0.092511	0.267529	1529.38	91631.2
408	2.000000	1.331043	7.36906e+06	-56689.1	1005.82	-29738.4	0.000000	0.000000	7.352123	494.412	NaN	0.000000	0.001556	0.001656	28.0804	105.172	0.001822	57721.4	4.932901	171.489	491.607	1.330443	0.108496	0.107896	494.412	57721.4	0.102072	0.318521	1552.21	93441.7