Folder: unikorn_login/remote_trans/data/nanoindenter/0828-1/data/Data_2025-08-06,11h17m57s (part 50)

File: 2025-07-22_16-23-58_1_117.txt
2025-07-22, 16:23:58, 1
Index	Phase	Displacement	Time	Pos X	Pos Y	Pos Z	Rot A	Rot B	Piezo Z	Force A	Force B	Gripper	Voltage A	Voltage B	Temperature	Amplitude force	Amplitude pos	Stiffness	Phase shift	Phase excitation	Force A raw	Displacement raw	HMax	HMax raw	Real Force	Real Stiffness	Contact Depth	Area	Hardness	Reduced Mod.
[#]	[#]	[um]	[s]	[um]	[um]	[um]	[m°]	[m°]	[um]	[uN]	[uN]	[V]	[V]	[V]	[°C]	[uN]	[um]	[N/m]	[°]	[°]	[uN]	[um]	[um]	[um]	[uN]	[N/m]	[um]	[um^2]	[MPa]	[MPa]
117	1.000000	0.002206	7.36618e+06	-44489.1	955.819	-29776.2	0.000000	0.000000	6.002755	0.000573	NaN	0.000000	0.001564	0.001679	28.088	0.029376	0.000953	30.8361	86.4386	-165.902	-0.022280	0.000999	-1.047639	-1.048846	0.000573	30.8361	-1.047653	-9.928102E+13	-5.772125E-18	NaN
117	1.000000	0.042184	7.36618e+06	-44489.1	955.818	-29776.2	0.000000	0.000000	6.042736	0.066483	NaN	0.000000	0.001566	0.001666	28.0919	0.088888	0.001936	45.9211	59.3167	-163.626	-0.003820	0.040909	-1.007661	-1.008936	0.066483	45.9211	-1.008747	-2.975175E+13	-2.234604E-15	NaN
117	1.000000	0.082222	7.36618e+06	-44489.1	955.818	-29776.2	0.000000	0.000000	6.082769	-0.035646	NaN	0.000000	0.001542	0.001681	28.09	0.138271	0.001912	72.317	175.158	-163.403	-0.047430	0.080882	-0.967623	-0.968963	-0.035646	72.317	-0.967254	-8.215758E+12	4.338793E-15	NaN
117	1.000000	0.122224	7.36618e+06	-44489.1	955.819	-29776.2	0.000000	0.000000	6.122773	-0.001269	NaN	0.000000	0.001629	0.001705	28.0916	0.056051	0.002077	26.9925	-74.0226	-161.666	0.031441	0.120909	-0.927621	-0.928936	-0.001269	26.9925	-0.927585	-2.396664E+12	5.296877E-16	NaN
117	1.000000	0.162234	7.36618e+06	-44489.1	955.818	-29776.2	0.000000	0.000000	6.162782	-0.037972	NaN	0.000000	0.001655	0.001680	28.0898	0.010456	0.002007	5.210603	95.0497	-166.356	-0.009094	0.160902	-0.887611	-0.888943	-0.037972	5.210603	-0.882145	-5.830610E+11	6.512585E-14	NaN
117	1.000000	0.202277	7.36618e+06	-44489.1	955.818	-29776.2	0.000000	0.000000	6.202826	0.010679	NaN	0.000000	0.001605	0.001705	28.0908	0.063309	0.001939	32.6542	145.694	-162.101	-0.013580	0.200943	-0.847568	-0.848902	0.010679	32.6542	-0.847813	-2.000444E+11	-5.338317E-14	NaN
117	1.000000	0.242298	7.36618e+06	-44489.1	955.818	-29776.2	0.000000	0.000000	6.242849	0.042569	NaN	0.000000	0.001601	0.001677	28.0896	0.065849	0.001933	34.0706	154.362	-162.171	-0.079346	0.241026	-0.807547	-0.808819	0.042569	34.0706	-0.808484	-5.861342E+10	-7.262590E-13	NaN
117	1.000000	0.282284	7.36618e+06	-44489.1	955.819	-29776.2	0.000000	0.000000	6.282834	0.020875	NaN	0.000000	0.001622	0.001706	28.0916	0.042349	0.002063	20.5276	158.79	-163.788	-0.100565	0.281045	-0.767561	-0.768800	0.020875	20.5276	-0.768323	-1.669197E+10	-1.250594E-12	NaN
117	1.000000	0.322308	7.36618e+06	-44489.1	955.818	-29776.2	0.000000	0.000000	6.322858	0.034186	NaN	0.000000	0.001599	0.001663	28.0911	0.068266	0.002056	33.1991	147.559	-161.867	0.024175	0.320945	-0.727537	-0.728900	0.034186	33.1991	-0.728310	-4.761794E+9	-7.179299E-12	NaN
117	1.000000	0.362311	7.36618e+06	-44489.1	955.819	-29776.2	0.000000	0.000000	6.362858	-0.047831	NaN	0.000000	0.001631	0.001695	28.0925	0.169855	0.001953	86.9804	142.991	-162.676	-0.038574	0.361020	-0.687534	-0.688826	-0.047831	86.9804	-0.687122	-1.304912E+9	3.665434E-11	NaN
117	1.000000	0.402376	7.36618e+06	-44489.1	955.818	-29776.2	0.000000	0.000000	6.402924	-0.015552	NaN	0.000000	0.001594	0.001702	28.0911	0.030434	0.002073	14.6845	-76.7354	-165.798	-0.064826	0.401099	-0.647469	-0.648746	-0.015552	14.6845	-0.646675	-3.646218E+8	4.265374E-11	NaN
117	1.000000	0.442381	7.36618e+06	-44489.1	955.819	-29776.2	0.000000	0.000000	6.442928	-0.044782	NaN	0.000000	0.001662	0.001725	28.0916	0.079699	0.001947	40.9391	72.6405	-165.494	-0.049581	0.441088	-0.607464	-0.608757	-0.044782	40.9391	-0.606644	-1.027855E+8	4.356803E-10	NaN
117	1.000000	0.482400	7.36618e+06	-44489.1	955.819	-29776.2	0.000000	0.000000	6.482948	-0.020193	NaN	0.000000	0.001625	0.001680	28.0903	0.036640	0.002091	17.5269	7.816895	-165.276	-0.011233	0.481034	-0.567445	-0.568811	-0.020193	17.5269	-0.566581	-2.879887E+7	7.011802E-10	NaN
117	1.000000	0.522406	7.36618e+06	-44489.1	955.818	-29776.2	0.000000	0.000000	6.522955	0.001530	NaN	0.000000	0.001630	0.001674	28.0918	0.091330	0.001969	46.3841	165.673	-161.699	0.060874	0.521093	-0.527439	-0.528752	0.001530	46.3841	-0.527464	-8.26693e+06	-1.850891E-10	NaN
117	1.000000	0.562402	7.36618e+06	-44489.1	955.818	-29776.2	0.000000	0.000000	6.562950	-0.025471	NaN	0.000000	0.001654	0.001700	28.0923	0.053699	0.002005	26.7811	-139.877	-165.065	-0.120679	0.561135	-0.487443	-0.488710	-0.025471	26.7811	-0.486730	-2.23709e+06	1.138557E-8	NaN
117	1.000000	0.602452	7.36618e+06	-44489.1	955.818	-29776.2	0.000000	0.000000	6.603000	-0.003312	NaN	0.000000	0.001620	0.001668	28.092	0.034383	0.002069	16.622	14.9439	-166.948	-0.020467	0.601121	-0.447393	-0.448724	-0.003312	16.622	-0.447244	-624481	5.303971E-9	NaN
117	1.000000	0.642445	7.36618e+06	-44489.1	955.818	-29776.2	0.000000	0.000000	6.642992	-0.048645	NaN	0.000000	0.001613	0.001671	28.0929	0.113685	0.002007	56.6326	-140.91	-166.066	-0.018228	0.641165	-0.407400	-0.408680	-0.048645	56.6326	-0.406756	-166818	2.916031E-7	NaN
117	1.000000	0.682487	7.36618e+06	-44489.1	955.818	-29776.2	0.000000	0.000000	6.683034	-0.026022	NaN	0.000000	0.001611	0.001673	28.0935	0.067277	0.002022	33.2643	-15.2632	-165.414	0.007486	0.681188	-0.367358	-0.368657	-0.026022	33.2643	-0.366772	-44628	5.830829E-7	NaN
117	1.000000	0.722495	7.36619e+06	-44489.1	955.817	-29776.2	0.000000	0.000000	6.723045	0.010700	NaN	0.000000	0.001614	0.001722	28.0903	0.082302	0.001854	44.3967	24.896	-165.903	-0.015093	0.721210	-0.327350	-0.328635	0.010700	44.3967	-0.327530	-12002.3	-8.915259E-7	NaN
117	1.000000	0.762510	7.36619e+06	-44489.1	955.819	-29776.2	0.000000	0.000000	6.763057	-0.053501	NaN	0.000000	0.001661	0.001671	28.0923	0.113701	0.001982	57.3733	-167.899	-165.506	-0.168056	0.761240	-0.287335	-0.288605	-0.053501	57.3733	-0.286635	-2970.56	1.801045E-5	NaN
117	1.000000	0.802500	7.36619e+06	-44489.1	955.818	-29776.2	0.000000	0.000000	6.803049	0.020332	NaN	0.000000	0.001650	0.001725	28.0919	0.067424	0.001903	35.422	-81.8993	-163.76	0.003517	0.801238	-0.247345	-0.248607	0.020332	35.422	-0.247776	-759.51	-2.676980E-5	NaN
117	1.000000	0.842538	7.36619e+06	-44489.1	955.819	-29776.2	0.000000	0.000000	6.843088	0.016661	NaN	0.000000	0.001592	0.001668	28.0934	0.048700	0.001991	24.4631	-16.8181	-164.548	-0.051720	0.841197	-0.207307	-0.208648	0.016661	24.4631	-0.207818	-176.776	-9.424790E-5	NaN
117	1.000000	0.882550	7.36619e+06	-44489.1	955.818	-29776.2	0.000000	0.000000	6.883098	-0.027220	NaN	0.000000	0.001626	0.001670	28.0932	0.066445	0.002111	31.4722	166.915	-163.318	-0.022711	0.881275	-0.167295	-0.168570	-0.027220	31.4722	-0.166647	-35.9058	0.000758	NaN
117	1.000000	0.922549	7.36619e+06	-44489.1	955.818	-29776.2	0.000000	0.000000	6.923095	-0.070946	NaN	0.000000	0.001647	0.001693	28.0944	0.110353	0.001771	62.301	-7.208248	-164.763	-0.048876	0.921251	-0.127296	-0.128594	-0.070946	62.301	-0.126442	-6.493124	0.010926	NaN
117	1.000000	0.962579	7.36619e+06	-44489.1	955.818	-29776.2	0.000000	0.000000	6.963127	-0.040485	NaN	0.000000	0.001625	0.001728	28.0926	0.081949	0.002136	38.357	134.965	-167.83	-0.053032	0.961244	-0.087266	-0.088601	-0.040485	38.357	-0.086474	-0.891634	0.045406	NaN
117	1.000000	1.002614	7.36619e+06	-44489.1	955.818	-29776.2	0.000000	0.000000	7.003162	-0.029997	NaN	0.000000	0.001619	0.001701	28.0929	0.082901	0.001965	42.1936	105.16	-165.503	0.079500	1.001294	-0.047231	-0.048551	-0.029997	42.1936	-0.046698	-0.072421	0.414196	NaN
117	1.000000	1.042594	7.36619e+06	-44489.1	955.817	-29776.2	0.000000	0.000000	7.043143	-0.012845	NaN	0.000000	0.001671	0.001739	28.0926	0.071254	0.001942	36.6868	-84.8018	-166.678	-0.008936	1.041287	-0.007251	-0.008558	-0.012845	36.6868	-0.006988	-0.004633	2.772338	NaN
117	2.000000	1.065158	7.36619e+06	-44489.1	955.817	-29776.2	0.000000	0.000000	7.066340	15.4129	NaN	0.000000	0.001717	0.001745	28.0938	15.0713	0.001773	8502.11	5.085519	-171.189	15.9866	1.064854	0.015313	0.015009	15.4129	8502.11	0.013953	0.013914	1107.69	65851.8
117	2.000000	1.075052	7.36619e+06	-44489.1	955.818	-29776.2	0.000000	0.000000	7.077009	34.2416	NaN	0.000000	0.001692	0.001723	28.0946	26.287	0.001826	14392	3.118622	-176.007	33.0322	1.074829	0.025207	0.024984	34.2416	14392	0.023423	0.028209	1213.87	78289.4
117	2.000000	1.085033	7.36619e+06	-44489.1	955.817	-29776.2	0.000000	0.000000	7.088336	66.9973	NaN	0.000000	0.001725	0.001715	28.0944	36.3341	0.001792	20276.7	5.000683	179.696	64.9821	1.084759	0.035188	0.034914	66.9973	20276.7	0.032710	0.046548	1439.31	85865.8
117	2.000000	1.095104	7.36619e+06	-44489.1	955.817	-29776.2	0.000000	0.000000	7.099854	102.202	NaN	0.000000	0.001611	0.001680	28.0944	46.1632	0.001865	24757.5	4.152868	179.926	104.348	1.094684	0.045259	0.044839	102.202	24757.5	0.042163	0.069738	1465.52	85653.7
117	2.000000	1.105026	7.36619e+06	-44489.1	955.818	-29776.2	0.000000	0.000000	7.111627	147.236	NaN	0.000000	0.001580	0.001723	28.0949	57.0709	0.001889	30217	4.566561	176.624	145.54	1.104750	0.055181	0.054905	147.236	30217	0.051527	0.097191	1514.91	88554.7
117	2.000000	1.114975	7.36619e+06	-44489.1	955.817	-29776.2	0.000000	0.000000	7.123406	191.758	NaN	0.000000	0.001627	0.001701	28.0936	66.6488	0.001799	37039.7	1.901901	177.472	188.756	1.114682	0.065130	0.064837	191.758	37039.7	0.061247	0.130319	1471.45	93742.6
117	2.000000	1.125026	7.36619e+06	-44489.1	955.817	-29776.2	0.000000	0.000000	7.135894	251.041	NaN	0.000000	0.001589	0.001736	28.0939	76.2123	0.001785	42699.7	5.001589	173.871	252.027	1.124595	0.075181	0.074750	251.041	42699.7	0.070772	0.167241	1501.07	95395.1
117	2.000000	1.135005	7.36619e+06	-44489.1	955.819	-29776.2	0.000000	0.000000	7.148327	310.753	NaN	0.000000	0.001587	0.001695	28.0937	83.4122	0.001838	45383.5	4.923146	174.279	310.422	1.134608	0.085160	0.084763	310.753	45383.5	0.080024	0.207239	1499.49	91082.6
117	2.000000	1.145041	7.36619e+06	-44489.1	955.818	-29776.2	0.000000	0.000000	7.160969	374.161	NaN	0.000000	0.001622	0.001689	28.0953	92.7419	0.001813	51162.2	2.290902	175.344	376.434	1.144606	0.095196	0.094761	374.161	51162.2	0.089711	0.253384	1476.65	92860.9
117	2.000000	1.154971	7.36619e+06	-44489.1	955.818	-29776.2	0.000000	0.000000	7.173622	440.389	NaN	0.000000	0.001634	0.001696	28.0952	100.317	0.001749	57340.3	2.037308	174.595	439.249	1.154702	0.105126	0.104857	440.389	57340.3	0.099366	0.303669	1450.23	95067.6
117	2.000000	1.157977	7.36619e+06	-44489.1	955.818	-29776.2	0.000000	0.000000	7.177771	468.218	NaN	0.000000	0.001606	0.001697	28.0989	104.789	0.001897	55234.3	9.865791	167.664	468.989	1.157628	0.108132	0.107783	468.218	55234.3	0.101774	0.316870	1477.63	89648.2

File: 2025-07-22_16-23-58_1_118.txt
2025-07-22, 16:23:58, 1
Index	Phase	Displacement	Time	Pos X	Pos Y	Pos Z	Rot A	Rot B	Piezo Z	Force A	Force B	Gripper	Voltage A	Voltage B	Temperature	Amplitude force	Amplitude pos	Stiffness	Phase shift	Phase excitation	Force A raw	Displacement raw	HMax	HMax raw	Real Force	Real Stiffness	Contact Depth	Area	Hardness	Reduced Mod.
[#]	[#]	[um]	[s]	[um]	[um]	[um]	[m°]	[m°]	[um]	[uN]	[uN]	[V]	[V]	[V]	[°C]	[uN]	[um]	[N/m]	[°]	[°]	[uN]	[um]	[um]	[um]	[uN]	[N/m]	[um]	[um^2]	[MPa]	[MPa]
118	1.000000	0.002916	7.36619e+06	-44539.1	955.819	-29775.9	0.000000	0.000000	6.002796	0.005705	NaN	0.000000	0.001584	0.001675	28.0991	0.064908	0.000840	77.3129	95.4472	-170.722	0.038581	0.001670	-1.077055	-1.078301	0.005705	77.3129	-1.077111	-2.470072E+14	-2.309660E-17	NaN
118	1.000000	0.042856	7.36619e+06	-44539.1	955.818	-29776	0.000000	0.000000	6.042735	-0.002851	NaN	0.000000	0.001608	0.001661	28.0997	0.019953	0.001965	10.1564	104.833	-162.893	-0.038271	0.041593	-1.037115	-1.038378	-0.002851	10.1564	-1.036905	-7.117779E+13	4.005041E-17	NaN
118	1.000000	0.082871	7.36619e+06	-44539.1	955.818	-29776	0.000000	0.000000	6.082749	-0.035768	NaN	0.000000	0.001595	0.001665	28.101	0.104822	0.001974	53.1019	134.111	-166.768	0.023897	0.081568	-0.997100	-0.998403	-0.035768	53.1019	-0.996595	-2.041384E+13	1.752137E-15	NaN
118	1.000000	0.122895	7.36619e+06	-44539.1	955.818	-29776	0.000000	0.000000	6.122773	-0.037636	NaN	0.000000	0.001596	0.001640	28.0997	0.057267	0.002078	27.5623	-81.131	-162.122	-0.015681	0.121541	-0.957076	-0.958430	-0.037636	27.5623	-0.956052	-5.802880E+12	6.485773E-15	NaN
118	1.000000	0.162921	7.36619e+06	-44539.1	955.818	-29776	0.000000	0.000000	6.162803	0.052073	NaN	0.000000	0.001604	0.001706	28.0993	0.060002	0.001978	30.3388	82.8699	-165.762	0.014602	0.161603	-0.917049	-0.918367	0.052073	30.3388	-0.918337	-1.797832E+12	-2.896443E-14	NaN
118	1.000000	0.202912	7.36619e+06	-44539.1	955.818	-29776	0.000000	0.000000	6.202789	-0.068119	NaN	0.000000	0.001615	0.001708	28.0973	0.088260	0.002256	39.1218	-146.195	-163.929	-0.045710	0.201659	-0.877059	-0.878312	-0.068119	39.1218	-0.875753	-4.778307E+11	1.425588E-13	NaN
118	1.000000	0.242956	7.36619e+06	-44539.1	955.819	-29776	0.000000	0.000000	6.242833	-0.046697	NaN	0.000000	0.001635	0.001678	28.0986	0.032379	0.002011	16.1035	114.862	-166.112	-0.104666	0.241633	-0.837015	-0.838338	-0.046697	16.1035	-0.834840	-1.334703E+11	3.498715E-13	NaN
118	1.000000	0.282948	7.36619e+06	-44539.1	955.818	-29776	0.000000	0.000000	6.282828	-0.015115	NaN	0.000000	0.001664	0.001686	28.0969	0.138264	0.002016	68.5832	-152.742	-162.896	-0.052918	0.281658	-0.797023	-0.798313	-0.015115	68.5832	-0.796857	-4.075665E+10	3.708660E-13	NaN
118	1.000000	0.322968	7.36619e+06	-44539.1	955.818	-29776	0.000000	0.000000	6.322847	-0.007603	NaN	0.000000	0.001625	0.001684	28.0987	0.093116	0.001949	47.7833	-34.2052	-166.324	-0.008477	0.321713	-0.757003	-0.758258	-0.007603	47.7833	-0.756884	-1.166555E+10	6.517893E-13	NaN
118	1.000000	0.362978	7.36619e+06	-44539.1	955.819	-29776	0.000000	0.000000	6.362856	-0.048325	NaN	0.000000	0.001596	0.001699	28.0986	0.002318	0.002073	1.117959	-83.6479	-166.733	-0.061621	0.361723	-0.716993	-0.718248	-0.048325	1.117959	-0.684573	-1.204320E+9	4.012643E-11	NaN
118	1.000000	0.403006	7.36619e+06	-44539.1	955.818	-29776	0.000000	0.000000	6.402887	0.040162	NaN	0.000000	0.001677	0.001706	28.0986	0.044557	0.002059	21.6379	157.695	-167.511	0.036910	0.401702	-0.676965	-0.678269	0.040162	21.6379	-0.678357	-9.902351E+8	-4.055814E-11	NaN
118	1.000000	0.443046	7.36619e+06	-44539.1	955.818	-29776	0.000000	0.000000	6.442926	-0.009888	NaN	0.000000	0.001628	0.001695	28.0987	0.085301	0.002147	39.7259	-50.0592	-163.116	0.021281	0.441701	-0.636925	-0.638270	-0.009888	39.7259	-0.636738	-2.663940E+8	3.711680E-11	NaN
118	1.000000	0.483032	7.36619e+06	-44539.1	955.819	-29776	0.000000	0.000000	6.482913	0.015691	NaN	0.000000	0.001646	0.001718	28.0966	0.055685	0.001923	28.9563	153.93	-164.521	-0.119474	0.481722	-0.596939	-0.598249	0.015691	28.9563	-0.597345	-7.654035E+7	-2.050085E-10	NaN
118	1.000000	0.523048	7.36619e+06	-44539.1	955.818	-29776	0.000000	0.000000	6.522925	-0.063337	NaN	0.000000	0.001640	0.001691	28.0958	0.073129	0.001974	37.0486	102.341	-161.966	0.045996	0.521794	-0.556923	-0.558177	-0.063337	37.0486	-0.555641	-2.032641E+7	3.116000E-9	NaN
118	1.000000	0.563070	7.36619e+06	-44539.1	955.819	-29776	0.000000	0.000000	6.562950	0.012680	NaN	0.000000	0.001584	0.001731	28.0965	0.092459	0.002000	46.2389	74.6947	-162.675	0.016167	0.561826	-0.516901	-0.518145	0.012680	46.2389	-0.517107	-5.93407e+06	-2.136757E-9	NaN
118	1.000000	0.603139	7.36619e+06	-44539.1	955.818	-29776	0.000000	0.000000	6.603018	-0.032656	NaN	0.000000	0.001578	0.001800	28.0964	0.022495	0.001892	11.8892	-175.652	-163.399	0.002408	0.601838	-0.476832	-0.478133	-0.032656	11.8892	-0.474772	-1.52161e+06	2.146124E-8	NaN
118	1.000000	0.643150	7.36619e+06	-44539.1	955.818	-29776	0.000000	0.000000	6.643030	0.019422	NaN	0.000000	0.001592	0.001711	28.0968	0.023492	0.001947	12.0683	-21.959	-164.066	0.036106	0.641806	-0.436821	-0.438165	0.019422	12.0683	-0.438028	-462946	-4.195285E-8	NaN
118	1.000000	0.683116	7.36619e+06	-44539.1	955.818	-29776	0.000000	0.000000	6.682995	-0.012382	NaN	0.000000	0.001607	0.001674	28.0962	0.020912	0.002033	10.2867	114.219	-165.474	-0.059690	0.681839	-0.396855	-0.398132	-0.012382	10.2867	-0.395952	-117013	1.058209E-7	NaN
118	1.000000	0.723174	7.36619e+06	-44539.1	955.818	-29776	0.000000	0.000000	6.723052	-0.034074	NaN	0.000000	0.001603	0.001706	28.0969	0.125374	0.001968	63.6934	44.948	-162.432	-0.046093	0.721855	-0.356797	-0.358115	-0.034074	63.6934	-0.356396	-31601.7	1.078232E-6	NaN
118	1.000000	0.763163	7.36619e+06	-44539.1	955.819	-29776	0.000000	0.000000	6.763041	-0.036688	NaN	0.000000	0.001601	0.001697	28.0939	0.016235	0.001958	8.292336	133.087	-163.461	-0.083096	0.761855	-0.316808	-0.318116	-0.036688	8.292336	-0.313490	-7458.42	4.919039E-6	NaN
118	1.000000	0.803209	7.36619e+06	-44539.1	955.819	-29776	0.000000	0.000000	6.803091	0.063540	NaN	0.000000	0.001611	0.001715	28.0946	0.073376	0.001976	37.1396	162.902	-163.023	0.020065	0.801880	-0.276762	-0.278091	0.063540	37.1396	-0.278045	-2205.27	-2.881294E-5	NaN
118	1.000000	0.843212	7.3662e+06	-44539.1	955.819	-29776	0.000000	0.000000	6.843090	-0.052549	NaN	0.000000	0.001590	0.001711	28.0946	0.054801	0.002017	27.1715	-82.2469	-164.289	-0.023261	0.841924	-0.236759	-0.238047	-0.052549	27.1715	-0.235308	-485.384	0.000108	NaN
118	1.000000	0.883210	7.3662e+06	-44539.1	955.818	-29776	0.000000	0.000000	6.883087	-0.051577	NaN	0.000000	0.001677	0.001755	28.0964	0.077970	0.002014	38.7043	-77.2798	-164.705	-0.080496	0.881897	-0.196761	-0.198074	-0.051577	38.7043	-0.195762	-112.155	0.000460	NaN
118	1.000000	0.923234	7.3662e+06	-44539.1	955.818	-29776	0.000000	0.000000	6.923112	-0.032622	NaN	0.000000	0.001627	0.001737	28.095	0.089425	0.001966	45.4952	175.628	-165.246	-0.017559	0.921973	-0.156737	-0.157997	-0.032622	45.4952	-0.156199	-23.4491	0.001391	NaN
118	1.000000	0.963238	7.3662e+06	-44539.1	955.818	-29776	0.000000	0.000000	6.963118	0.005601	NaN	0.000000	0.001634	0.001701	28.0968	0.061284	0.001869	32.7948	-131.026	-163.365	0.001546	0.961887	-0.116733	-0.118084	0.005601	32.7948	-0.116861	-4.171802	-0.001343	NaN
118	1.000000	1.003306	7.3662e+06	-44539.1	955.818	-29776	0.000000	0.000000	7.003185	-0.007330	NaN	0.000000	0.001617	0.001763	28.0934	0.165447	0.001876	88.2018	63.8216	-164.486	-0.069757	1.001965	-0.076665	-0.078006	-0.007330	88.2018	-0.076603	-0.507883	0.014433	NaN
118	1.000000	1.043286	7.3662e+06	-44539.1	955.817	-29776	0.000000	0.000000	7.043295	3.126833	NaN	0.000000	0.001648	0.001711	28.0937	2.434694	0.002046	1190.07	21.0311	-166.795	3.278721	1.041998	-0.036684	-0.037973	3.126833	1190.07	-0.038655	-0.041173	-75.9439	NaN
118	2.000000	1.062870	7.3662e+06	-44539.1	955.817	-29776	0.000000	0.000000	7.063730	23.8581	NaN	0.000000	0.001601	0.001752	28.0927	15.9608	0.001810	8816.82	6.047309	-173.453	22.8815	1.062598	-0.017101	-0.017373	23.8581	8816.82	-0.019131	-0.011936	-1998.84	NaN
118	2.000000	1.072800	7.3662e+06	-44539.1	955.817	-29776	0.000000	0.000000	7.075779	75.4014	NaN	0.000000	0.001596	0.001682	28.095	26.4315	0.001846	14316.2	5.808912	-177.273	73.9242	1.072446	-0.007171	-0.007524	75.4014	14316.2	-0.011121	-0.007027	-10730.1	NaN
118	2.000000	1.082738	7.3662e+06	-44539.1	955.818	-29776	0.000000	0.000000	7.089326	163.194	NaN	0.000000	0.001597	0.001701	28.0937	37.3686	0.001800	20761.9	6.809445	177.885	159.175	1.082393	0.002767	0.002422	163.194	20761.9	-0.003128	-0.002206	-73974.4	NaN
118	2.000000	1.092702	7.3662e+06	-44539.1	955.817	-29776	0.000000	0.000000	7.104065	279.36	NaN	0.000000	0.001619	0.001728	28.0941	46.6979	0.001753	26644.1	0.545159	-179.149	274.442	1.092444	0.012731	0.012473	279.36	26644.1	0.004868	0.004013	69614.9	384276
118	2.000000	1.102814	7.3662e+06	-44539.1	955.817	-29776	0.000000	0.000000	7.119933	419.389	NaN	0.000000	0.001599	0.001738	28.094	59.3282	0.001817	32647.9	6.439763	173.717	420.903	1.102451	0.022843	0.022480	419.389	32647.9	0.013209	0.012970	32334.9	261912
118	2.000000	1.112780	7.3662e+06	-44539.1	955.817	-29776	0.000000	0.000000	7.137025	592.768	NaN	0.000000	0.001576	0.001726	28.0928	68.9101	0.001863	36988.7	4.909116	174.274	590.789	1.112492	0.032809	0.032521	592.768	36988.7	0.020790	0.023798	24908	219063
118	2.000000	1.122713	7.3662e+06	-44539.1	955.818	-29776	0.000000	0.000000	7.154917	786.399	NaN	0.000000	0.001606	0.001744	28.0933	76.6589	0.001729	44336.1	4.811191	173.106	783.236	1.122425	0.042742	0.042455	786.399	44336.1	0.029439	0.039589	19864.1	203584
118	2.000000	1.132624	7.3662e+06	-44539.1	955.817	-29776	0.000000	0.000000	7.173537	998.253	NaN	0.000000	0.001614	0.001713	28.093	84.8704	0.002058	41240.8	3.696344	174.874	990.749	1.132367	0.052653	0.052396	998.253	41240.8	0.034499	0.050586	19733.7	167527
118	2.000000	1.142539	7.3662e+06	-44539.1	955.817	-29776	0.000000	0.000000	7.192063	1207.75	NaN	0.000000	0.001587	0.001738	28.0923	90.9736	0.001842	49400.3	0.793845	176.175	1196.04	1.142304	0.062568	0.062333	1207.75	49400.3	0.044232	0.075421	16013.4	164344
118	2.000000	1.152778	7.3662e+06	-44539.1	955.819	-29776	0.000000	0.000000	7.210538	1408.12	NaN	0.000000	0.001610	0.001730	28.0941	99.5697	0.001906	52232.5	1.979955	175.054	1408.77	1.152369	0.072807	0.072398	1408.12	52232.5	0.052588	0.100581	13999.9	150473
118	2.000000	1.154523	7.3662e+06	-44539.1	955.818	-29776	0.000000	0.000000	7.215301	1481.53	NaN	0.000000	0.001597	0.001707	28.0937	99.7814	0.001900	52526.8	2.584980	174.03	1469.03	1.154112	0.074552	0.074141	1481.53	52526.8	0.053398	0.103206	14355	149383