Folder: unikorn_login/remote_trans/data/nanoindenter/0828-1/data/Data_2025-08-06,11h17m57s (part 122)

File: 2025-07-22_16-23-58_1_261.txt
2025-07-22, 16:23:58, 1
Index	Phase	Displacement	Time	Pos X	Pos Y	Pos Z	Rot A	Rot B	Piezo Z	Force A	Force B	Gripper	Voltage A	Voltage B	Temperature	Amplitude force	Amplitude pos	Stiffness	Phase shift	Phase excitation	Force A raw	Displacement raw	HMax	HMax raw	Real Force	Real Stiffness	Contact Depth	Area	Hardness	Reduced Mod.
[#]	[#]	[um]	[s]	[um]	[um]	[um]	[m°]	[m°]	[um]	[uN]	[uN]	[V]	[V]	[V]	[°C]	[uN]	[um]	[N/m]	[°]	[°]	[uN]	[um]	[um]	[um]	[uN]	[N/m]	[um]	[um^2]	[MPa]	[MPa]
261	1.000000	0.002309	7.36761e+06	-51689.1	955.819	-29751.6	0.000000	0.000000	6.002793	0.048489	NaN	0.000000	0.001610	0.001524	28.0796	0.050027	0.000961	52.0835	-100.784	-165.469	0.040402	0.001086	-1.186762	-1.187985	0.048489	52.0835	-1.187460	-7.461144E+15	-6.498912E-18	NaN
261	1.000000	0.046261	7.36761e+06	-51689.1	955.819	-29751.6	0.000000	0.000000	6.046743	-0.000171	NaN	0.000000	0.001616	0.001513	28.0796	0.039192	0.001995	19.6446	-89.8488	-167.19	-0.005468	0.044954	-1.142810	-1.144117	-0.000171	19.6446	-1.142803	-1.880741E+15	9.092291E-20	NaN
261	1.000000	0.090275	7.36761e+06	-51689.1	955.819	-29751.6	0.000000	0.000000	6.090758	0.019638	NaN	0.000000	0.001599	0.001487	28.0797	0.121597	0.002097	57.9821	-99.7925	-169.696	0.170134	0.088957	-1.098796	-1.100115	0.019638	57.9821	-1.099050	-4.867648E+14	-4.034307E-17	NaN
261	1.000000	0.134273	7.36761e+06	-51689.1	955.819	-29751.6	0.000000	0.000000	6.134757	0.048108	NaN	0.000000	0.001575	0.001560	28.081	0.121411	0.001953	62.1773	146.991	-167.528	0.077924	0.132932	-1.054798	-1.056139	0.048108	62.1773	-1.055378	-1.260981E+14	-3.815113E-16	NaN
261	1.000000	0.178336	7.36761e+06	-51689.1	955.82	-29751.6	0.000000	0.000000	6.178819	0.018626	NaN	0.000000	0.001656	0.001537	28.0809	0.008330	0.001952	4.267285	15.6012	-165.979	0.057018	0.176976	-1.010735	-1.012095	0.018626	4.267285	-1.014009	-3.502152E+13	-5.318388E-16	NaN
261	1.000000	0.222332	7.36761e+06	-51689.1	955.817	-29751.6	0.000000	0.000000	6.222816	0.059479	NaN	0.000000	0.001647	0.001542	28.0808	0.078791	0.002138	36.8548	111.929	-164.963	-0.050634	0.221045	-0.966739	-0.968026	0.059479	36.8548	-0.967950	-8.395234E+12	-7.084874E-15	NaN
261	1.000000	0.266368	7.36761e+06	-51689.1	955.82	-29751.6	0.000000	0.000000	6.266850	-0.006677	NaN	0.000000	0.001630	0.001511	28.0795	0.062450	0.001950	32.0236	-52.2278	-166.216	0.023645	0.265002	-0.922703	-0.924069	-0.006677	32.0236	-0.922547	-2.049231E+12	3.258369E-15	NaN
261	1.000000	0.310367	7.36761e+06	-51689.1	955.818	-29751.6	0.000000	0.000000	6.310850	0.025146	NaN	0.000000	0.001564	0.001516	28.0796	0.106783	0.001894	56.369	-11.7345	-167.203	0.000618	0.309019	-0.878705	-0.880053	0.025146	56.369	-0.879039	-5.293168E+11	-4.750578E-14	NaN
261	1.000000	0.354378	7.36761e+06	-51689.1	955.819	-29751.6	0.000000	0.000000	6.354860	-0.003552	NaN	0.000000	0.001563	0.001544	28.0795	0.034136	0.001960	17.4146	-152.281	-167.897	-0.012043	0.353070	-0.834693	-0.836001	-0.003552	17.4146	-0.834540	-1.322255E+11	2.686657E-14	NaN
261	1.000000	0.398398	7.36761e+06	-51689.1	955.819	-29751.6	0.000000	0.000000	6.398879	-0.028657	NaN	0.000000	0.001563	0.001498	28.0808	0.045412	0.002004	22.6605	-31.1738	-168.058	-0.003089	0.397100	-0.790673	-0.791971	-0.028657	22.6605	-0.789725	-3.260974E+10	8.787811E-13	NaN
261	1.000000	0.442438	7.36761e+06	-51689.1	955.818	-29751.6	0.000000	0.000000	6.442922	0.057216	NaN	0.000000	0.001578	0.001521	28.0808	0.076202	0.002003	38.0409	126.577	-165.505	0.029963	0.441164	-0.746634	-0.747907	0.057216	38.0409	-0.747762	-8.764982E+9	-6.527841E-12	NaN
261	1.000000	0.486468	7.36761e+06	-51689.1	955.819	-29751.6	0.000000	0.000000	6.486948	-0.044269	NaN	0.000000	0.001551	0.001561	28.0811	0.064669	0.002080	31.0966	94.3191	-164.955	-0.032548	0.485180	-0.702603	-0.703891	-0.044269	31.0966	-0.701535	-2.053521E+9	2.155740E-11	NaN
261	1.000000	0.530487	7.36761e+06	-51689.1	955.819	-29751.6	0.000000	0.000000	6.530971	0.057985	NaN	0.000000	0.001520	0.001519	28.0797	0.126185	0.002012	62.7264	66.9589	-166.68	0.096429	0.529131	-0.658584	-0.659941	0.057985	62.7264	-0.659277	-5.427146E+8	-1.068417E-10	NaN
261	1.000000	0.574504	7.36761e+06	-51689.1	955.82	-29751.6	0.000000	0.000000	6.574986	-0.002182	NaN	0.000000	0.001550	0.001547	28.0796	0.104414	0.001864	56.0105	-87.7245	-165.911	-0.008327	0.573133	-0.614567	-0.615939	-0.002182	56.0105	-0.614538	-1.319888E+8	1.652798E-11	NaN
261	1.000000	0.618487	7.36761e+06	-51689.1	955.819	-29751.6	0.000000	0.000000	6.618970	0.030319	NaN	0.000000	0.001554	0.001521	28.0795	0.048767	0.002010	24.2588	-151.037	-168.776	-0.049046	0.617177	-0.570584	-0.571894	0.030319	24.2588	-0.571521	-3.370173E+7	-8.996228E-10	NaN
261	1.000000	0.662527	7.36761e+06	-51689.1	955.819	-29751.6	0.000000	0.000000	6.663010	0.024149	NaN	0.000000	0.001549	0.001470	28.0809	0.051554	0.001959	26.3229	62.0362	-161.007	0.042965	0.661221	-0.526544	-0.527850	0.024149	26.3229	-0.527232	-8.2059e+06	-2.942830E-9	NaN
261	1.000000	0.706560	7.36761e+06	-51689.1	955.818	-29751.6	0.000000	0.000000	6.707043	0.016115	NaN	0.000000	0.001571	0.001510	28.0807	0.036441	0.001954	18.6514	102.04	-166.556	-0.012734	0.705231	-0.482511	-0.483840	0.016115	18.6514	-0.483159	-1.99408e+06	-8.081527E-9	NaN
261	1.000000	0.750573	7.36761e+06	-51689.1	955.818	-29751.6	0.000000	0.000000	6.751054	-0.017832	NaN	0.000000	0.001570	0.001482	28.0807	0.085264	0.002046	41.6762	32.5087	-170.014	-0.049541	0.749221	-0.438498	-0.439851	-0.017832	41.6762	-0.438177	-465195	3.833298E-8	NaN
261	1.000000	0.794569	7.36761e+06	-51689.1	955.819	-29751.6	0.000000	0.000000	6.795050	-0.023467	NaN	0.000000	0.001564	0.001495	28.0798	0.054883	0.001886	29.1012	-32.4083	-164.448	-0.034041	0.793281	-0.394502	-0.395790	-0.023467	29.1012	-0.393897	-109366	2.145772E-7	NaN
261	1.000000	0.838620	7.36761e+06	-51689.1	955.818	-29751.6	0.000000	0.000000	6.839101	-0.015811	NaN	0.000000	0.001600	0.001521	28.0799	0.071890	0.001967	36.5465	-2.926797	-166.621	-0.034379	0.837277	-0.350451	-0.351795	-0.015811	36.5465	-0.350127	-25635.7	6.167645E-7	NaN
261	1.000000	0.882606	7.36761e+06	-51689.1	955.82	-29751.6	0.000000	0.000000	6.883088	0.012963	NaN	0.000000	0.001620	0.001530	28.0796	0.126120	0.001962	64.2755	85.8307	-163.303	0.042860	0.881304	-0.306466	-0.307767	0.012963	64.2755	-0.306617	-5901.2	-2.196678E-6	NaN
261	1.000000	0.926653	7.36761e+06	-51689.1	955.819	-29751.6	0.000000	0.000000	6.927134	-0.033765	NaN	0.000000	0.001589	0.001546	28.0811	0.098839	0.002104	46.9691	14.2864	-170.868	0.047959	0.925319	-0.262418	-0.263752	-0.033765	46.9691	-0.261879	-1252.25	2.696358E-5	NaN
261	1.000000	0.970643	7.36761e+06	-51689.1	955.818	-29751.6	0.000000	0.000000	6.971121	-0.100454	NaN	0.000000	0.001597	0.001516	28.081	0.064625	0.001961	32.955	9.209394	-165.916	-0.128029	0.969363	-0.218428	-0.219709	-0.100454	32.955	-0.216142	-240.915	0.000417	NaN
261	1.000000	1.014684	7.36761e+06	-51689.1	955.818	-29751.6	0.000000	0.000000	7.015166	-0.023140	NaN	0.000000	0.001545	0.001545	28.0809	0.049208	0.001863	26.407	-99.5927	-167.047	-0.025773	1.013331	-0.174387	-0.175740	-0.023140	26.407	-0.173730	-47.6565	0.000486	NaN
261	1.000000	1.058698	7.36761e+06	-51689.1	955.819	-29751.6	0.000000	0.000000	7.059180	0.016047	NaN	0.000000	0.001581	0.001578	28.0797	0.034339	0.002048	16.7649	109.947	-166.733	-0.034599	1.057391	-0.130374	-0.131680	0.016047	16.7649	-0.131091	-8.001513	-0.002005	NaN
261	1.000000	1.102684	7.36761e+06	-51689.1	955.82	-29751.6	0.000000	0.000000	7.103166	0.003697	NaN	0.000000	0.001604	0.001534	28.0797	0.107819	0.002104	51.2454	146.072	-165.646	-0.034208	1.101369	-0.086387	-0.087702	0.003697	51.2454	-0.086441	-0.890033	-0.004153	NaN
261	1.000000	1.146737	7.36761e+06	-51689.1	955.819	-29751.6	0.000000	0.000000	7.147220	0.025730	NaN	0.000000	0.001538	0.001537	28.0801	0.135967	0.002025	67.1385	-155.527	-166.168	0.100164	1.145379	-0.042334	-0.043693	0.025730	67.1385	-0.042622	-0.054358	-0.473335	NaN
261	1.000000	1.190711	7.36761e+06	-51689.1	955.819	-29751.6	0.000000	0.000000	7.191234	1.009858	NaN	0.000000	0.001609	0.001566	28.0813	1.544841	0.002021	764.317	5.956662	-164.299	0.288687	1.189427	0.001639	0.000356	1.009858	764.317	0.000648	0.000491	2057.87	31522.9
261	2.000000	1.206255	7.36761e+06	-51689.1	955.82	-29751.6	0.000000	0.000000	7.207689	23.1488	NaN	0.000000	0.001583	0.001534	28.0812	18.0625	0.001685	10721.4	2.831595	-175.204	20.9892	1.206053	0.017184	0.016981	23.1488	10721.4	0.015565	0.016046	1442.67	77329.4
261	2.000000	1.217286	7.36761e+06	-51689.1	955.819	-29751.6	0.000000	0.000000	7.219785	49.0471	NaN	0.000000	0.001530	0.001536	28.0813	29.7429	0.001658	17940.9	3.890947	178.84	49.5109	1.217033	0.028215	0.027962	49.0471	17940.9	0.026164	0.033168	1478.75	90003.5
261	2.000000	1.228287	7.36761e+06	-51689.1	955.818	-29751.6	0.000000	0.000000	7.232140	81.9594	NaN	0.000000	0.001546	0.001558	28.0812	42.9922	0.001930	22272.6	11.0517	171.266	83.8218	1.228028	0.039216	0.038956	81.9594	22272.6	0.036456	0.055190	1485.03	86618.9
261	2.000000	1.239233	7.36761e+06	-51689.1	955.819	-29751.6	0.000000	0.000000	7.245203	133.447	NaN	0.000000	0.001544	0.001561	28.0797	51.4958	0.001794	28707.4	5.352550	175.122	132.327	1.238850	0.050161	0.049779	133.447	28707.4	0.046675	0.082413	1619.24	91362.7
261	2.000000	1.250171	7.36761e+06	-51689.1	955.818	-29751.6	0.000000	0.000000	7.258360	187.406	NaN	0.000000	0.001566	0.001602	28.0798	61.0664	0.001688	36179.5	4.255145	174.687	184.025	1.249879	0.061100	0.060808	187.406	36179.5	0.057215	0.116011	1615.42	97047.9
261	2.000000	1.261302	7.36761e+06	-51689.1	955.817	-29751.6	0.000000	0.000000	7.272015	248.755	NaN	0.000000	0.001541	0.001535	28.08	74.4035	0.001831	40632.3	3.130226	174.388	251.647	1.260985	0.072231	0.071914	248.755	40632.3	0.067640	0.154619	1608.83	94409
261	2.000000	1.272193	7.36761e+06	-51689.1	955.817	-29751.6	0.000000	0.000000	7.286257	330.279	NaN	0.000000	0.001540	0.001612	28.0812	85.7541	0.001807	47453.1	7.601418	169.887	329.559	1.271873	0.083121	0.082802	330.279	47453.1	0.077901	0.197705	1670.56	97505.4
261	2.000000	1.283199	7.36761e+06	-51689.1	955.817	-29751.6	0.000000	0.000000	7.301190	425.758	NaN	0.000000	0.001562	0.001639	28.0813	94.7555	0.001770	53522.6	4.542015	171.494	425.749	1.282764	0.094128	0.093693	425.758	53522.6	0.088162	0.245714	1732.74	98649.6
261	2.000000	1.294366	7.36761e+06	-51689.1	955.819	-29751.6	0.000000	0.000000	7.315550	503.383	NaN	0.000000	0.001594	0.001611	28.0813	107.277	0.001771	60569.9	9.060835	166.083	513.33	1.293902	0.105295	0.104831	503.383	60569.9	0.099061	0.302018	1666.73	100696
261	2.000000	1.295118	7.36761e+06	-51689.1	955.819	-29751.6	0.000000	0.000000	7.316813	515.796	NaN	0.000000	0.001568	0.001625	28.0816	107.637	0.001738	61930.5	4.169813	170.346	509.797	1.294724	0.106047	0.105652	515.796	61930.5	0.099801	0.306032	1685.43	102281

File: 2025-07-22_16-23-58_1_262.txt
2025-07-22, 16:23:58, 1
Index	Phase	Displacement	Time	Pos X	Pos Y	Pos Z	Rot A	Rot B	Piezo Z	Force A	Force B	Gripper	Voltage A	Voltage B	Temperature	Amplitude force	Amplitude pos	Stiffness	Phase shift	Phase excitation	Force A raw	Displacement raw	HMax	HMax raw	Real Force	Real Stiffness	Contact Depth	Area	Hardness	Reduced Mod.
[#]	[#]	[um]	[s]	[um]	[um]	[um]	[m°]	[m°]	[um]	[uN]	[uN]	[V]	[V]	[V]	[°C]	[uN]	[um]	[N/m]	[°]	[°]	[uN]	[um]	[um]	[um]	[uN]	[N/m]	[um]	[um^2]	[MPa]	[MPa]
262	1.000000	0.002920	7.36762e+06	-51739.1	955.817	-29751.6	0.000000	0.000000	6.002812	0.021959	NaN	0.000000	0.001632	0.001563	28.0792	0.073719	0.000945	78.0112	-87.4814	-170.388	0.080210	0.001674	-1.077662	-1.078909	0.021959	78.0112	-1.077873	-2.529035E+14	-8.682900E-17	NaN
262	1.000000	0.042866	7.36762e+06	-51739.1	955.82	-29751.6	0.000000	0.000000	6.042759	0.056829	NaN	0.000000	0.001661	0.001572	28.0788	0.062180	0.001963	31.6717	86.379	-166.314	0.039228	0.041551	-1.037716	-1.039032	0.056829	31.6717	-1.039062	-7.609499E+13	-7.468141E-16	NaN
262	1.000000	0.082841	7.36762e+06	-51739.1	955.819	-29751.6	0.000000	0.000000	6.082735	0.065417	NaN	0.000000	0.001617	0.001596	28.0789	0.048663	0.002023	24.0528	137.439	-164.911	0.083426	0.081597	-0.997741	-0.998985	0.065417	24.0528	-0.999781	-2.253281E+13	-2.903180E-15	NaN
262	1.000000	0.122898	7.36762e+06	-51739.1	955.819	-29751.6	0.000000	0.000000	6.122788	-0.016071	NaN	0.000000	0.001524	0.001601	28.0792	0.058651	0.001936	30.302	-122.971	-165.946	0.021286	0.121621	-0.957684	-0.958961	-0.016071	30.302	-0.957286	-6.029536E+12	2.665443E-15	NaN
262	1.000000	0.162906	7.36762e+06	-51739.1	955.819	-29751.6	0.000000	0.000000	6.162797	0.017399	NaN	0.000000	0.001579	0.001682	28.0776	0.037190	0.001948	19.0929	130.235	-162.124	0.056687	0.161640	-0.917677	-0.918942	0.017399	19.0929	-0.918360	-1.799140E+12	-9.670893E-15	NaN
262	1.000000	0.202929	7.36762e+06	-51739.1	955.818	-29751.6	0.000000	0.000000	6.202822	0.036331	NaN	0.000000	0.001659	0.001656	28.0773	0.032253	0.001934	16.6777	179.503	-167.281	0.102230	0.201622	-0.877653	-0.878960	0.036331	16.6777	-0.879287	-5.334128E+11	-6.811058E-14	NaN
262	1.000000	0.242941	7.36762e+06	-51739.1	955.819	-29751.6	0.000000	0.000000	6.242833	0.025357	NaN	0.000000	0.001616	0.001629	28.0774	0.057967	0.001928	30.072	110.963	-164.117	0.031951	0.241615	-0.837641	-0.838967	0.025357	30.072	-0.838273	-1.485589E+11	-1.706880E-13	NaN
262	1.000000	0.282913	7.36762e+06	-51739.1	955.819	-29751.6	0.000000	0.000000	6.282802	-0.029439	NaN	0.000000	0.001618	0.001636	28.0786	0.031025	0.002098	14.7868	-63.8082	-167.474	-0.007149	0.281635	-0.797670	-0.798947	-0.029439	14.7868	-0.796177	-3.989856E+10	7.378512E-13	NaN
262	1.000000	0.322949	7.36762e+06	-51739.1	955.819	-29751.6	0.000000	0.000000	6.322840	0.005255	NaN	0.000000	0.001610	0.001668	28.0786	0.064705	0.001969	32.8536	129.672	-167.375	-0.042371	0.321703	-0.757633	-0.758880	0.005255	32.8536	-0.757753	-1.198774E+10	-4.383853E-13	NaN
262	1.000000	0.362997	7.36762e+06	-51739.1	955.818	-29751.6	0.000000	0.000000	6.362888	0.002643	NaN	0.000000	0.001589	0.001687	28.0784	0.043805	0.002081	21.0499	-33.1019	-163.436	0.047694	0.361664	-0.717586	-0.718918	0.002643	21.0499	-0.717680	-3.410570E+9	-7.750451E-13	NaN
262	1.000000	0.403007	7.36762e+06	-51739.1	955.818	-29751.6	0.000000	0.000000	6.402900	0.050300	NaN	0.000000	0.001597	0.001698	28.0784	0.069889	0.002154	32.4388	-157.937	-166.129	0.054814	0.401689	-0.677575	-0.678893	0.050300	32.4388	-0.678738	-1.002185E+9	-5.019056E-11	NaN
262	1.000000	0.442995	7.36762e+06	-51739.1	955.819	-29751.6	0.000000	0.000000	6.442890	0.106391	NaN	0.000000	0.001549	0.001695	28.0774	0.077201	0.002062	37.4365	-120.527	-167.366	0.044411	0.441702	-0.637587	-0.638880	0.106391	37.4365	-0.639719	-2.927046E+8	-3.634771E-10	NaN
262	1.000000	0.483039	7.36762e+06	-51739.1	955.818	-29751.6	0.000000	0.000000	6.482931	0.008129	NaN	0.000000	0.001576	0.001690	28.0776	0.079527	0.001978	40.2084	88.3726	-166.603	-0.034583	0.481715	-0.597543	-0.598867	0.008129	40.2084	-0.597694	-7.739350E+7	-1.050350E-10	NaN
262	1.000000	0.523049	7.36762e+06	-51739.1	955.819	-29751.6	0.000000	0.000000	6.522941	0.032749	NaN	0.000000	0.001565	0.001673	28.0786	0.098695	0.002083	47.3812	26.1287	-166.584	-0.011207	0.521782	-0.557533	-0.558800	0.032749	47.3812	-0.558052	-2.194928E+7	-1.492032E-9	NaN
262	1.000000	0.563087	7.36762e+06	-51739.1	955.819	-29751.6	0.000000	0.000000	6.562975	-0.052948	NaN	0.000000	0.001594	0.001654	28.0788	0.070424	0.002076	33.9212	-143.354	-163.163	0.005715	0.561808	-0.517496	-0.518775	-0.052948	33.9212	-0.516325	-5.78727e+06	9.149079E-9	NaN
262	1.000000	0.603116	7.36762e+06	-51739.1	955.819	-29751.6	0.000000	0.000000	6.603006	-0.032635	NaN	0.000000	0.001630	0.001684	28.0788	0.144714	0.001948	74.2787	47.8731	-167.503	-0.065286	0.601766	-0.477466	-0.478816	-0.032635	74.2787	-0.477137	-1.64223e+06	1.987214E-8	NaN
262	1.000000	0.643113	7.36762e+06	-51739.1	955.818	-29751.6	0.000000	0.000000	6.643007	0.072275	NaN	0.000000	0.001638	0.001666	28.079	0.043706	0.002030	21.5313	-131.401	-166.649	0.076864	0.641794	-0.437469	-0.438789	0.072275	21.5313	-0.439987	-493377	-1.464895E-7	NaN
262	1.000000	0.683126	7.36762e+06	-51739.1	955.818	-29751.6	0.000000	0.000000	6.683016	-0.020704	NaN	0.000000	0.001660	0.001680	28.0777	0.081412	0.002063	39.455	-143.509	-162.142	-0.009177	0.681790	-0.397456	-0.398792	-0.020704	39.455	-0.397063	-121363	1.705968E-7	NaN
262	1.000000	0.723160	7.36762e+06	-51739.1	955.818	-29751.6	0.000000	0.000000	6.723051	0.015233	NaN	0.000000	0.001647	0.001675	28.0778	0.061358	0.001835	33.433	146.699	-166.364	-0.084884	0.721786	-0.357422	-0.358796	0.015233	33.433	-0.357764	-33075.9	-4.605373E-7	NaN
262	1.000000	0.763153	7.36762e+06	-51739.1	955.818	-29751.6	0.000000	0.000000	6.763043	-0.026089	NaN	0.000000	0.001589	0.001689	28.0777	0.027076	0.002010	13.4725	-115.69	-165.493	-0.074878	0.761843	-0.317429	-0.318739	-0.026089	13.4725	-0.315977	-8116.24	3.214379E-6	NaN
262	1.000000	0.803166	7.36762e+06	-51739.1	955.818	-29751.6	0.000000	0.000000	6.803055	-0.032031	NaN	0.000000	0.001549	0.001686	28.0776	0.058611	0.001990	29.4556	79.085	-166.853	0.035973	0.801825	-0.277416	-0.278757	-0.032031	29.4556	-0.276601	-2097.13	1.527368E-5	NaN
262	1.000000	0.843180	7.36762e+06	-51739.1	955.819	-29751.6	0.000000	0.000000	6.843069	-0.041553	NaN	0.000000	0.001570	0.001669	28.0787	0.111719	0.002063	54.1485	-63.4569	-164.089	0.016052	0.841898	-0.237403	-0.238685	-0.041553	54.1485	-0.236827	-512.757	8.103848E-5	NaN
262	1.000000	0.883208	7.36762e+06	-51739.1	955.819	-29751.6	0.000000	0.000000	6.883097	-0.063401	NaN	0.000000	0.001536	0.001701	28.0787	0.027916	0.002002	13.9451	-121.999	-165.316	-0.008539	0.881918	-0.197374	-0.198665	-0.063401	13.9451	-0.193964	-104.719	0.000605	NaN
262	1.000000	0.923216	7.36762e+06	-51739.1	955.819	-29751.6	0.000000	0.000000	6.923107	0.005664	NaN	0.000000	0.001549	0.001676	28.0785	0.037321	0.002093	17.8295	-138.615	-163.245	-0.091229	0.921907	-0.157366	-0.158675	0.005664	17.8295	-0.157605	-24.8482	-0.000228	NaN
262	1.000000	0.963238	7.36762e+06	-51739.1	955.818	-29751.6	0.000000	0.000000	6.963128	-0.008006	NaN	0.000000	0.001576	0.001708	28.0775	0.053259	0.001983	26.8569	178.384	-164.483	0.032124	0.961946	-0.117345	-0.118636	-0.008006	26.8569	-0.117121	-4.223109	0.001896	NaN
262	1.000000	1.003267	7.36762e+06	-51739.1	955.819	-29751.6	0.000000	0.000000	7.003158	0.000875	NaN	0.000000	0.001546	0.001684	28.0777	0.132276	0.002009	65.84	-130.816	-161.58	0.026879	1.001937	-0.077315	-0.078645	0.000875	65.84	-0.077325	-0.529904	-0.001651	NaN
262	1.000000	1.043262	7.36762e+06	-51739.1	955.818	-29751.6	0.000000	0.000000	7.043154	0.010853	NaN	0.000000	0.001532	0.001691	28.0777	0.054881	0.001989	27.5888	-111.287	-168.798	-0.008100	1.042027	-0.037320	-0.038555	0.010853	27.5888	-0.037615	-0.038309	-0.283310	NaN
262	1.000000	1.083291	7.36762e+06	-51739.1	955.819	-29751.6	0.000000	0.000000	7.083221	0.957117	NaN	0.000000	0.001539	0.001674	28.0776	1.660068	0.001875	885.4	13.8412	-168.129	0.402891	1.081956	0.002708	0.001374	0.957117	885.4	0.001898	0.001472	650.149	21083.2
262	2.000000	1.098777	7.36762e+06	-51739.1	955.82	-29751.6	0.000000	0.000000	7.099463	19.3431	NaN	0.000000	0.001540	0.001689	28.0787	18.0561	0.001982	9110.1	8.114791	-175.781	18.2337	1.098523	0.018194	0.017941	19.3431	9110.1	0.016602	0.017481	1106.51	62952.4
262	2.000000	1.108814	7.36762e+06	-51739.1	955.82	-29751.6	0.000000	0.000000	7.110461	42.6926	NaN	0.000000	0.001612	0.001677	28.0788	28.2577	0.001756	16092	0.358048	-175.007	42.9136	1.108608	0.028232	0.028026	42.6926	16092	0.026242	0.033314	1281.53	80551
262	2.000000	1.118734	7.36762e+06	-51739.1	955.82	-29751.6	0.000000	0.000000	7.121745	75.8727	NaN	0.000000	0.001603	0.001654	28.0789	37.9424	0.001736	21857.8	7.367415	175.76	74.0322	1.118461	0.038152	0.037879	75.8727	21857.8	0.035548	0.053031	1430.73	86719.5
262	2.000000	1.128801	7.36762e+06	-51739.1	955.82	-29751.6	0.000000	0.000000	7.133212	109.903	NaN	0.000000	0.001623	0.001649	28.0777	46.609	0.001717	27149.6	4.736487	176.424	111.845	1.128469	0.048219	0.047887	109.903	27149.6	0.045183	0.078106	1407.09	88755.1
262	2.000000	1.138698	7.36762e+06	-51739.1	955.819	-29751.6	0.000000	0.000000	7.145263	162.283	NaN	0.000000	0.001628	0.001674	28.0774	56.9137	0.001753	32465.5	5.659482	174.317	160.065	1.138318	0.058116	0.057736	162.283	32465.5	0.054367	0.106387	1525.4	90939.2
262	2.000000	1.148781	7.36762e+06	-51739.1	955.82	-29751.6	0.000000	0.000000	7.157697	219.468	NaN	0.000000	0.001599	0.001696	28.0775	67.3695	0.001745	38612.4	4.495241	173.569	222.952	1.148457	0.068198	0.067874	219.468	38612.4	0.063935	0.140297	1564.31	94183.7
262	2.000000	1.158619	7.36762e+06	-51739.1	955.819	-29751.6	0.000000	0.000000	7.169889	276.696	NaN	0.000000	0.001574	0.001679	28.0777	76.2733	0.001786	42696	4.740696	172.342	271.299	1.158408	0.078036	0.077825	276.696	42696	0.073176	0.177247	1561.08	92655.6
262	2.000000	1.168685	7.36762e+06	-51739.1	955.821	-29751.6	0.000000	0.000000	7.182783	345.476	NaN	0.000000	0.001638	0.001688	28.0789	86.5268	0.001735	49861.2	9.588897	166.44	344.887	1.168502	0.088102	0.087919	345.476	49861.2	0.082906	0.220513	1566.69	97010.7
262	2.000000	1.178664	7.36762e+06	-51739.1	955.82	-29751.6	0.000000	0.000000	7.195858	420.761	NaN	0.000000	0.001637	0.001677	28.0792	94.7673	0.001817	52155.3	2.326713	173.387	418.482	1.178591	0.098081	0.098009	420.761	52155.3	0.092031	0.265078	1587.31	92551.7
262	2.000000	1.188799	7.36762e+06	-51739.1	955.821	-29751.6	0.000000	0.000000	7.209516	506.407	NaN	0.000000	0.001598	0.001720	28.0788	104.842	0.001732	60538.3	4.627749	170.664	514.526	1.188461	0.108217	0.107879	506.407	60538.3	0.101943	0.317806	1593.45	98112.1
262	2.000000	1.189084	7.36762e+06	-51739.1	955.82	-29751.6	0.000000	0.000000	7.210016	511.631	NaN	0.000000	0.001618	0.001715	28.0791	104.34	0.001826	57134.4	1.358033	-5.879407	503.803	1.188892	0.108502	0.108310	511.631	57134.4	0.101786	0.316936	1614.3	92722.5