Folder: unikorn_login/remote_trans/data/nanoindenter/0828-1/data/Data_2025-08-06,11h17m57s (part 66)

File: 2025-07-22_16-23-58_1_149.txt
2025-07-22, 16:23:58, 1
Index	Phase	Displacement	Time	Pos X	Pos Y	Pos Z	Rot A	Rot B	Piezo Z	Force A	Force B	Gripper	Voltage A	Voltage B	Temperature	Amplitude force	Amplitude pos	Stiffness	Phase shift	Phase excitation	Force A raw	Displacement raw	HMax	HMax raw	Real Force	Real Stiffness	Contact Depth	Area	Hardness	Reduced Mod.
[#]	[#]	[um]	[s]	[um]	[um]	[um]	[m°]	[m°]	[um]	[uN]	[uN]	[V]	[V]	[V]	[°C]	[uN]	[um]	[N/m]	[°]	[°]	[uN]	[um]	[um]	[um]	[uN]	[N/m]	[um]	[um^2]	[MPa]	[MPa]
149	1.000000	0.002620	7.3665e+06	-46089.1	955.819	-29770.7	0.000000	0.000000	6.002777	-0.017115	NaN	0.000000	0.001635	0.001738	28.1288	0.060149	0.000838	71.7976	-19.2548	-165.588	-0.046821	0.001380	-1.079519	-1.080759	-0.017115	71.7976	-1.079341	-2.646437E+14	6.467202E-17	NaN
149	1.000000	0.042602	7.3665e+06	-46089.1	955.818	-29770.7	0.000000	0.000000	6.042760	-0.005795	NaN	0.000000	0.001574	0.001748	28.1294	0.050631	0.002001	25.3003	42.521	-166.216	-0.051726	0.041241	-1.039537	-1.040898	-0.005795	25.3003	-1.039365	-7.681192E+13	7.544850E-17	NaN
149	1.000000	0.082600	7.3665e+06	-46089.1	955.817	-29770.7	0.000000	0.000000	6.082759	0.020978	NaN	0.000000	0.001681	0.001771	28.1286	0.052096	0.001994	26.1278	60.4219	-165.171	0.034183	0.081291	-0.999539	-1.000847	0.020978	26.1278	-1.000141	-2.278616E+13	-9.206315E-16	NaN
149	1.000000	0.122606	7.3665e+06	-46089.1	955.818	-29770.7	0.000000	0.000000	6.122764	-0.022356	NaN	0.000000	0.001599	0.001748	28.1307	0.083398	0.001969	42.351	-53.933	-167.605	-0.073002	0.121283	-0.959533	-0.960856	-0.022356	42.351	-0.959137	-6.386022E+12	3.500717E-15	NaN
149	1.000000	0.162631	7.3665e+06	-46089.1	955.818	-29770.7	0.000000	0.000000	6.162790	0.008829	NaN	0.000000	0.001577	0.001815	28.1303	0.067960	0.002110	32.2133	-47.8162	-165.021	0.076217	0.161341	-0.919508	-0.920798	0.008829	32.2133	-0.919713	-1.876439E+12	-4.704930E-15	NaN
149	1.000000	0.202653	7.3665e+06	-46089.1	955.818	-29770.7	0.000000	0.000000	6.202816	0.106921	NaN	0.000000	0.001592	0.001759	28.1305	0.093756	0.002031	46.1668	-73.8452	-167.836	0.023663	0.201361	-0.879486	-0.880778	0.106921	46.1668	-0.881223	-5.665656E+11	-1.887169E-13	NaN
149	1.000000	0.242669	7.3665e+06	-46089.1	955.819	-29770.7	0.000000	0.000000	6.242830	0.067823	NaN	0.000000	0.001582	0.001771	28.1289	0.049209	0.001864	26.4061	20.6944	-165.388	0.092709	0.241306	-0.839470	-0.840833	0.067823	26.4061	-0.841397	-1.637620E+11	-4.141552E-13	NaN
149	1.000000	0.282706	7.3665e+06	-46089.1	955.819	-29770.7	0.000000	0.000000	6.282863	-0.026302	NaN	0.000000	0.001605	0.001756	28.1292	0.094687	0.002013	47.0358	-86.4894	-164.411	-0.031802	0.281385	-0.799433	-0.800754	-0.026302	47.0358	-0.799014	-4.359865E+10	6.032645E-13	NaN
149	1.000000	0.322691	7.3665e+06	-46089.1	955.818	-29770.7	0.000000	0.000000	6.322848	-0.021830	NaN	0.000000	0.001575	0.001774	28.1277	0.074933	0.001948	38.4757	29.5548	-167.071	-0.085116	0.321407	-0.759448	-0.760732	-0.021830	38.4757	-0.759022	-1.247394E+10	1.750059E-12	NaN
149	1.000000	0.362693	7.3665e+06	-46089.1	955.818	-29770.7	0.000000	0.000000	6.362851	-0.015537	NaN	0.000000	0.001565	0.001767	28.1287	0.052364	0.001972	26.5539	122.689	-166.761	0.020559	0.361410	-0.719445	-0.720728	-0.015537	26.5539	-0.719007	-3.555703E+9	4.369691E-12	NaN
149	1.000000	0.402743	7.3665e+06	-46089.1	955.819	-29770.7	0.000000	0.000000	6.402902	0.001769	NaN	0.000000	0.001581	0.001751	28.129	0.059755	0.002002	29.8518	-164.008	-165.719	0.002911	0.401477	-0.679396	-0.680662	0.001769	29.8518	-0.679440	-1.024584E+9	-1.726823E-12	NaN
149	1.000000	0.442738	7.3665e+06	-46089.1	955.818	-29770.7	0.000000	0.000000	6.442896	-0.013674	NaN	0.000000	0.001556	0.001750	28.1304	0.047415	0.002075	22.8491	-86.5244	-164.78	0.062861	0.441435	-0.639401	-0.640704	-0.013674	22.8491	-0.638952	-2.856986E+8	4.786000E-11	NaN
149	1.000000	0.482790	7.3665e+06	-46089.1	955.818	-29770.7	0.000000	0.000000	6.482947	-0.042110	NaN	0.000000	0.001606	0.001771	28.1293	0.039563	0.002009	19.6943	-125.997	-166.604	-0.092299	0.481478	-0.599348	-0.600661	-0.042110	19.6943	-0.597745	-7.751727E+7	5.432337E-10	NaN
149	1.000000	0.522778	7.3665e+06	-46089.1	955.818	-29770.7	0.000000	0.000000	6.522940	0.076231	NaN	0.000000	0.001605	0.001801	28.1288	0.087633	0.002020	43.3729	95.593	-165.638	0.073176	0.521517	-0.559361	-0.560622	0.076231	43.3729	-0.560679	-2.386535E+7	-3.194219E-9	NaN
149	1.000000	0.562803	7.3665e+06	-46089.1	955.819	-29770.7	0.000000	0.000000	6.562963	0.030444	NaN	0.000000	0.001607	0.001739	28.1275	0.011049	0.001902	5.810034	-45.6081	-165.421	0.002618	0.561491	-0.519335	-0.520648	0.030444	5.810034	-0.523265	-7.22772e+06	-4.212143E-9	NaN
149	1.000000	0.602811	7.3665e+06	-46089.1	955.818	-29770.7	0.000000	0.000000	6.602966	-0.073582	NaN	0.000000	0.001609	0.001761	28.1282	0.041008	0.002005	20.4505	-114.925	-165.975	-0.044117	0.601510	-0.479328	-0.480629	-0.073582	20.4505	-0.476630	-1.61558e+06	4.554504E-8	NaN
149	1.000000	0.642846	7.3665e+06	-46089.1	955.819	-29770.7	0.000000	0.000000	6.643004	-0.003657	NaN	0.000000	0.001556	0.001766	28.1268	0.099903	0.002047	48.813	-46.2332	-164.981	0.020221	0.641545	-0.439293	-0.440594	-0.003657	48.813	-0.439237	-481500	7.594694E-9	NaN
149	1.000000	0.682856	7.3665e+06	-46089.1	955.817	-29770.7	0.000000	0.000000	6.683016	0.035634	NaN	0.000000	0.001651	0.001758	28.1295	0.044222	0.002020	21.8944	49.835	-164.395	0.026694	0.681528	-0.399283	-0.400611	0.035634	21.8944	-0.400503	-135885	-2.622378E-7	NaN
149	1.000000	0.722871	7.3665e+06	-46089.1	955.818	-29770.7	0.000000	0.000000	6.723029	-0.034152	NaN	0.000000	0.001570	0.001706	28.1281	0.020159	0.002109	9.558034	164.755	-165.755	-0.042365	0.721572	-0.359267	-0.360567	-0.034152	9.558034	-0.356588	-31804.1	1.073839E-6	NaN
149	1.000000	0.762873	7.3665e+06	-46089.1	955.819	-29770.7	0.000000	0.000000	6.763030	-0.039653	NaN	0.000000	0.001592	0.001712	28.1287	0.085629	0.001902	45.0243	-15.6272	-164.657	0.010658	0.761565	-0.319266	-0.320574	-0.039653	45.0243	-0.318606	-8873.73	4.468605E-6	NaN
149	1.000000	0.802905	7.3665e+06	-46089.1	955.818	-29770.7	0.000000	0.000000	6.803059	-0.108541	NaN	0.000000	0.001600	0.001677	28.1266	0.061962	0.001856	33.3863	-58.8103	-167.43	-0.089130	0.801611	-0.279234	-0.280528	-0.108541	33.3863	-0.276795	-2111.38	5.140770E-5	NaN
149	1.000000	0.842899	7.3665e+06	-46089.1	955.819	-29770.7	0.000000	0.000000	6.843054	-0.087500	NaN	0.000000	0.001564	0.001719	28.1272	0.053085	0.001984	26.7629	-166.318	-165.919	-0.024280	0.841603	-0.239240	-0.240536	-0.087500	26.7629	-0.236788	-512.03	0.000171	NaN
149	1.000000	0.882938	7.3665e+06	-46089.1	955.818	-29770.7	0.000000	0.000000	6.883095	-0.018196	NaN	0.000000	0.001595	0.001748	28.1267	0.062423	0.002150	29.0394	109.064	-163.129	-0.019695	0.881642	-0.199201	-0.200497	-0.018196	29.0394	-0.198731	-125.553	0.000145	NaN
149	1.000000	0.922947	7.3665e+06	-46089.1	955.819	-29770.7	0.000000	0.000000	6.923103	-0.042400	NaN	0.000000	0.001569	0.001777	28.1277	0.033456	0.002048	16.3327	36.8749	-164.98	-0.090681	0.921631	-0.159192	-0.160508	-0.042400	16.3327	-0.157245	-24.4831	0.001732	NaN
149	1.000000	0.962990	7.3665e+06	-46089.1	955.819	-29770.7	0.000000	0.000000	6.963151	0.040075	NaN	0.000000	0.001568	0.001750	28.1275	0.030522	0.002083	14.6528	-56.5157	-164.358	0.099474	0.961683	-0.119148	-0.120456	0.040075	14.6528	-0.121200	-5.107831	-0.007846	NaN
149	1.000000	1.003004	7.3665e+06	-46089.1	955.818	-29770.7	0.000000	0.000000	7.003161	-0.039407	NaN	0.000000	0.001579	0.001733	28.129	0.083180	0.002039	40.8017	-119.38	-160.666	-0.109205	1.001688	-0.079135	-0.080451	-0.039407	40.8017	-0.078411	-0.564586	0.069797	NaN
149	1.000000	1.043023	7.3665e+06	-46089.1	955.818	-29770.7	0.000000	0.000000	7.043182	0.007039	NaN	0.000000	0.001624	0.001752	28.1281	0.042108	0.002075	20.2977	-14.4055	-164.497	0.027137	1.041720	-0.039116	-0.040419	0.007039	20.2977	-0.039376	-0.043293	-0.162589	NaN
149	1.000000	1.083011	7.3665e+06	-46089.1	955.819	-29770.7	0.000000	0.000000	7.083188	0.455896	NaN	0.000000	0.001599	0.001752	28.1272	0.866668	0.001949	444.565	-1.509754	-164.964	0.063224	1.081736	0.000872	-0.000403	0.455896	444.565	0.000103	7.719059E-5	5906.11	46230.2
149	2.000000	1.098473	7.3665e+06	-46089.1	955.818	-29770.7	0.000000	0.000000	7.099590	23.3218	NaN	0.000000	0.001661	0.001733	28.1258	18.0662	0.001725	10475.8	4.403406	-174.263	22.6933	1.098222	0.016334	0.016083	23.3218	10475.8	0.014664	0.014840	1571.52	78567
149	2.000000	1.108473	7.3665e+06	-46089.1	955.819	-29770.7	0.000000	0.000000	7.110630	48.6257	NaN	0.000000	0.001660	0.001729	28.1267	28.1201	0.001756	16013	3.726675	-177.473	47.8094	1.108140	0.026334	0.026001	48.6257	16013	0.024056	0.029321	1658.37	85438.3
149	2.000000	1.118464	7.3665e+06	-46089.1	955.819	-29770.7	0.000000	0.000000	7.121860	78.7537	NaN	0.000000	0.001543	0.001753	28.1255	39.1834	0.001884	20802	4.931811	179.793	78.1122	1.118106	0.036325	0.035967	78.7537	20802	0.033485	0.048278	1631.26	86497.8
149	2.000000	1.128393	7.3665e+06	-46089.1	955.818	-29770.7	0.000000	0.000000	7.133494	120.227	NaN	0.000000	0.001567	0.001706	28.1277	49.0421	0.001870	26227.2	5.538548	176.002	117.334	1.128175	0.046254	0.046036	120.227	26227.2	0.042816	0.071510	1681.27	89607.3
149	2.000000	1.138369	7.3665e+06	-46089.1	955.82	-29770.7	0.000000	0.000000	7.145258	163.73	NaN	0.000000	0.001536	0.001734	28.127	58.2928	0.001942	30014.5	5.329911	176.113	160.176	1.138177	0.056230	0.056038	163.73	30014.5	0.052138	0.099137	1651.55	87093.4
149	2.000000	1.148336	7.3665e+06	-46089.1	955.817	-29770.7	0.000000	0.000000	7.157626	222.124	NaN	0.000000	0.001551	0.001722	28.1274	66.6695	0.001887	35326	1.311435	179.81	218.226	1.148067	0.066198	0.065928	222.124	35326	0.061482	0.131175	1693.34	89113.2
149	2.000000	1.158403	7.3665e+06	-46089.1	955.818	-29770.7	0.000000	0.000000	7.170615	293.214	NaN	0.000000	0.001568	0.001786	28.1252	77.6192	0.001844	42101.5	7.054568	172.438	290.564	1.158045	0.076264	0.075906	293.214	42101.5	0.071041	0.168348	1741.71	93749
149	2.000000	1.168326	7.3665e+06	-46089.1	955.818	-29770.7	0.000000	0.000000	7.183210	358.203	NaN	0.000000	0.001595	0.001743	28.1257	86.3689	0.001706	50618.6	4.999243	172.286	354.254	1.168051	0.086187	0.085912	358.203	50618.6	0.080880	0.211139	1696.53	100647
149	2.000000	1.178357	7.3665e+06	-46089.1	955.818	-29770.7	0.000000	0.000000	7.196473	436.834	NaN	0.000000	0.001645	0.001740	28.1246	95.2921	0.001715	55579.7	5.357692	171.442	435.899	1.177998	0.096218	0.095859	436.834	55579.7	0.090323	0.256448	1703.4	100274
149	2.000000	1.188330	7.3665e+06	-46089.1	955.817	-29770.7	0.000000	0.000000	7.209086	501.032	NaN	0.000000	0.001578	0.001727	28.1276	104.187	0.001825	57091.9	2.731380	173.642	496.762	1.187967	0.106192	0.105828	501.032	57091.9	0.099610	0.304992	1642.77	94450.2
149	2.000000	1.188743	7.3665e+06	-46089.1	955.818	-29770.7	0.000000	0.000000	7.209892	510.596	NaN	0.000000	0.001585	0.001697	28.1117	104.185	0.001784	58385.8	3.961515	-7.503347	501.839	1.188479	0.106605	0.106340	510.596	58385.8	0.100046	0.307368	1661.18	96216.9

File: 2025-07-22_16-23-58_1_150.txt
2025-07-22, 16:23:58, 1
Index	Phase	Displacement	Time	Pos X	Pos Y	Pos Z	Rot A	Rot B	Piezo Z	Force A	Force B	Gripper	Voltage A	Voltage B	Temperature	Amplitude force	Amplitude pos	Stiffness	Phase shift	Phase excitation	Force A raw	Displacement raw	HMax	HMax raw	Real Force	Real Stiffness	Contact Depth	Area	Hardness	Reduced Mod.
[#]	[#]	[um]	[s]	[um]	[um]	[um]	[m°]	[m°]	[um]	[uN]	[uN]	[V]	[V]	[V]	[°C]	[uN]	[um]	[N/m]	[°]	[°]	[uN]	[um]	[um]	[um]	[uN]	[N/m]	[um]	[um^2]	[MPa]	[MPa]
150	1.000000	0.002911	7.3665e+06	-46139.1	955.818	-29770.6	0.000000	0.000000	6.002823	-0.040229	NaN	0.000000	0.001605	0.001716	28.0808	0.102724	0.001020	100.73	-124.58	-164.272	-0.027098	0.001634	-1.005848	-1.007126	-0.040229	100.73	-1.005549	-2.694437E+13	1.493032E-15	NaN
150	1.000000	0.040806	7.3665e+06	-46139.1	955.818	-29770.6	0.000000	0.000000	6.040720	0.038822	NaN	0.000000	0.001570	0.001741	28.1163	0.030314	0.001970	15.3905	-142.922	12.9497	-0.020331	0.039496	-0.967954	-0.969263	0.038822	15.3905	-0.969846	-8.903981E+12	-4.360022E-15	NaN
150	1.000000	0.078863	7.36651e+06	-46139.1	955.817	-29770.7	0.000000	0.000000	6.078778	0.034787	NaN	0.000000	0.001599	0.001721	28.1237	0.057705	0.001934	29.8371	-68.7943	-165.983	0.071872	0.077537	-0.929896	-0.931223	0.034787	29.8371	-0.930771	-2.646066E+12	-1.314654E-14	NaN
150	1.000000	0.116870	7.36651e+06	-46139.1	955.818	-29770.7	0.000000	0.000000	6.116782	-0.017011	NaN	0.000000	0.001579	0.001752	28.0864	0.052370	0.002010	26.0498	25.1273	12.9737	-0.054663	0.115522	-0.891890	-0.893238	-0.017011	26.0498	-0.891400	-7.777478E+11	2.187263E-14	NaN
150	1.000000	0.154873	7.36651e+06	-46139.1	955.819	-29770.7	0.000000	0.000000	6.154787	0.002173	NaN	0.000000	0.001596	0.001717	28.0818	0.055791	0.001912	29.1767	-33.0874	-164.553	-0.049372	0.153549	-0.853886	-0.855211	0.002173	29.1767	-0.853942	-2.421652E+11	-8.973672E-15	NaN
150	1.000000	0.192884	7.36651e+06	-46139.1	955.817	-29770.7	0.000000	0.000000	6.192797	-0.003886	NaN	0.000000	0.001552	0.001736	28.1182	0.124364	0.002084	59.676	173.628	13.7298	0.042876	0.191585	-0.815876	-0.817174	-0.003886	59.676	-0.815827	-7.372512E+10	5.271141E-14	NaN
150	1.000000	0.230919	7.36651e+06	-46139.1	955.818	-29770.7	0.000000	0.000000	6.230836	0.085387	NaN	0.000000	0.001582	0.001752	28.1227	0.022396	0.002077	10.7814	30.6924	-168.855	0.052479	0.229590	-0.777840	-0.779169	0.085387	10.7814	-0.783780	-2.707670E+10	-3.153518E-12	NaN
150	1.000000	0.268934	7.36651e+06	-46139.1	955.819	-29770.7	0.000000	0.000000	6.268846	-0.036805	NaN	0.000000	0.001578	0.001714	28.0841	0.088351	0.001907	46.3345	-99.405	12.6004	-0.028973	0.267592	-0.739825	-0.741168	-0.036805	46.3345	-0.739230	-6.707559E+9	5.487076E-12	NaN
150	1.000000	0.306949	7.36651e+06	-46139.1	955.818	-29770.7	0.000000	0.000000	6.306864	0.038482	NaN	0.000000	0.001609	0.001725	28.0808	0.057192	0.002032	28.1425	-31.4566	-167.055	0.046671	0.305632	-0.701810	-0.703127	0.038482	28.1425	-0.702836	-2.139209E+9	-1.798903E-11	NaN
150	1.000000	0.344956	7.36651e+06	-46139.1	955.818	-29770.7	0.000000	0.000000	6.344871	0.025877	NaN	0.000000	0.001585	0.001711	28.116	0.161574	0.001957	82.5425	18.563	12.9386	0.032962	0.343602	-0.663803	-0.665157	0.025877	82.5425	-0.664038	-6.306284E+8	-4.103303E-11	NaN
150	1.000000	0.382979	7.36651e+06	-46139.1	955.818	-29770.7	0.000000	0.000000	6.382895	0.068339	NaN	0.000000	0.001635	0.001749	28.1239	0.056841	0.002136	26.6158	-163.447	-164.608	0.021004	0.381700	-0.625781	-0.627060	0.068339	26.6158	-0.627707	-2.002288E+8	-3.413052E-10	NaN
150	1.000000	0.420974	7.36651e+06	-46139.1	955.818	-29770.7	0.000000	0.000000	6.420889	0.038372	NaN	0.000000	0.001553	0.001729	28.0846	0.128099	0.001960	65.3456	154.778	14.9703	-0.048022	0.419621	-0.587786	-0.589139	0.038372	65.3456	-0.588226	-5.730675E+7	-6.695854E-10	NaN
150	1.000000	0.459044	7.36651e+06	-46139.1	955.818	-29770.7	0.000000	0.000000	6.458959	0.040562	NaN	0.000000	0.001557	0.001746	28.0847	0.056154	0.001996	28.1329	159.955	-165.465	0.031592	0.457728	-0.549715	-0.551032	0.040562	28.1329	-0.550796	-1.741748E+7	-2.328826E-9	NaN
150	1.000000	0.497028	7.36651e+06	-46139.1	955.818	-29770.7	0.000000	0.000000	6.496946	0.104357	NaN	0.000000	0.001626	0.001768	28.1169	0.082325	0.001957	42.0694	-156.055	14.8238	0.072011	0.495682	-0.511731	-0.513077	0.104357	42.0694	-0.513592	-5.30185e+06	-1.968311E-8	NaN
150	1.000000	0.535040	7.36651e+06	-46139.1	955.818	-29770.7	0.000000	0.000000	6.534952	-0.018409	NaN	0.000000	0.001622	0.001774	28.1212	0.095385	0.002047	46.5874	95.1759	-167.697	-0.054764	0.533736	-0.473720	-0.475024	-0.018409	46.5874	-0.473423	-1.45682e+06	1.263613E-8	NaN
150	1.000000	0.573059	7.36651e+06	-46139.1	955.819	-29770.7	0.000000	0.000000	6.572973	0.035152	NaN	0.000000	0.001561	0.001731	28.083	0.051487	0.001886	27.2965	106.702	13.6734	-0.025055	0.571685	-0.435701	-0.437074	0.035152	27.2965	-0.436667	-442893	-7.936958E-8	NaN
150	1.000000	0.611048	7.36651e+06	-46139.1	955.82	-29770.7	0.000000	0.000000	6.610965	0.076538	NaN	0.000000	0.001615	0.001749	28.0817	0.062092	0.002000	31.0383	162.467	-165.698	0.061736	0.609749	-0.397711	-0.399011	0.076538	31.0383	-0.399561	-131743	-5.809643E-7	NaN
150	1.000000	0.649076	7.36651e+06	-46139.1	955.818	-29770.7	0.000000	0.000000	6.648987	-0.063300	NaN	0.000000	0.001565	0.001711	28.1185	0.067366	0.001932	34.8601	-41.9138	14.2285	0.000360	0.647746	-0.359683	-0.361014	-0.063300	34.8601	-0.358322	-33695.7	1.878566E-6	NaN
150	1.000000	0.687111	7.36651e+06	-46139.1	955.818	-29770.7	0.000000	0.000000	6.687028	0.085432	NaN	0.000000	0.001565	0.001692	28.1223	0.103486	0.001941	53.3075	36.1394	-164.164	0.141098	0.685774	-0.321649	-0.322985	0.085432	53.3075	-0.322850	-10246.2	-8.337924E-6	NaN
150	1.000000	0.725101	7.36651e+06	-46139.1	955.819	-29770.7	0.000000	0.000000	6.725013	-0.013199	NaN	0.000000	0.001597	0.001749	28.0846	0.113317	0.002056	55.1233	133.406	13.7162	-0.067858	0.723750	-0.283659	-0.285010	-0.013199	55.1233	-0.283479	-2663.13	4.956017E-6	NaN
150	1.000000	0.763115	7.36651e+06	-46139.1	955.819	-29770.7	0.000000	0.000000	6.763027	-0.030977	NaN	0.000000	0.001620	0.001728	28.0836	0.124493	0.001834	67.8771	60.7267	-166.189	0.031440	0.761818	-0.245644	-0.246942	-0.030977	67.8771	-0.245302	-695.255	4.455480E-5	NaN
150	1.000000	0.801138	7.36651e+06	-46139.1	955.818	-29770.7	0.000000	0.000000	6.801049	-0.041598	NaN	0.000000	0.001580	0.001732	28.1177	0.041963	0.001849	22.693	-76.8019	14.9299	0.015084	0.799745	-0.207622	-0.209015	-0.041598	22.693	-0.206247	-166.677	0.000250	NaN
150	1.000000	0.839155	7.36651e+06	-46139.1	955.818	-29770.7	0.000000	0.000000	6.839072	0.079464	NaN	0.000000	0.001580	0.001708	28.1206	0.123960	0.002046	60.5791	-173.169	-171.686	0.048866	0.837864	-0.169604	-0.170895	0.079464	60.5791	-0.170588	-42.0553	-0.001890	NaN
150	1.000000	0.877214	7.36651e+06	-46139.1	955.818	-29770.7	0.000000	0.000000	6.877128	0.018126	NaN	0.000000	0.001633	0.001753	28.0823	0.101797	0.001991	51.1309	53.9517	12.0002	0.036897	0.875794	-0.131546	-0.132965	0.018126	51.1309	-0.131812	-8.262134	-0.002194	NaN
150	1.000000	0.915191	7.36651e+06	-46139.1	955.818	-29770.7	0.000000	0.000000	6.915105	0.011904	NaN	0.000000	0.001664	0.001750	28.0832	0.017132	0.001927	8.892156	-6.794494	-163.712	0.009748	0.913943	-0.093569	-0.094816	0.011904	8.892156	-0.094573	-1.379314	-0.008630	NaN
150	1.000000	0.953191	7.36651e+06	-46139.1	955.819	-29770.7	0.000000	0.000000	6.953104	-0.014683	NaN	0.000000	0.001663	0.001759	28.12	0.090085	0.001948	46.2386	64.3452	13.3678	-0.032070	0.951891	-0.055568	-0.056869	-0.014683	46.2386	-0.055330	-0.131700	0.111485	NaN
150	1.000000	0.991227	7.36651e+06	-46139.1	955.818	-29770.7	0.000000	0.000000	6.991141	0.026220	NaN	0.000000	0.001653	0.001715	28.1208	0.030953	0.002024	15.2969	84.0459	-166.244	-0.024121	0.989914	-0.017533	-0.018846	0.026220	15.2969	-0.018818	-0.011718	-2.237561	NaN
150	2.000000	1.021197	7.36651e+06	-46139.1	955.819	-29770.7	0.000000	0.000000	7.021719	14.8089	NaN	0.000000	0.001551	0.001697	28.0829	12.7521	0.001650	7728.4	2.834257	7.925399	13.7726	1.020852	0.012438	0.012092	14.8089	7728.4	0.011001	0.010315	1435.7	69523.6
150	2.000000	1.030665	7.36651e+06	-46139.1	955.818	-29770.7	0.000000	0.000000	7.032049	35.7699	NaN	0.000000	0.001563	0.001685	28.0838	22.7763	0.001710	13317.8	1.374608	-173.404	34.605	1.030328	0.021906	0.021569	35.7699	13317.8	0.019891	0.022372	1598.88	81349.2
150	2.000000	1.040086	7.36651e+06	-46139.1	955.819	-29770.7	0.000000	0.000000	7.042607	63.4381	NaN	0.000000	0.001584	0.001710	28.1207	32.0002	0.001664	19230.1	-0.023310	4.271115	60.2625	1.039740	0.031326	0.030980	63.4381	19230.1	0.028852	0.038398	1652.12	89660.2
150	2.000000	1.049544	7.36651e+06	-46139.1	955.82	-29770.7	0.000000	0.000000	7.053654	102.084	NaN	0.000000	0.001561	0.001679	28.1193	40.8326	0.001642	24871.3	1.792375	-179.458	99.6055	1.049260	0.040785	0.040501	102.084	24871.3	0.037706	0.058235	1752.97	94162.8
150	2.000000	1.059130	7.36651e+06	-46139.1	955.819	-29770.7	0.000000	0.000000	7.064922	143.02	NaN	0.000000	0.001659	0.001717	28.0829	53.0879	0.001752	30302	9.166328	-9.049366	144.114	1.058704	0.050370	0.049945	143.02	30302	0.046830	0.082868	1725.86	96172.2
150	2.000000	1.068544	7.36651e+06	-46139.1	955.82	-29770.7	0.000000	0.000000	7.076464	194.759	NaN	0.000000	0.001672	0.001712	28.0841	61.1428	0.001793	34105.9	5.063915	173.393	192.199	1.068373	0.059784	0.059614	194.759	34105.9	0.055502	0.110174	1767.74	93878
150	2.000000	1.078077	7.36651e+06	-46139.1	955.819	-29770.7	0.000000	0.000000	7.088803	263.026	NaN	0.000000	0.001646	0.001703	28.1223	71.4449	0.001828	39086.5	5.636725	-7.049787	260.588	1.077681	0.069317	0.068921	263.026	39086.5	0.064270	0.141565	1857.99	94912.2
150	2.000000	1.087658	7.36651e+06	-46139.1	955.821	-29770.7	0.000000	0.000000	7.100943	325.292	NaN	0.000000	0.001550	0.001713	28.1185	82.303	0.001739	47337.4	4.260260	172.167	331.097	1.087287	0.078898	0.078528	325.292	47337.4	0.073744	0.179653	1810.67	102038
150	2.000000	1.097113	7.36651e+06	-46139.1	955.82	-29770.7	0.000000	0.000000	7.113616	403.547	NaN	0.000000	0.001616	0.001685	28.0833	90.7331	0.001791	50652.8	3.880593	-7.297199	402.905	1.096628	0.088353	0.087868	403.547	50652.8	0.082378	0.218054	1850.68	99104.9
150	2.000000	1.106557	7.36651e+06	-46139.1	955.82	-29770.7	0.000000	0.000000	7.126291	482.147	NaN	0.000000	0.001614	0.001669	28.0838	99.9903	0.001754	57002.4	5.605534	170.021	483.82	1.106157	0.097798	0.097398	482.147	57002.4	0.091454	0.262149	1839.21	101717
150	2.000000	1.115999	7.36651e+06	-46139.1	955.82	-29770.7	0.000000	0.000000	7.138851	558.005	NaN	0.000000	0.001579	0.001649	28.1214	109.269	0.001781	61343.5	4.590946	-9.963859	553.56	1.115692	0.107239	0.106932	558.005	61343.5	0.100417	0.309399	1803.52	100759
150	2.000000	1.117036	7.36651e+06	-46139.1	955.821	-29770.7	0.000000	0.000000	7.140446	571.558	NaN	0.000000	0.001547	0.001624	28.0811	110.331	0.001821	60590.8	3.179861	-7.446164	569.518	1.116646	0.108277	0.107886	571.558	60590.8	0.101202	0.313711	1821.93	98835.9