Folder: unikorn_login/remote_trans/data/nanoindenter/0828-1/data/Data_2025-08-06,11h17m57s (part 139)

File: 2025-07-22_16-23-58_1_295.txt
2025-07-22, 16:23:58, 1
Index	Phase	Displacement	Time	Pos X	Pos Y	Pos Z	Rot A	Rot B	Piezo Z	Force A	Force B	Gripper	Voltage A	Voltage B	Temperature	Amplitude force	Amplitude pos	Stiffness	Phase shift	Phase excitation	Force A raw	Displacement raw	HMax	HMax raw	Real Force	Real Stiffness	Contact Depth	Area	Hardness	Reduced Mod.
[#]	[#]	[um]	[s]	[um]	[um]	[um]	[m°]	[m°]	[um]	[uN]	[uN]	[V]	[V]	[V]	[°C]	[uN]	[um]	[N/m]	[°]	[°]	[uN]	[um]	[um]	[um]	[uN]	[N/m]	[um]	[um^2]	[MPa]	[MPa]
295	1.000000	0.002565	7.36795e+06	-53389.1	955.818	-29746.7	0.000000	0.000000	6.002799	-0.043329	NaN	0.000000	0.001675	0.001618	28.08	0.044896	0.000930	48.2736	69.0487	-164.991	0.001871	0.001317	-1.122253	-1.123501	-0.043329	48.2736	-1.121580	-9.764852E+14	4.437192E-17	NaN
295	1.000000	0.044505	7.36795e+06	-53389.1	955.818	-29746.7	0.000000	0.000000	6.044741	-0.021384	NaN	0.000000	0.001643	0.001628	28.0797	0.158295	0.001905	83.0905	-102.355	18.5783	0.018330	0.043172	-1.080312	-1.081646	-0.021384	83.0905	-1.080119	-2.710924E+14	7.888138E-17	NaN
295	1.000000	0.086539	7.36795e+06	-53389.1	955.819	-29746.7	0.000000	0.000000	6.086775	-0.012709	NaN	0.000000	0.001689	0.001697	28.08	0.047228	0.001939	24.3523	89.8425	-164.352	0.011267	0.085153	-1.038279	-1.039665	-0.012709	24.3523	-1.037887	-7.337702E+13	1.732043E-16	NaN
295	1.000000	0.128572	7.36795e+06	-53389.1	955.818	-29746.7	0.000000	0.000000	6.128811	0.054577	NaN	0.000000	0.001660	0.001669	28.0813	0.066528	0.002058	32.3313	-118.212	14.2497	0.068683	0.127182	-0.996246	-0.997635	0.054577	32.3313	-0.997512	-2.100221E+13	-2.598653E-15	NaN
295	1.000000	0.170562	7.36795e+06	-53389.1	955.818	-29746.7	0.000000	0.000000	6.170798	-0.027182	NaN	0.000000	0.001643	0.001666	28.0812	0.031174	0.002145	14.5344	143.103	-165.315	-0.018213	0.169227	-0.954255	-0.955591	-0.027182	14.5344	-0.952853	-5.254116E+12	5.173406E-15	NaN
295	1.000000	0.212580	7.36795e+06	-53389.1	955.818	-29746.7	0.000000	0.000000	6.212815	-0.034960	NaN	0.000000	0.001651	0.001660	28.081	0.047969	0.002042	23.4968	152.411	14.3622	-0.027634	0.211247	-0.912238	-0.913570	-0.034960	23.4968	-0.911122	-1.436539E+12	2.433631E-14	NaN
295	1.000000	0.254560	7.36795e+06	-53389.1	955.819	-29746.7	0.000000	0.000000	6.254797	0.032228	NaN	0.000000	0.001728	0.001677	28.0798	0.071047	0.002010	35.3382	-79.877	-160.571	-0.019510	0.253292	-0.870258	-0.871525	0.032228	35.3382	-0.870942	-4.113270E+11	-7.835119E-14	NaN
295	1.000000	0.296618	7.36795e+06	-53389.1	955.819	-29746.6	0.000000	0.000000	6.296856	0.027147	NaN	0.000000	0.001696	0.001652	28.0799	0.109488	0.002038	53.7299	143.7	15.3418	0.029301	0.295271	-0.828199	-0.829546	0.027147	53.7299	-0.828578	-1.097772E+11	-2.472894E-13	NaN
295	1.000000	0.338612	7.36795e+06	-53389.1	955.818	-29746.6	0.000000	0.000000	6.338847	-0.039601	NaN	0.000000	0.001739	0.001691	28.0798	0.034756	0.002057	16.8961	-129.006	-165.991	-0.009597	0.337317	-0.786205	-0.787501	-0.039601	16.8961	-0.784448	-2.764795E+10	1.432324E-12	NaN
295	1.000000	0.380661	7.36795e+06	-53389.1	955.818	-29746.6	0.000000	0.000000	6.380896	-0.034334	NaN	0.000000	0.001691	0.001666	28.0805	0.092181	0.002016	45.7153	52.8907	15.8075	-0.012262	0.379300	-0.744157	-0.745517	-0.034334	45.7153	-0.743593	-7.691233E+9	4.464029E-12	NaN
295	1.000000	0.422666	7.36795e+06	-53389.1	955.819	-29746.6	0.000000	0.000000	6.422900	-0.057950	NaN	0.000000	0.001753	0.001682	28.0806	0.037799	0.001964	19.2488	-110.155	-166.352	-0.092860	0.421391	-0.702152	-0.703426	-0.057950	19.2488	-0.699894	-1.950216E+9	2.971461E-11	NaN
295	1.000000	0.464695	7.36795e+06	-53389.1	955.818	-29746.6	0.000000	0.000000	6.464932	0.003135	NaN	0.000000	0.001736	0.001655	28.0806	0.086273	0.002028	42.5453	-175.35	14.6917	0.003354	0.463319	-0.660123	-0.661498	0.003135	42.5453	-0.660178	-5.583467E+8	-5.615127E-12	NaN
295	1.000000	0.506724	7.36795e+06	-53389.1	955.817	-29746.6	0.000000	0.000000	6.506963	0.044343	NaN	0.000000	0.001770	0.001688	28.0809	0.085569	0.001930	44.3268	107.658	-168.659	-0.008042	0.505419	-0.618093	-0.619398	0.044343	44.3268	-0.618844	-1.512648E+8	-2.931490E-10	NaN
295	1.000000	0.548729	7.36795e+06	-53389.1	955.819	-29746.6	0.000000	0.000000	6.548965	-0.029623	NaN	0.000000	0.001755	0.001687	28.0794	0.061341	0.001966	31.1943	-165.84	17.2475	0.044792	0.547389	-0.576088	-0.577428	-0.029623	31.1943	-0.575376	-3.809711E+7	7.775756E-10	NaN
295	1.000000	0.590770	7.36795e+06	-53389.1	955.819	-29746.6	0.000000	0.000000	6.591007	0.001692	NaN	0.000000	0.001725	0.001665	28.0794	0.042677	0.001994	21.4062	13.2752	-164.969	-0.007149	0.589441	-0.534047	-0.535377	0.001692	21.4062	-0.534107	-1.022328E+7	-1.655125E-10	NaN
295	1.000000	0.632727	7.36795e+06	-53389.1	955.819	-29746.6	0.000000	0.000000	6.632962	-0.037350	NaN	0.000000	0.001689	0.001665	28.0795	0.028977	0.001966	14.7357	115.216	14.3477	0.066579	0.631366	-0.492091	-0.493451	-0.037350	14.7357	-0.490190	-2.50059e+06	1.493660E-8	NaN
295	1.000000	0.674768	7.36795e+06	-53389.1	955.817	-29746.6	0.000000	0.000000	6.675006	0.038248	NaN	0.000000	0.001687	0.001693	28.0809	0.032172	0.002072	15.5307	-100.033	-164.645	-0.008914	0.673442	-0.450050	-0.451375	0.038248	15.5307	-0.451897	-726187	-5.266999E-8	NaN
295	1.000000	0.716799	7.36795e+06	-53389.1	955.818	-29746.6	0.000000	0.000000	6.717037	0.047856	NaN	0.000000	0.001660	0.001652	28.0807	0.064675	0.002016	32.0771	-94.7308	16.0651	-0.025926	0.715431	-0.408019	-0.409387	0.047856	32.0771	-0.409138	-180360	-2.653351E-7	NaN
295	1.000000	0.758826	7.36795e+06	-53389.1	955.818	-29746.6	0.000000	0.000000	6.759065	0.046199	NaN	0.000000	0.001638	0.001648	28.0806	0.046100	0.001992	23.1415	179.385	-163.099	0.007975	0.757501	-0.365991	-0.367317	0.046199	23.1415	-0.367488	-45702.4	-1.010863E-6	NaN
295	1.000000	0.800868	7.36795e+06	-53389.1	955.819	-29746.6	0.000000	0.000000	6.801104	-0.000920	NaN	0.000000	0.001676	0.001691	28.0792	0.067086	0.002066	32.4732	-97.0773	14.7059	0.047200	0.799481	-0.323950	-0.325336	-0.000920	32.4732	-0.323929	-10626.9	8.658386E-8	NaN
295	1.000000	0.842841	7.36795e+06	-53389.1	955.818	-29746.6	0.000000	0.000000	6.843075	-0.060160	NaN	0.000000	0.001718	0.001633	28.0793	0.045132	0.001848	24.4241	63.62	-164.326	-0.085596	0.841562	-0.281976	-0.283256	-0.060160	24.4241	-0.280129	-2370.91	2.537424E-5	NaN
295	1.000000	0.884906	7.36795e+06	-53389.1	955.818	-29746.6	0.000000	0.000000	6.885144	0.021404	NaN	0.000000	0.001783	0.001653	28.0793	0.102392	0.002044	50.0852	80.5572	14.662	0.055753	0.883499	-0.239911	-0.241318	0.021404	50.0852	-0.240232	-579.656	-3.692617E-5	NaN
295	1.000000	0.926865	7.36795e+06	-53389.1	955.818	-29746.6	0.000000	0.000000	6.927101	-0.028458	NaN	0.000000	0.001707	0.001664	28.0804	0.134360	0.002071	64.8893	2.942260	-168.222	-0.136659	0.925588	-0.197952	-0.199229	-0.028458	64.8893	-0.197623	-120.384	0.000236	NaN
295	1.000000	0.968885	7.36795e+06	-53389.1	955.818	-29746.6	0.000000	0.000000	6.969122	0.004606	NaN	0.000000	0.001711	0.001589	28.0808	0.019226	0.002001	9.606636	-65.0581	13.1284	-0.016065	0.967477	-0.155933	-0.157340	0.004606	9.606636	-0.156292	-23.5394	-0.000196	NaN
295	1.000000	1.010930	7.36795e+06	-53389.1	955.818	-29746.6	0.000000	0.000000	7.011162	-0.124440	NaN	0.000000	0.001709	0.001608	28.0806	0.023172	0.001970	11.7635	-73.1139	-167.813	-0.004210	1.009617	-0.113887	-0.115200	-0.124440	11.7635	-0.105953	-2.464447	0.050494	NaN
295	1.000000	1.052930	7.36795e+06	-53389.1	955.818	-29746.6	0.000000	0.000000	7.053166	-0.019250	NaN	0.000000	0.001714	0.001627	28.0805	0.027067	0.001998	13.5499	-108.553	16.1926	-0.052808	1.051514	-0.071888	-0.073304	-0.019250	13.5499	-0.070822	-0.358800	0.053651	NaN
295	1.000000	1.094940	7.36795e+06	-53389.1	955.819	-29746.6	0.000000	0.000000	7.095177	0.015714	NaN	0.000000	0.001704	0.001609	28.0791	0.107439	0.002054	52.2978	-109.304	-163.617	-0.003021	1.093647	-0.029878	-0.031170	0.015714	52.2978	-0.030103	-0.023165	-0.678340	NaN
295	1.000000	1.136885	7.36795e+06	-53389.1	955.818	-29746.6	0.000000	0.000000	7.137466	8.372630	NaN	0.000000	0.001678	0.001639	28.0795	8.141482	0.001654	4923.35	8.702554	9.274561	5.891473	1.135656	0.012068	0.010838	8.372630	4923.35	0.010792	0.010076	830.985	44812.6
295	2.000000	1.148400	7.36795e+06	-53389.1	955.817	-29746.6	0.000000	0.000000	7.149693	25.7022	NaN	0.000000	0.001668	0.001691	28.0797	21.0949	0.001813	11637.5	7.043767	-176.185	26.4346	1.148036	0.023582	0.023219	25.7022	11637.5	0.021926	0.025659	1001.68	66376.4
295	2.000000	1.158865	7.36795e+06	-53389.1	955.818	-29746.6	0.000000	0.000000	7.161010	46.4007	NaN	0.000000	0.001722	0.001635	28.0805	30.9904	0.001788	17331.6	7.864386	-2.716567	44.9241	1.158572	0.034048	0.033755	46.4007	17331.6	0.032040	0.045077	1029.36	74581.8
295	2.000000	1.169356	7.36795e+06	-53389.1	955.819	-29746.6	0.000000	0.000000	7.173071	84.567	NaN	0.000000	0.001773	0.001641	28.0806	40.2302	0.001723	23350.6	2.201192	-178.749	85.4924	1.168978	0.044538	0.044161	84.567	23350.6	0.041822	0.068823	1228.77	81321.6
295	2.000000	1.179965	7.36795e+06	-53389.1	955.819	-29746.6	0.000000	0.000000	7.185141	120.093	NaN	0.000000	0.001683	0.001612	28.0806	51.9035	0.001721	30167.6	9.201030	-6.319469	127.984	1.179437	0.055147	0.054619	120.093	30167.6	0.052161	0.099211	1210.49	87505.2
295	2.000000	1.190345	7.36795e+06	-53389.1	955.818	-29746.6	0.000000	0.000000	7.197837	176.407	NaN	0.000000	0.001586	0.001648	28.0795	61.7823	0.001753	35244	4.109573	176.023	178.007	1.189928	0.065528	0.065110	176.407	35244	0.061774	0.132245	1333.94	88546.1
295	2.000000	1.200771	7.36795e+06	-53389.1	955.817	-29746.6	0.000000	0.000000	7.210678	235.11	NaN	0.000000	0.001647	0.001635	28.0795	74.2488	0.001847	40206.4	5.177041	-6.191801	232.14	1.200449	0.075954	0.075632	235.11	40206.4	0.071568	0.170524	1378.75	88956
295	2.000000	1.211228	7.36795e+06	-53389.1	955.819	-29746.6	0.000000	0.000000	7.224000	304.772	NaN	0.000000	0.001743	0.001640	28.0795	83.6578	0.001846	45329	6.645020	171.324	300.727	1.210885	0.086410	0.086068	304.772	45329	0.081368	0.213380	1428.31	89654.7
295	2.000000	1.221748	7.36795e+06	-53389.1	955.819	-29746.6	0.000000	0.000000	7.237139	368.458	NaN	0.000000	0.001727	0.001706	28.0807	92.8809	0.001737	53459.3	5.211429	-8.608482	364.063	1.221443	0.096930	0.096625	368.458	53459.3	0.091761	0.263707	1397.23	95112.1
295	2.000000	1.232210	7.36795e+06	-53389.1	955.818	-29746.6	0.000000	0.000000	7.250992	450.886	NaN	0.000000	0.001686	0.001701	28.0806	103.145	0.001812	56917.7	6.758617	170.048	447.969	1.231829	0.107392	0.107012	450.886	56917.7	0.101451	0.315085	1431	92641.7
295	2.000000	1.236667	7.36795e+06	-53389.1	955.819	-29746.6	0.000000	0.000000	7.256875	485.545	NaN	0.000000	0.001667	0.001725	28.081	105.289	0.001744	60358	5.111514	-8.505202	475.248	1.236239	0.111850	0.111422	485.545	60358	0.105816	0.339625	1429.65	94625.5

File: 2025-07-22_16-23-58_1_296.txt
2025-07-22, 16:23:58, 1
Index	Phase	Displacement	Time	Pos X	Pos Y	Pos Z	Rot A	Rot B	Piezo Z	Force A	Force B	Gripper	Voltage A	Voltage B	Temperature	Amplitude force	Amplitude pos	Stiffness	Phase shift	Phase excitation	Force A raw	Displacement raw	HMax	HMax raw	Real Force	Real Stiffness	Contact Depth	Area	Hardness	Reduced Mod.
[#]	[#]	[um]	[s]	[um]	[um]	[um]	[m°]	[m°]	[um]	[uN]	[uN]	[V]	[V]	[V]	[°C]	[uN]	[um]	[N/m]	[°]	[°]	[uN]	[um]	[um]	[um]	[uN]	[N/m]	[um]	[um^2]	[MPa]	[MPa]
296	1.000000	0.002423	7.36795e+06	-53439.1	955.819	-29746.6	0.000000	0.000000	6.002804	-0.024111	NaN	0.000000	0.001672	0.001747	28.0788	0.043952	0.000922	47.6514	72.7541	-166.41	-0.111028	0.001177	-1.026049	-1.027295	-0.024111	47.6514	-1.025669	-5.026001E+13	4.797346E-16	NaN
296	1.000000	0.042361	7.36796e+06	-53439.1	955.819	-29746.6	0.000000	0.000000	6.042742	-0.028804	NaN	0.000000	0.001632	0.001723	28.0788	0.079360	0.001893	41.93	-31.9021	-164.364	-0.043068	0.041070	-0.986111	-0.987402	-0.028804	41.93	-0.985595	-1.451397E+13	1.984553E-15	NaN
296	1.000000	0.082393	7.36796e+06	-53439.1	955.818	-29746.6	0.000000	0.000000	6.082772	-0.055222	NaN	0.000000	0.001629	0.001709	28.0802	0.083611	0.002018	41.4323	-72.1834	-164.394	-0.009378	0.081129	-0.946079	-0.947343	-0.055222	41.4323	-0.945080	-4.127257E+12	1.337992E-14	NaN
296	1.000000	0.122388	7.36796e+06	-53439.1	955.819	-29746.6	0.000000	0.000000	6.122765	-0.101028	NaN	0.000000	0.001674	0.001678	28.0802	0.146477	0.002051	71.4186	-68.8982	-165.282	-0.015890	0.121093	-0.906084	-0.907379	-0.101028	71.4186	-0.905023	-1.188310E+12	8.501794E-14	NaN
296	1.000000	0.162403	7.36796e+06	-53439.1	955.818	-29746.6	0.000000	0.000000	6.162782	-0.067592	NaN	0.000000	0.001692	0.001744	28.08	0.063995	0.002019	31.7016	-21.4354	-161.977	0.001077	0.161057	-0.866069	-0.867414	-0.067592	31.7016	-0.864470	-3.362112E+11	2.010390E-13	NaN
296	1.000000	0.202409	7.36796e+06	-53439.1	955.819	-29746.6	0.000000	0.000000	6.202791	0.006124	NaN	0.000000	0.001659	0.001762	28.0787	0.085129	0.001997	42.6336	124.863	-167.254	-0.036038	0.201134	-0.826063	-0.827338	0.006124	42.6336	-0.826170	-1.018290E+11	-6.014201E-14	NaN
296	1.000000	0.242434	7.36796e+06	-53439.1	955.819	-29746.6	0.000000	0.000000	6.242813	-0.062431	NaN	0.000000	0.001661	0.001709	28.0784	0.140419	0.002079	67.5319	-172.018	-165.406	-0.121749	0.241136	-0.786038	-0.787336	-0.062431	67.5319	-0.785344	-2.843436E+10	2.195620E-12	NaN
296	1.000000	0.282457	7.36796e+06	-53439.1	955.817	-29746.6	0.000000	0.000000	6.282837	-0.038312	NaN	0.000000	0.001615	0.001682	28.0788	0.062547	0.001914	32.6781	-60.8768	-163.887	-0.052933	0.281174	-0.746014	-0.747298	-0.038312	32.6781	-0.745135	-8.072104E+9	4.746270E-12	NaN
296	1.000000	0.322485	7.36796e+06	-53439.1	955.818	-29746.6	0.000000	0.000000	6.322865	-0.034747	NaN	0.000000	0.001624	0.001659	28.0789	0.070104	0.002221	31.5656	119.9	-163.701	-0.069157	0.321173	-0.705987	-0.707299	-0.034747	31.5656	-0.705161	-2.301441E+9	1.509789E-11	NaN
296	1.000000	0.362484	7.36796e+06	-53439.1	955.819	-29746.6	0.000000	0.000000	6.362865	-0.018644	NaN	0.000000	0.001666	0.001687	28.0802	0.121244	0.002137	56.7306	58.9468	-164.214	-0.028344	0.361200	-0.665987	-0.667272	-0.018644	56.7306	-0.665741	-6.654070E+8	2.801957E-11	NaN
296	1.000000	0.402508	7.36796e+06	-53439.1	955.819	-29746.6	0.000000	0.000000	6.402886	-0.081667	NaN	0.000000	0.001676	0.001687	28.0802	0.119683	0.002008	59.6078	174.129	-164.247	-0.077447	0.401230	-0.625964	-0.627241	-0.081667	59.6078	-0.624937	-1.834314E+8	4.452180E-10	NaN
296	1.000000	0.442527	7.36796e+06	-53439.1	955.819	-29746.6	0.000000	0.000000	6.442905	-0.076679	NaN	0.000000	0.001665	0.001720	28.0799	0.089714	0.002056	43.6426	-46.8321	-164.147	-0.098544	0.441208	-0.585945	-0.587264	-0.076679	43.6426	-0.584627	-5.111812E+7	1.500043E-9	NaN
296	1.000000	0.482524	7.36796e+06	-53439.1	955.818	-29746.6	0.000000	0.000000	6.482904	-0.037944	NaN	0.000000	0.001532	0.001734	28.0788	0.034378	0.001966	17.4904	-142.154	-164.854	-0.003296	0.481225	-0.545947	-0.547247	-0.037944	17.4904	-0.544320	-1.416643E+7	2.678435E-9	NaN
296	1.000000	0.522567	7.36796e+06	-53439.1	955.818	-29746.6	0.000000	0.000000	6.522950	0.019043	NaN	0.000000	0.001595	0.001700	28.0788	0.158227	0.001948	81.2402	60.9143	-162.245	0.015284	0.521286	-0.505904	-0.507186	0.019043	81.2402	-0.506080	-4.16679e+06	-4.570090E-9	NaN
296	1.000000	0.562589	7.36796e+06	-53439.1	955.818	-29746.6	0.000000	0.000000	6.562969	-0.034474	NaN	0.000000	0.001589	0.001687	28.0785	0.117653	0.001976	59.5546	-51.3678	-162.952	0.033574	0.561279	-0.465883	-0.467193	-0.034474	59.5546	-0.465449	-1.12603e+06	3.061588E-8	NaN
296	1.000000	0.602600	7.36796e+06	-53439.1	955.818	-29746.6	0.000000	0.000000	6.602981	-0.028255	NaN	0.000000	0.001611	0.001731	28.08	0.062725	0.002021	31.0293	110.636	-167.308	-0.085847	0.601299	-0.425871	-0.427173	-0.028255	31.0293	-0.425188	-304755	9.271461E-8	NaN
296	1.000000	0.642619	7.36796e+06	-53439.1	955.819	-29746.6	0.000000	0.000000	6.642995	-0.121687	NaN	0.000000	0.001702	0.001716	28.0795	0.061678	0.002129	28.9726	-78.3772	-166.669	-0.135185	0.641365	-0.385853	-0.387107	-0.121687	28.9726	-0.382703	-75624.8	1.609092E-6	NaN
296	1.000000	0.682637	7.36796e+06	-53439.1	955.819	-29746.6	0.000000	0.000000	6.683020	0.012973	NaN	0.000000	0.001637	0.001674	28.0796	0.145462	0.001919	75.8002	172.542	-158.497	-0.036191	0.681287	-0.345834	-0.347185	0.012973	75.8002	-0.345963	-22302.5	-5.816648E-7	NaN
296	1.000000	0.722655	7.36796e+06	-53439.1	955.819	-29746.6	0.000000	0.000000	6.723032	-0.093740	NaN	0.000000	0.001619	0.001673	28.0798	0.156909	0.001942	80.7902	23.8476	-162.086	0.028603	0.721392	-0.305817	-0.307080	-0.093740	80.7902	-0.304947	-5573.99	1.681741E-5	NaN
296	1.000000	0.762669	7.36796e+06	-53439.1	955.818	-29746.6	0.000000	0.000000	6.763051	0.019266	NaN	0.000000	0.001623	0.001643	28.0786	0.071883	0.002023	35.529	90.3423	-162.518	0.014777	0.761344	-0.265803	-0.267128	0.019266	35.529	-0.266210	-1458.28	-1.321119E-5	NaN
296	1.000000	0.802703	7.36796e+06	-53439.1	955.818	-29746.6	0.000000	0.000000	6.803081	-0.097804	NaN	0.000000	0.001595	0.001677	28.0787	0.086326	0.001941	44.467	153.849	-167.37	-0.001489	0.801374	-0.225768	-0.227098	-0.097804	44.467	-0.224119	-323.097	0.000303	NaN
296	1.000000	0.842715	7.36796e+06	-53439.1	955.818	-29746.6	0.000000	0.000000	6.843095	-0.025160	NaN	0.000000	0.001619	0.001664	28.0794	0.036105	0.002043	17.6701	135.612	-165.156	-0.008734	0.841374	-0.185757	-0.187097	-0.025160	17.6701	-0.184689	-73.2639	0.000343	NaN
296	1.000000	0.882701	7.36796e+06	-53439.1	955.817	-29746.6	0.000000	0.000000	6.883082	-0.016447	NaN	0.000000	0.001608	0.001633	28.08	0.125326	0.001888	66.3652	16.3907	-162.483	0.034605	0.881419	-0.145770	-0.147053	-0.016447	66.3652	-0.145584	-15.0304	0.001094	NaN
296	1.000000	0.922745	7.36796e+06	-53439.1	955.819	-29746.6	0.000000	0.000000	6.923127	0.006742	NaN	0.000000	0.001595	0.001671	28.0795	0.052215	0.002060	25.3437	80.2645	-164.115	-0.104171	0.921406	-0.105727	-0.107066	0.006742	25.3437	-0.105926	-2.461120	-0.002739	NaN
296	1.000000	0.962733	7.36796e+06	-53439.1	955.819	-29746.6	0.000000	0.000000	6.963115	0.003214	NaN	0.000000	0.001618	0.001663	28.0796	0.052150	0.002051	25.4285	1.262554	-164.239	-0.052097	0.961464	-0.065739	-0.067007	0.003214	25.4285	-0.065834	-0.262804	-0.012230	NaN
296	1.000000	1.002775	7.36796e+06	-53439.1	955.819	-29746.6	0.000000	0.000000	7.003157	0.012295	NaN	0.000000	0.001608	0.001687	28.0797	0.099720	0.001964	50.7651	-162.808	-162.246	0.036869	1.001435	-0.025696	-0.027037	0.012295	50.7651	-0.025878	-0.017790	-0.691130	NaN
296	2.000000	1.039377	7.36796e+06	-53439.1	955.819	-29746.6	0.000000	0.000000	7.040148	9.482397	NaN	0.000000	0.001605	0.001701	28.0784	10.3201	0.001710	6034.04	7.660722	-174.989	8.780907	1.039119	0.010905	0.010647	9.482397	6034.04	0.009726	0.008879	1067.96	58506
296	2.000000	1.049304	7.36796e+06	-53439.1	955.82	-29746.6	0.000000	0.000000	7.050659	23.6617	NaN	0.000000	0.001616	0.001665	28.0783	21.5511	0.002026	10636.2	8.414518	-177.608	24.5255	1.048999	0.020833	0.020528	23.6617	10636.2	0.019164	0.021246	1113.7	66668.2
296	2.000000	1.059258	7.36796e+06	-53439.1	955.82	-29746.6	0.000000	0.000000	7.061492	45.0441	NaN	0.000000	0.001600	0.001640	28.0782	30.356	0.001793	16932.1	5.139373	179.402	43.5583	1.059036	0.030786	0.030564	45.0441	16932.1	0.028791	0.038275	1176.87	79073
296	2.000000	1.069199	7.36796e+06	-53439.1	955.819	-29746.6	0.000000	0.000000	7.072639	74.3687	NaN	0.000000	0.001593	0.001669	28.0795	39.9429	0.001770	22571.4	5.814597	176.218	71.6448	1.069007	0.040727	0.040535	74.3687	22571.4	0.038256	0.059599	1247.81	84471.7
296	2.000000	1.079194	7.36796e+06	-53439.1	955.819	-29746.6	0.000000	0.000000	7.084160	111.463	NaN	0.000000	0.001632	0.001662	28.0795	48.586	0.001745	27850.8	0.983149	179.281	108.629	1.078921	0.050723	0.050449	111.463	27850.8	0.047721	0.085499	1303.67	87022.3
296	2.000000	1.089232	7.36796e+06	-53439.1	955.82	-29746.6	0.000000	0.000000	7.095860	151.879	NaN	0.000000	0.001593	0.001652	28.0795	60.5123	0.001722	35147.4	2.948319	175.374	151.604	1.088979	0.060760	0.060507	151.879	35147.4	0.057519	0.117062	1297.42	93855
296	2.000000	1.099305	7.36796e+06	-53439.1	955.821	-29746.6	0.000000	0.000000	7.107964	201.236	NaN	0.000000	0.001588	0.001667	28.0785	69.3917	0.001753	39576.3	6.486098	171.981	205.529	1.098879	0.070833	0.070407	201.236	39576.3	0.067020	0.152177	1322.38	92690.2
296	2.000000	1.109127	7.36796e+06	-53439.1	955.82	-29746.6	0.000000	0.000000	7.120343	263.426	NaN	0.000000	0.001570	0.001654	28.0787	77.6798	0.001733	44819.8	1.694841	175.209	258.59	1.108898	0.080655	0.080426	263.426	44819.8	0.076247	0.190424	1383.36	93838.8
296	2.000000	1.119317	7.36796e+06	-53439.1	955.821	-29746.6	0.000000	0.000000	7.132701	316.115	NaN	0.000000	0.001583	0.001682	28.0788	89.5461	0.001802	49696.8	2.785173	174.337	325.705	1.119022	0.090845	0.090550	316.115	49696.8	0.086075	0.235555	1342	93552.4
296	2.000000	1.129209	7.36796e+06	-53439.1	955.821	-29746.6	0.000000	0.000000	7.145790	393.852	NaN	0.000000	0.001605	0.001667	28.0786	98.8455	0.001686	58630.3	3.264218	171.188	393.37	1.129028	0.100737	0.100556	393.852	58630.3	0.095699	0.284071	1386.46	100504
296	2.000000	1.136689	7.36796e+06	-53439.1	955.82	-29746.6	0.000000	0.000000	7.155935	458.655	NaN	0.000000	0.001616	0.001684	28.0801	104.807	0.001740	60224.7	4.030508	-8.684691	457.87	1.136334	0.108217	0.107862	458.655	60224.7	0.102505	0.320933	1429.13	97127.1