Folder: unikorn_login/remote_trans/data/nanoindenter/0828-1/data/Data_2025-08-06,11h17m57s (part 88)

File: 2025-07-22_16-23-58_1_193.txt
2025-07-22, 16:23:58, 1
Index	Phase	Displacement	Time	Pos X	Pos Y	Pos Z	Rot A	Rot B	Piezo Z	Force A	Force B	Gripper	Voltage A	Voltage B	Temperature	Amplitude force	Amplitude pos	Stiffness	Phase shift	Phase excitation	Force A raw	Displacement raw	HMax	HMax raw	Real Force	Real Stiffness	Contact Depth	Area	Hardness	Reduced Mod.
[#]	[#]	[um]	[s]	[um]	[um]	[um]	[m°]	[m°]	[um]	[uN]	[uN]	[V]	[V]	[V]	[°C]	[uN]	[um]	[N/m]	[°]	[°]	[uN]	[um]	[um]	[um]	[uN]	[N/m]	[um]	[um^2]	[MPa]	[MPa]
193	1.000000	0.001936	7.36693e+06	-48289.1	955.819	-29763.2	0.000000	0.000000	6.002785	-0.013258	NaN	0.000000	0.001622	0.001711	28.0775	0.013155	0.000967	13.5972	-20.3893	-168.922	0.008517	0.000661	-1.156815	-1.158089	-0.013258	13.5972	-1.156084	-2.833826E+15	4.678470E-18	NaN
193	1.000000	0.045899	7.36693e+06	-48289.1	955.819	-29763.2	0.000000	0.000000	6.046750	0.023797	NaN	0.000000	0.001615	0.001699	28.0774	0.060113	0.002132	28.1978	62.9415	-163.165	-0.080642	0.044600	-1.112851	-1.114151	0.023797	28.1978	-1.113484	-7.604024E+14	-3.129554E-17	NaN
193	1.000000	0.089932	7.36693e+06	-48289.1	955.819	-29763.2	0.000000	0.000000	6.090782	0.013534	NaN	0.000000	0.001533	0.001701	28.078	0.052716	0.002012	26.2058	-87.976	-166.697	0.013995	0.088588	-1.068819	-1.070163	0.013534	26.2058	-1.069206	-1.934288E+14	-6.996656E-17	NaN
193	1.000000	0.133914	7.36693e+06	-48289.1	955.819	-29763.2	0.000000	0.000000	6.134764	0.005203	NaN	0.000000	0.001539	0.001715	28.0785	0.057214	0.002032	28.1625	115.771	-166.448	0.145546	0.132612	-1.024836	-1.026139	0.005203	28.1625	-1.024975	-4.919102E+13	-1.057734E-16	NaN
193	1.000000	0.177955	7.36693e+06	-48289.1	955.818	-29763.2	0.000000	0.000000	6.178807	0.046984	NaN	0.000000	0.001587	0.001737	28.0783	0.011023	0.001936	5.692853	78.9787	-164.663	0.027635	0.176683	-0.980795	-0.982068	0.046984	5.692853	-0.986985	-1.515330E+13	-3.100572E-15	NaN
193	1.000000	0.221991	7.36693e+06	-48289.1	955.818	-29763.2	0.000000	0.000000	6.222841	0.001709	NaN	0.000000	0.001598	0.001754	28.0787	0.048277	0.002000	24.1396	96.7684	-168.586	-0.046807	0.220618	-0.936760	-0.938132	0.001709	24.1396	-0.936813	-3.192525E+12	-5.352141E-16	NaN
193	1.000000	0.265987	7.36693e+06	-48289.1	955.818	-29763.2	0.000000	0.000000	6.266834	-0.072562	NaN	0.000000	0.001531	0.001655	28.0774	0.070854	0.001986	35.6772	-151.218	-166.048	-0.052169	0.264676	-0.892764	-0.894074	-0.072562	35.6772	-0.891238	-7.738467E+11	9.376770E-14	NaN
193	1.000000	0.310027	7.36693e+06	-48289.1	955.818	-29763.2	0.000000	0.000000	6.310876	-0.024892	NaN	0.000000	0.001585	0.001695	28.0772	0.110742	0.001994	55.5403	93.6896	-166.68	-0.052797	0.308711	-0.848724	-0.850039	-0.024892	55.5403	-0.848388	-2.036584E+11	1.222259E-13	NaN
193	1.000000	0.354075	7.36693e+06	-48289.1	955.819	-29763.2	0.000000	0.000000	6.354924	-0.018425	NaN	0.000000	0.001578	0.001710	28.0769	0.079654	0.002005	39.7243	-78.1165	-165.681	0.047502	0.352718	-0.804676	-0.806033	-0.018425	39.7243	-0.804328	-5.147631E+10	3.579390E-13	NaN
193	1.000000	0.398035	7.36693e+06	-48289.1	955.818	-29763.2	0.000000	0.000000	6.398887	0.028697	NaN	0.000000	0.001592	0.001727	28.0784	0.036140	0.002064	17.5133	-148.399	-164.819	0.013233	0.396726	-0.760715	-0.762025	0.028697	17.5133	-0.761944	-1.366934E+10	-2.099360E-12	NaN
193	1.000000	0.442067	7.36693e+06	-48289.1	955.819	-29763.2	0.000000	0.000000	6.442915	-0.049054	NaN	0.000000	0.001650	0.001735	28.0784	0.084159	0.001965	42.8204	57.7327	-162.025	-0.034138	0.440760	-0.716684	-0.717990	-0.049054	42.8204	-0.715825	-3.217518E+9	1.524581E-11	NaN
193	1.000000	0.486076	7.36693e+06	-48289.1	955.818	-29763.2	0.000000	0.000000	6.486927	0.028421	NaN	0.000000	0.001634	0.001760	28.0783	0.106206	0.001970	53.9028	-173.107	-167.811	0.038382	0.484761	-0.672675	-0.673990	0.028421	53.9028	-0.673070	-8.383076E+8	-3.390272E-11	NaN
193	1.000000	0.530094	7.36693e+06	-48289.1	955.818	-29763.2	0.000000	0.000000	6.530946	0.035020	NaN	0.000000	0.001639	0.001695	28.0774	0.033198	0.002104	15.7795	124.685	-164.431	0.075084	0.528777	-0.628656	-0.629974	0.035020	15.7795	-0.630321	-2.174848E+8	-1.610242E-10	NaN
193	1.000000	0.574106	7.36693e+06	-48289.1	955.818	-29763.2	0.000000	0.000000	6.574957	0.015300	NaN	0.000000	0.001652	0.001728	28.0772	0.068209	0.001975	34.5337	96.7688	-162.985	-0.054253	0.572772	-0.584644	-0.585979	0.015300	34.5337	-0.584977	-5.168850E+7	-2.960123E-10	NaN
193	1.000000	0.618161	7.36693e+06	-48289.1	955.819	-29763.2	0.000000	0.000000	6.619014	0.066192	NaN	0.000000	0.001638	0.001746	28.0774	0.033498	0.001901	17.6208	123.529	-161.774	0.121247	0.616892	-0.540590	-0.541858	0.066192	17.6208	-0.543407	-1.375938E+7	-4.810657E-9	NaN
193	1.000000	0.662168	7.36693e+06	-48289.1	955.818	-29763.2	0.000000	0.000000	6.663019	0.018629	NaN	0.000000	0.001580	0.001640	28.0774	0.034721	0.002175	15.9606	-147.407	-166.403	0.001867	0.660867	-0.496582	-0.497883	0.018629	15.9606	-0.497458	-3.15897e+06	-5.897193E-9	NaN
193	1.000000	0.706197	7.36693e+06	-48289.1	955.818	-29763.2	0.000000	0.000000	6.707045	-0.047783	NaN	0.000000	0.001553	0.001651	28.0787	0.087122	0.002042	42.6579	-125.162	-162.694	-0.017818	0.704939	-0.452554	-0.453812	-0.047783	42.6579	-0.451714	-721891	6.619188E-8	NaN
193	1.000000	0.750192	7.36693e+06	-48289.1	955.819	-29763.2	0.000000	0.000000	6.751040	-0.045793	NaN	0.000000	0.001589	0.001660	28.0785	0.119487	0.001997	59.8304	-156.501	-163.204	-0.025904	0.748872	-0.408559	-0.409878	-0.045793	59.8304	-0.407985	-173674	2.636748E-7	NaN
193	1.000000	0.794195	7.36693e+06	-48289.1	955.819	-29763.2	0.000000	0.000000	6.795043	-0.046056	NaN	0.000000	0.001605	0.001657	28.0785	0.105638	0.001864	56.6874	66.235	-166.045	0.033461	0.792917	-0.364555	-0.365833	-0.046056	56.6874	-0.363946	-40629.8	1.133553E-6	NaN
193	1.000000	0.838261	7.36693e+06	-48289.1	955.819	-29763.2	0.000000	0.000000	6.839109	-0.054987	NaN	0.000000	0.001623	0.001657	28.0775	0.041222	0.001979	20.8247	74.8567	-167.075	-0.042580	0.836968	-0.320490	-0.321782	-0.054987	20.8247	-0.318509	-8844.83	6.216832E-6	NaN
193	1.000000	0.882245	7.36693e+06	-48289.1	955.819	-29763.2	0.000000	0.000000	6.883093	-0.041404	NaN	0.000000	0.001653	0.001608	28.0775	0.049394	0.002024	24.4038	144.488	-168.273	-0.044065	0.880998	-0.276505	-0.277753	-0.041404	24.4038	-0.275233	-1999.53	2.070669E-5	NaN
193	1.000000	0.926250	7.36694e+06	-48289.1	955.819	-29763.2	0.000000	0.000000	6.927098	-0.052259	NaN	0.000000	0.001555	0.001666	28.0772	0.086383	0.002007	43.0473	-64.708	-162.723	0.020876	0.924977	-0.232500	-0.233774	-0.052259	43.0473	-0.231590	-424.227	0.000123	NaN
193	1.000000	0.970258	7.36694e+06	-48289.1	955.819	-29763.2	0.000000	0.000000	6.971107	-0.015088	NaN	0.000000	0.001594	0.001631	28.0784	0.066223	0.001973	33.5624	3.364733	-164.598	0.005865	0.968928	-0.188493	-0.189823	-0.015088	33.5624	-0.188156	-83.7858	0.000180	NaN
193	1.000000	1.014319	7.36694e+06	-48289.1	955.819	-29763.2	0.000000	0.000000	7.015168	-0.017118	NaN	0.000000	0.001577	0.001661	28.0787	0.049241	0.002022	24.3488	-129.223	-166.567	0.040198	1.012990	-0.144432	-0.145760	-0.017118	24.3488	-0.143905	-13.9916	0.001223	NaN
193	1.000000	1.058301	7.36694e+06	-48289.1	955.82	-29763.2	0.000000	0.000000	7.059151	-0.000275	NaN	0.000000	0.001515	0.001659	28.0787	0.061450	0.001940	31.678	50.8977	-162.378	-0.025457	1.057026	-0.100449	-0.101725	-0.000275	31.678	-0.100443	-1.868855	0.000147	NaN
193	1.000000	1.102319	7.36694e+06	-48289.1	955.819	-29763.2	0.000000	0.000000	7.103168	-0.031041	NaN	0.000000	0.001584	0.001668	28.0775	0.069768	0.002041	34.1796	79.9833	-163.936	-0.053397	1.101071	-0.056431	-0.057679	-0.031041	34.1796	-0.055750	-0.135507	0.229073	NaN
193	1.000000	1.146336	7.36694e+06	-48289.1	955.821	-29763.2	0.000000	0.000000	7.147185	-0.009976	NaN	0.000000	0.001572	0.001643	28.0774	0.085329	0.002016	42.3293	-41.4592	-166.006	-0.019304	1.145025	-0.012415	-0.013725	-0.009976	42.3293	-0.012238	-0.007665	1.301586	NaN
193	2.000000	1.173774	7.36694e+06	-48289.1	955.821	-29763.2	0.000000	0.000000	7.175266	15.6042	NaN	0.000000	0.001585	0.001632	28.0786	15.4617	0.002019	7657.39	13.4073	-179.82	14.7084	1.173511	0.015024	0.014760	15.6042	7657.39	0.013495	0.013331	1170.52	60593
193	2.000000	1.184753	7.36694e+06	-48289.1	955.821	-29763.2	0.000000	0.000000	7.187235	39.6952	NaN	0.000000	0.001591	0.001615	28.0788	25.2332	0.001797	14038.7	4.466480	-175.937	38.8699	1.184388	0.026003	0.025638	39.6952	14038.7	0.023882	0.029013	1368.19	75301.6
193	2.000000	1.195789	7.36694e+06	-48289.1	955.82	-29763.2	0.000000	0.000000	7.199695	74.323	NaN	0.000000	0.001582	0.001672	28.079	36.1824	0.001768	20466.7	3.941597	-178.874	75.4467	1.195436	0.037039	0.036686	74.323	20466.7	0.034315	0.050163	1481.63	83489.3
193	2.000000	1.206683	7.36694e+06	-48289.1	955.821	-29763.2	0.000000	0.000000	7.212837	129.011	NaN	0.000000	0.001610	0.001602	28.0787	49.1746	0.001731	28415.3	2.601790	178.941	127.473	1.206423	0.047932	0.047672	129.011	28415.3	0.044527	0.076250	1691.94	94016.6
193	2.000000	1.217700	7.36694e+06	-48289.1	955.821	-29763.2	0.000000	0.000000	7.226035	182.052	NaN	0.000000	0.001637	0.001674	28.0774	60.636	0.001782	34018.8	6.759862	173.394	182.136	1.217365	0.058950	0.058614	182.052	34018.8	0.054936	0.108278	1681.34	94454.3
193	2.000000	1.228650	7.36694e+06	-48289.1	955.82	-29763.2	0.000000	0.000000	7.239691	247.863	NaN	0.000000	0.001675	0.001633	28.0774	70.4451	0.001699	41452.8	8.507475	169.731	245.351	1.228379	0.069900	0.069628	247.863	41452.8	0.065415	0.145940	1698.4	99138
193	2.000000	1.239649	7.36694e+06	-48289.1	955.82	-29763.3	0.000000	0.000000	7.253619	319.114	NaN	0.000000	0.001662	0.001614	28.0775	82.4163	0.001826	45136.2	1.945921	175.952	316.66	1.239348	0.080898	0.080598	319.114	45136.2	0.075596	0.187593	1701.1	95211.6
193	2.000000	1.250632	7.36694e+06	-48289.1	955.821	-29763.3	0.000000	0.000000	7.267922	399.856	NaN	0.000000	0.001628	0.001617	28.0788	91.8664	0.001752	52436.3	5.438097	171.696	396.751	1.250228	0.091882	0.091477	399.856	52436.3	0.086163	0.235979	1694.46	98620.9
193	2.000000	1.261603	7.36694e+06	-48289.1	955.82	-29763.3	0.000000	0.000000	7.282812	495.158	NaN	0.000000	0.001626	0.001639	28.0787	101.417	0.001885	53798.7	2.358317	174.788	491.852	1.261435	0.102853	0.102684	495.158	53798.7	0.095950	0.285391	1735.02	92007.9
193	2.000000	1.266595	7.36694e+06	-48289.1	955.821	-29763.3	0.000000	0.000000	7.289878	545.612	NaN	0.000000	0.001608	0.001642	28.079	107.429	0.001718	62516.5	6.169119	169.993	540.707	1.266143	0.107845	0.107393	545.612	62516.5	0.101299	0.314247	1736.25	101890

File: 2025-07-22_16-23-58_1_194.txt
2025-07-22, 16:23:58, 1
Index	Phase	Displacement	Time	Pos X	Pos Y	Pos Z	Rot A	Rot B	Piezo Z	Force A	Force B	Gripper	Voltage A	Voltage B	Temperature	Amplitude force	Amplitude pos	Stiffness	Phase shift	Phase excitation	Force A raw	Displacement raw	HMax	HMax raw	Real Force	Real Stiffness	Contact Depth	Area	Hardness	Reduced Mod.
[#]	[#]	[um]	[s]	[um]	[um]	[um]	[m°]	[m°]	[um]	[uN]	[uN]	[V]	[V]	[V]	[°C]	[uN]	[um]	[N/m]	[°]	[°]	[uN]	[um]	[um]	[um]	[uN]	[N/m]	[um]	[um^2]	[MPa]	[MPa]
194	1.000000	0.002799	7.36694e+06	-48339.1	955.819	-29763.2	0.000000	0.000000	6.002834	-0.020715	NaN	0.000000	0.001599	0.001623	28.0781	0.069556	0.000879	79.1467	138.594	-167.688	-0.081056	0.001516	-1.017963	-1.019246	-0.020715	79.1467	-1.017767	-3.934648E+13	5.264828E-16	NaN
194	1.000000	0.042731	7.36694e+06	-48339.1	955.818	-29763.2	0.000000	0.000000	6.042769	0.035192	NaN	0.000000	0.001621	0.001696	28.0789	0.068691	0.002101	32.6898	120.095	-164.115	0.057067	0.041418	-0.978032	-0.979345	0.035192	32.6898	-0.978839	-1.176976E+13	-2.989996E-15	NaN
194	1.000000	0.082721	7.36694e+06	-48339.1	955.818	-29763.2	0.000000	0.000000	6.082753	-0.076844	NaN	0.000000	0.001584	0.001659	28.0791	0.060583	0.002015	30.0678	-1.760289	-165.258	-0.033506	0.081422	-0.938042	-0.939341	-0.076844	30.0678	-0.936125	-3.125070E+12	2.458967E-14	NaN
194	1.000000	0.122745	7.36694e+06	-48339.1	955.819	-29763.2	0.000000	0.000000	6.122781	-0.005063	NaN	0.000000	0.001599	0.001658	28.079	0.077491	0.001982	39.1069	-160.569	-163.78	-0.050916	0.121455	-0.898018	-0.899307	-0.005063	39.1069	-0.897920	-9.527212E+11	5.314049E-15	NaN
194	1.000000	0.162750	7.36694e+06	-48339.1	955.818	-29763.2	0.000000	0.000000	6.162784	-0.028215	NaN	0.000000	0.001580	0.001614	28.0777	0.107350	0.002110	50.8864	120.531	-167.314	-0.016949	0.161455	-0.858013	-0.859308	-0.028215	50.8864	-0.857597	-2.713912E+11	1.039641E-13	NaN
194	1.000000	0.202782	7.36694e+06	-48339.1	955.818	-29763.2	0.000000	0.000000	6.202815	-0.064490	NaN	0.000000	0.001622	0.001644	28.0775	0.084845	0.001983	42.7884	68.5562	-167.344	-0.023269	0.201439	-0.817980	-0.819324	-0.064490	42.7884	-0.816850	-7.611904E+10	8.472212E-13	NaN
194	1.000000	0.242807	7.36694e+06	-48339.1	955.818	-29763.2	0.000000	0.000000	6.242843	-0.004402	NaN	0.000000	0.001631	0.001652	28.0777	0.079205	0.002080	38.0763	-76.9882	-165.273	0.010270	0.241485	-0.777956	-0.779277	-0.004402	38.0763	-0.777869	-2.250465E+10	1.956258E-13	NaN
194	1.000000	0.282810	7.36694e+06	-48339.1	955.817	-29763.2	0.000000	0.000000	6.282844	-0.038581	NaN	0.000000	0.001601	0.001694	28.0778	0.069248	0.001974	35.0883	-160.02	-163.909	-0.029937	0.281463	-0.737953	-0.739300	-0.038581	35.0883	-0.737128	-6.279630E+9	6.143887E-12	NaN
194	1.000000	0.322809	7.36694e+06	-48339.1	955.818	-29763.2	0.000000	0.000000	6.322845	-0.002048	NaN	0.000000	0.001641	0.001623	28.0789	0.069706	0.001959	35.5779	126.387	-167.886	0.010939	0.321566	-0.697954	-0.699196	-0.002048	35.5779	-0.697911	-1.832305E+9	1.117798E-12	NaN
194	1.000000	0.362871	7.36694e+06	-48339.1	955.819	-29763.2	0.000000	0.000000	6.362907	-0.010144	NaN	0.000000	0.001594	0.001647	28.0787	0.065850	0.002082	31.6352	151.469	-165.769	-0.008378	0.361551	-0.657891	-0.659212	-0.010144	31.6352	-0.657651	-5.155691E+8	1.967438E-11	NaN
194	1.000000	0.402861	7.36694e+06	-48339.1	955.818	-29763.2	0.000000	0.000000	6.402895	-0.044552	NaN	0.000000	0.001593	0.001682	28.0787	0.026249	0.001914	13.7154	42.2506	-165.666	-0.027901	0.401550	-0.617902	-0.619213	-0.044552	13.7154	-0.615465	-1.359225E+8	3.277721E-10	NaN
194	1.000000	0.442882	7.36694e+06	-48339.1	955.818	-29763.2	0.000000	0.000000	6.442918	0.022624	NaN	0.000000	0.001631	0.001705	28.0775	0.018437	0.002027	9.095016	-112.156	-162.914	-0.088840	0.441573	-0.577881	-0.579190	0.022624	9.095016	-0.579747	-4.377540E+7	-5.168162E-10	NaN
194	1.000000	0.482894	7.36694e+06	-48339.1	955.819	-29763.2	0.000000	0.000000	6.482929	-0.013327	NaN	0.000000	0.001574	0.001746	28.0775	0.063733	0.002092	30.4634	102.269	-163.317	-0.002340	0.481575	-0.537869	-0.539188	-0.013327	30.4634	-0.537541	-1.140887E+7	1.168126E-9	NaN
194	1.000000	0.522917	7.36694e+06	-48339.1	955.818	-29763.2	0.000000	0.000000	6.522950	-0.062048	NaN	0.000000	0.001618	0.001724	28.0776	0.106105	0.001933	54.8879	178.324	-161.54	-0.086830	0.521630	-0.497846	-0.499133	-0.062048	54.8879	-0.496998	-3.11264e+06	1.993412E-8	NaN
194	1.000000	0.562922	7.36694e+06	-48339.1	955.817	-29763.2	0.000000	0.000000	6.562955	-0.069326	NaN	0.000000	0.001596	0.001738	28.0777	0.073472	0.002062	35.6294	-98.3211	-164.445	-0.211168	0.561628	-0.457841	-0.459134	-0.069326	35.6294	-0.456381	-839743	8.255652E-8	NaN
194	1.000000	0.602938	7.36694e+06	-48339.1	955.819	-29763.2	0.000000	0.000000	6.602972	-0.043153	NaN	0.000000	0.001668	0.001690	28.0792	0.094957	0.002089	45.4496	122.386	-168.023	-0.083635	0.601600	-0.417825	-0.419163	-0.043153	45.4496	-0.417113	-234129	1.843108E-7	NaN
194	1.000000	0.642964	7.36694e+06	-48339.1	955.819	-29763.2	0.000000	0.000000	6.642998	-0.042542	NaN	0.000000	0.001627	0.001720	28.0791	0.087548	0.001916	45.6868	131.733	-167.408	0.059464	0.641677	-0.377799	-0.379086	-0.042542	45.6868	-0.377101	-62843.3	6.769497E-7	NaN
194	1.000000	0.682974	7.36694e+06	-48339.1	955.817	-29763.2	0.000000	0.000000	6.683009	-0.031223	NaN	0.000000	0.001600	0.001707	28.0788	0.029995	0.001915	15.6637	57.987	-163.487	-0.017781	0.681635	-0.337789	-0.339128	-0.031223	15.6637	-0.336294	-16124.3	1.936376E-6	NaN
194	1.000000	0.722981	7.36694e+06	-48339.1	955.819	-29763.2	0.000000	0.000000	6.723015	-0.038301	NaN	0.000000	0.001657	0.001758	28.0777	0.153206	0.001962	78.0993	-121.631	-164.35	-0.073947	0.721709	-0.297782	-0.299054	-0.038301	78.0993	-0.297414	-4306.36	8.893985E-6	NaN
194	1.000000	0.762981	7.36694e+06	-48339.1	955.818	-29763.2	0.000000	0.000000	6.763013	-0.086846	NaN	0.000000	0.001567	0.001641	28.0777	0.034702	0.002097	16.5473	-77.6576	-163.946	-0.031723	0.761733	-0.257782	-0.259030	-0.086846	16.5473	-0.253846	-942.615	9.213301E-5	NaN
194	1.000000	0.803035	7.36694e+06	-48339.1	955.818	-29763.2	0.000000	0.000000	6.803069	-0.037633	NaN	0.000000	0.001605	0.001648	28.0778	0.022774	0.001985	11.472	71.3478	-166.373	0.055966	0.801651	-0.217728	-0.219112	-0.037633	11.472	-0.215268	-233.248	0.000161	NaN
194	1.000000	0.843059	7.36694e+06	-48339.1	955.817	-29763.2	0.000000	0.000000	6.843092	-0.064756	NaN	0.000000	0.001594	0.001660	28.0788	0.021063	0.002062	10.2141	88.9961	-165.737	-0.014461	0.841737	-0.177703	-0.179026	-0.064756	10.2141	-0.172949	-46.2014	0.001402	NaN
194	1.000000	0.883060	7.36694e+06	-48339.1	955.819	-29763.2	0.000000	0.000000	6.883095	-0.033132	NaN	0.000000	0.001597	0.001677	28.0787	0.109964	0.001995	55.1082	113.753	-164.734	-0.088318	0.881736	-0.137703	-0.139026	-0.033132	55.1082	-0.137252	-10.4983	0.003156	NaN
194	1.000000	0.923071	7.36695e+06	-48339.1	955.818	-29763.2	0.000000	0.000000	6.923105	-0.056245	NaN	0.000000	0.001603	0.001655	28.079	0.099990	0.002173	46.0074	169.179	-166.265	-0.059681	0.921796	-0.097692	-0.098967	-0.056245	46.0074	-0.096775	-1.547584	0.036344	NaN
194	1.000000	0.963092	7.36695e+06	-48339.1	955.817	-29763.2	0.000000	0.000000	6.963126	-0.032114	NaN	0.000000	0.001576	0.001642	28.0792	0.083361	0.002034	40.9904	-148.15	-170.692	0.021121	0.961767	-0.057671	-0.058996	-0.032114	40.9904	-0.057083	-0.148274	0.216584	NaN
194	1.000000	1.003088	7.36695e+06	-48339.1	955.819	-29763.2	0.000000	0.000000	7.003123	-0.026581	NaN	0.000000	0.001584	0.001769	28.0779	0.032184	0.001956	16.4572	-125.213	-166.971	-0.024032	1.001806	-0.017674	-0.018956	-0.026581	16.4572	-0.016463	-0.010171	2.613403	NaN
194	2.000000	1.033734	7.36695e+06	-48339.1	955.818	-29763.2	0.000000	0.000000	7.034297	12.8013	NaN	0.000000	0.001544	0.001683	28.0779	12.4703	0.001842	6769.48	8.798765	-173.6	13.3427	1.033361	0.012972	0.012599	12.8013	6769.48	0.011553	0.010960	1168.05	59078.9
194	2.000000	1.043614	7.36695e+06	-48339.1	955.818	-29763.2	0.000000	0.000000	7.045011	33.1129	NaN	0.000000	0.001529	0.001659	28.0778	22.8629	0.001805	12669.4	6.863466	-178.409	32.7724	1.043433	0.022851	0.022670	33.1129	12669.4	0.020891	0.023962	1381.9	74777.2
194	2.000000	1.053617	7.36695e+06	-48339.1	955.818	-29763.2	0.000000	0.000000	7.056108	59.7173	NaN	0.000000	0.001633	0.001618	28.079	32.0948	0.001879	17081	5.375164	-178.341	59.7089	1.053302	0.032855	0.032539	59.7173	17081	0.030232	0.041227	1448.5	76859
194	2.000000	1.063566	7.36695e+06	-48339.1	955.818	-29763.2	0.000000	0.000000	7.067576	96.6593	NaN	0.000000	0.001582	0.001656	28.0794	42.9671	0.001903	22581.4	4.523964	179.588	95.2484	1.063222	0.042804	0.042459	96.6593	22581.4	0.039593	0.062981	1534.73	82208.8
194	2.000000	1.073558	7.36695e+06	-48339.1	955.818	-29763.2	0.000000	0.000000	7.079487	143.35	NaN	0.000000	0.001620	0.001679	28.0794	52.8786	0.001755	30129.3	4.729442	175.816	141.284	1.073295	0.052795	0.052533	143.35	30129.3	0.049227	0.090038	1592.11	91738.1
194	2.000000	1.083576	7.36695e+06	-48339.1	955.818	-29763.2	0.000000	0.000000	7.091719	197.176	NaN	0.000000	0.001586	0.001656	28.0789	63.2744	0.001795	35251.6	2.526877	177.338	198.279	1.083263	0.062813	0.062500	197.176	35251.6	0.058618	0.120900	1630.9	92627.2
194	2.000000	1.093574	7.36695e+06	-48339.1	955.819	-29763.2	0.000000	0.000000	7.104205	257.697	NaN	0.000000	0.001604	0.001667	28.0777	73.0079	0.001854	39381.6	3.648844	175.386	259.074	1.093221	0.072811	0.072458	257.697	39381.6	0.067904	0.155665	1655.46	91195.2
194	2.000000	1.103552	7.36695e+06	-48339.1	955.818	-29763.2	0.000000	0.000000	7.116880	323.302	NaN	0.000000	0.001615	0.001739	28.0776	85.0208	0.001913	44447.6	5.682076	171.889	323.753	1.103370	0.082789	0.082607	323.302	44447.6	0.077334	0.195193	1656.32	91915.6
194	2.000000	1.113613	7.36695e+06	-48339.1	955.818	-29763.2	0.000000	0.000000	7.130395	407.304	NaN	0.000000	0.001578	0.001720	28.0776	93.8866	0.001771	53027.4	5.923717	171.348	412.755	1.113239	0.092850	0.092476	407.304	53027.4	0.087090	0.240470	1693.78	98796.9
194	2.000000	1.123446	7.36695e+06	-48339.1	955.819	-29763.2	0.000000	0.000000	7.143616	489.706	NaN	0.000000	0.001560	0.001714	28.0788	101.205	0.001707	59296.7	0.078945	175.939	484.379	1.123150	0.102683	0.102387	489.706	59296.7	0.096489	0.288243	1698.94	100908
194	2.000000	1.129099	7.36695e+06	-48339.1	955.82	-29763.2	0.000000	0.000000	7.151165	535.819	NaN	0.000000	0.001615	0.001737	28.0792	106.857	0.001819	58745.9	6.697280	-10.9068	537.68	1.128819	0.108336	0.108056	535.819	58745.9	0.101495	0.315330	1699.23	95580.2