Folder: unikorn_login/remote_trans/data/nanoindenter/0828-1/data/Data_2025-08-06,11h17m57s (part 118)

File: 2025-07-22_16-23-58_1_253.txt
2025-07-22, 16:23:58, 1
Index	Phase	Displacement	Time	Pos X	Pos Y	Pos Z	Rot A	Rot B	Piezo Z	Force A	Force B	Gripper	Voltage A	Voltage B	Temperature	Amplitude force	Amplitude pos	Stiffness	Phase shift	Phase excitation	Force A raw	Displacement raw	HMax	HMax raw	Real Force	Real Stiffness	Contact Depth	Area	Hardness	Reduced Mod.
[#]	[#]	[um]	[s]	[um]	[um]	[um]	[m°]	[m°]	[um]	[uN]	[uN]	[V]	[V]	[V]	[°C]	[uN]	[um]	[N/m]	[°]	[°]	[uN]	[um]	[um]	[um]	[uN]	[N/m]	[um]	[um^2]	[MPa]	[MPa]
253	1.000000	0.002066	7.36752e+06	-51289.1	955.819	-29752.6	0.000000	0.000000	6.002794	0.027956	NaN	0.000000	0.001588	0.001681	28.0767	0.131071	0.001037	126.371	2.226273	-162.968	-0.047494	0.000846	-1.685360	-1.686580	0.027956	126.371	-1.685526	-3.266962E+22	-8.557276E-25	NaN
253	1.000000	0.060010	7.36752e+06	-51289.1	955.818	-29752.6	0.000000	0.000000	6.060737	-0.011215	NaN	0.000000	0.001600	0.001688	28.078	0.068994	0.001909	36.1346	113.348	13.0223	0.050250	0.058708	-1.627416	-1.628718	-0.011215	36.1346	-1.627183	-5.479076E+21	2.046816E-24	NaN
253	1.000000	0.118040	7.36752e+06	-51289.1	955.817	-29752.6	0.000000	0.000000	6.118768	0.021650	NaN	0.000000	0.001583	0.001699	28.0777	0.079624	0.001904	41.8143	18.8452	-165.55	0.140376	0.116764	-1.569386	-1.570662	0.021650	41.8143	-1.569774	-9.443559E+20	-2.292546E-23	NaN
253	1.000000	0.176061	7.36752e+06	-51289.1	955.818	-29752.6	0.000000	0.000000	6.176785	-0.082756	NaN	0.000000	0.001571	0.001699	28.0766	0.106536	0.002047	52.0359	51.9821	11.1689	-0.038530	0.174706	-1.511365	-1.512720	-0.082756	52.0359	-1.510172	-1.519757E+20	5.445314E-22	NaN
253	1.000000	0.234086	7.36752e+06	-51289.1	955.818	-29752.6	0.000000	0.000000	6.234813	-0.029183	NaN	0.000000	0.001575	0.001713	28.0769	0.041620	0.002044	20.3657	-65.8697	-162.999	-0.048074	0.232808	-1.453339	-1.454618	-0.029183	20.3657	-1.452265	-2.572363E+19	1.134478E-21	NaN
253	1.000000	0.292101	7.36753e+06	-51289.1	955.819	-29752.5	0.000000	0.000000	6.292829	0.023057	NaN	0.000000	0.001596	0.001702	28.0771	0.062310	0.001870	33.3145	-16.9456	14.2688	-0.012069	0.290805	-1.395325	-1.396621	0.023057	33.3145	-1.395844	-4.550185E+18	-5.067279E-21	NaN
253	1.000000	0.350124	7.36753e+06	-51289.1	955.817	-29752.5	0.000000	0.000000	6.350852	-0.004311	NaN	0.000000	0.001614	0.001666	28.0781	0.056939	0.001941	29.3401	52.1089	-163.438	-0.001822	0.348849	-1.337301	-1.338577	-0.004311	29.3401	-1.337191	-7.502495E+17	5.745992E-21	NaN
253	1.000000	0.408184	7.36753e+06	-51289.1	955.819	-29752.5	0.000000	0.000000	6.408912	0.018983	NaN	0.000000	0.001651	0.001735	28.0782	0.028275	0.002079	13.6013	96.9613	18.67	0.041073	0.406830	-1.279242	-1.280595	0.018983	13.6013	-1.280288	-1.302991E+17	-1.456917E-19	NaN
253	1.000000	0.466210	7.36753e+06	-51289.1	955.818	-29752.5	0.000000	0.000000	6.466940	0.071095	NaN	0.000000	0.001552	0.001696	28.0769	0.106573	0.002039	52.2607	-11.4419	-165.834	0.014369	0.464906	-1.221216	-1.222520	0.071095	52.2607	-1.222236	-2.179881E+16	-3.261412E-18	NaN
253	1.000000	0.524219	7.36753e+06	-51289.1	955.819	-29752.5	0.000000	0.000000	6.524949	0.063950	NaN	0.000000	0.001568	0.001692	28.0767	0.134672	0.002041	65.9729	-139.32	17.2024	0.013574	0.522865	-1.163207	-1.164560	0.063950	65.9729	-1.163934	-3.610747E+15	-1.771109E-17	NaN
253	1.000000	0.582260	7.36753e+06	-51289.1	955.817	-29752.5	0.000000	0.000000	6.582985	-0.045224	NaN	0.000000	0.001566	0.001654	28.0779	0.094607	0.002072	45.6612	114.803	-167.063	-0.032562	0.580954	-1.105166	-1.106472	-0.045224	45.6612	-1.104423	-5.746971E+14	7.869190E-17	NaN
253	1.000000	0.640261	7.36753e+06	-51289.1	955.818	-29752.5	0.000000	0.000000	6.640989	0.035579	NaN	0.000000	0.001563	0.001724	28.0779	0.098194	0.001851	53.0486	26.2944	14.3712	0.003207	0.638918	-1.047165	-1.048508	0.035579	53.0486	-1.047668	-9.932701E+13	-3.581991E-16	NaN
253	1.000000	0.698293	7.36753e+06	-51289.1	955.818	-29752.5	0.000000	0.000000	6.699019	-0.040171	NaN	0.000000	0.001558	0.001701	28.078	0.071111	0.002061	34.4979	44.1739	-166.691	-0.035994	0.697027	-0.989133	-0.990399	-0.040171	34.4979	-0.988259	-1.576413E+13	2.548275E-15	NaN
253	1.000000	0.756278	7.36753e+06	-51289.1	955.818	-29752.5	0.000000	0.000000	6.757006	-0.002888	NaN	0.000000	0.001593	0.001698	28.0764	0.016879	0.001950	8.657128	-93.1527	16.002	0.005933	0.754968	-0.931148	-0.932458	-0.002888	8.657128	-0.930897	-2.656485E+12	1.087286E-15	NaN
253	1.000000	0.814351	7.36753e+06	-51289.1	955.819	-29752.5	0.000000	0.000000	6.815079	0.017716	NaN	0.000000	0.001583	0.001708	28.0765	0.108313	0.001912	56.6353	-104.901	-165.196	0.012329	0.813025	-0.873075	-0.874400	0.017716	56.6353	-0.873310	-4.428121E+11	-4.000691E-14	NaN
253	1.000000	0.872342	7.36753e+06	-51289.1	955.818	-29752.5	0.000000	0.000000	6.873070	0.006684	NaN	0.000000	0.001550	0.001690	28.0775	0.047411	0.002014	23.537	-153.347	13.3014	0.034086	0.871045	-0.815084	-0.816381	0.006684	23.537	-0.815297	-7.251446E+10	-9.218090E-14	NaN
253	1.000000	0.930391	7.36753e+06	-51289.1	955.82	-29752.5	0.000000	0.000000	6.931117	-0.024612	NaN	0.000000	0.001548	0.001724	28.0779	0.091270	0.002132	42.8156	124.416	-164.538	0.067337	0.929070	-0.757035	-0.758356	-0.024612	42.8156	-0.756604	-1.156364E+10	2.128435E-12	NaN
253	1.000000	0.988408	7.36753e+06	-51289.1	955.819	-29752.5	0.000000	0.000000	6.989135	-0.001360	NaN	0.000000	0.001550	0.001645	28.0765	0.046740	0.001920	24.3434	4.394265	12.9676	-0.015045	0.987018	-0.699018	-0.700408	-0.001360	24.3434	-0.698976	-1.894726E+9	7.176045E-13	NaN
253	1.000000	1.046441	7.36753e+06	-51289.1	955.818	-29752.5	0.000000	0.000000	7.047170	0.024821	NaN	0.000000	0.001569	0.001653	28.0765	0.025851	0.002050	12.61	-63.1158	-164.238	0.052605	1.045120	-0.640985	-0.642306	0.024821	12.61	-0.642461	-3.191908E+8	-7.776285E-11	NaN
253	1.000000	1.104469	7.36753e+06	-51289.1	955.819	-29752.5	0.000000	0.000000	7.105196	-0.012196	NaN	0.000000	0.001621	0.001645	28.0767	0.098071	0.002022	48.5079	-55.0916	13.0805	0.001316	1.103126	-0.582957	-0.584300	-0.012196	48.5079	-0.582768	-4.818684E+7	2.530950E-10	NaN
253	1.000000	1.162470	7.36753e+06	-51289.1	955.82	-29752.5	0.000000	0.000000	7.163197	-0.012438	NaN	0.000000	0.001609	0.001664	28.0779	0.075635	0.001878	40.2812	-17.916	-162.408	-0.068412	1.161161	-0.524956	-0.526265	-0.012438	40.2812	-0.524724	-7.57318e+06	1.642402E-9	NaN
253	1.000000	1.220489	7.36753e+06	-51289.1	955.818	-29752.5	0.000000	0.000000	7.221216	-0.000844	NaN	0.000000	0.001512	0.001690	28.078	0.137540	0.001960	70.1813	105.574	15.4623	0.032414	1.219170	-0.466937	-0.468256	-0.000844	70.1813	-0.466928	-1.18115e+06	7.149626E-10	NaN
253	1.000000	1.278529	7.36753e+06	-51289.1	955.819	-29752.5	0.000000	0.000000	7.279255	-0.028827	NaN	0.000000	0.001510	0.001706	28.0765	0.165028	0.001942	84.9721	21.7796	-167.744	-0.066900	1.277239	-0.408897	-0.410187	-0.028827	84.9721	-0.408643	-177457	1.624458E-7	NaN
253	1.000000	1.336564	7.36753e+06	-51289.1	955.82	-29752.5	0.000000	0.000000	7.337292	0.011965	NaN	0.000000	0.001606	0.001707	28.0769	0.034917	0.001920	18.1868	166.566	12.5909	-0.043769	1.335176	-0.350862	-0.352250	0.011965	18.1868	-0.351355	-26709.3	-4.479578E-7	NaN
253	1.000000	1.394581	7.36753e+06	-51289.1	955.82	-29752.5	0.000000	0.000000	7.395306	-0.062254	NaN	0.000000	0.001628	0.001686	28.0782	0.056906	0.002082	27.3386	-22.9374	-165.789	-0.002179	1.393284	-0.292844	-0.294141	-0.062254	27.3386	-0.291137	-3469.95	1.794085E-5	NaN
253	1.000000	1.452626	7.36753e+06	-51289.1	955.821	-29752.5	0.000000	0.000000	7.453353	-0.008610	NaN	0.000000	0.001579	0.001720	28.078	0.072307	0.002090	34.6031	107.339	17.2304	0.027126	1.451238	-0.234800	-0.236187	-0.008610	34.6031	-0.234613	-473.339	1.819054E-5	NaN
253	1.000000	1.510625	7.36753e+06	-51289.1	955.82	-29752.5	0.000000	0.000000	7.511349	-0.073273	NaN	0.000000	0.001595	0.001684	28.0784	0.065544	0.001907	34.3694	-162.071	-163.916	-0.042759	1.509341	-0.176801	-0.178085	-0.073273	34.3694	-0.175202	-50.5188	0.001450	NaN
253	1.000000	1.568678	7.36753e+06	-51289.1	955.82	-29752.5	0.000000	0.000000	7.569402	-0.069726	NaN	0.000000	0.001626	0.001708	28.0769	0.102959	0.001938	53.1318	-23.9925	12.7965	-0.184847	1.567339	-0.118748	-0.120087	-0.069726	53.1318	-0.117764	-4.352499	0.016020	NaN
253	1.000000	1.626683	7.36753e+06	-51289.1	955.821	-29752.5	0.000000	0.000000	7.627409	-0.039515	NaN	0.000000	0.001567	0.001730	28.0768	0.172561	0.001985	86.9455	173.543	-165.528	-0.005866	1.625341	-0.060743	-0.062085	-0.039515	86.9455	-0.060402	-0.184932	0.213674	NaN
253	1.000000	1.684709	7.36753e+06	-51289.1	955.822	-29752.5	0.000000	0.000000	7.685438	0.054598	NaN	0.000000	0.001572	0.001696	28.0781	0.028948	0.001992	14.5306	84.5147	12.7678	-0.032294	1.683372	-0.002717	-0.004054	0.054598	14.5306	-0.005535	-0.003750	-14.5575	NaN
253	2.000000	1.708159	7.36753e+06	-51289.1	955.822	-29752.5	0.000000	0.000000	7.710174	31.3234	NaN	0.000000	0.001600	0.001649	28.0781	20.5473	0.001776	11571.9	1.439195	-172.552	31.546	1.707761	0.020733	0.020335	31.3234	11571.9	0.018703	0.020545	1524.62	73760.5
253	2.000000	1.722590	7.36753e+06	-51289.1	955.822	-29752.5	0.000000	0.000000	7.726160	69.1387	NaN	0.000000	0.001532	0.001672	28.0768	33.0287	0.001699	19441.8	2.241285	1.712094	66.3434	1.722296	0.035164	0.034870	69.1387	19441.8	0.032497	0.046077	1500.49	82749.8
253	2.000000	1.737127	7.36753e+06	-51289.1	955.822	-29752.5	0.000000	0.000000	7.742850	121.468	NaN	0.000000	0.001551	0.001652	28.0769	44.8268	0.001685	26608.9	4.159838	178.565	123.951	1.736716	0.049702	0.049291	121.468	26608.9	0.046278	0.081257	1494.86	85284.5
253	2.000000	1.751600	7.36753e+06	-51289.1	955.822	-29752.5	0.000000	0.000000	7.759807	181.892	NaN	0.000000	0.001477	0.001669	28.0774	58.6595	0.001755	33418.8	4.882584	-5.442959	182.145	1.751321	0.064174	0.063896	181.892	33418.8	0.060092	0.126139	1442	85968.7
253	2.000000	1.766088	7.36753e+06	-51289.1	955.822	-29752.5	0.000000	0.000000	7.777809	267.351	NaN	0.000000	0.001626	0.001648	28.0783	71.8159	0.001834	39153.6	2.223361	176.905	269.761	1.765715	0.078662	0.078289	267.351	39153.6	0.073541	0.178788	1495.35	84601.1
253	2.000000	1.780523	7.36753e+06	-51289.1	955.821	-29752.5	0.000000	0.000000	7.796285	365.587	NaN	0.000000	0.001593	0.001649	28.0785	84.9364	0.001849	45933.8	5.297934	-7.393234	365.375	1.780208	0.093098	0.092782	365.587	45933.8	0.087128	0.240659	1519.11	85547
253	2.000000	1.794949	7.36753e+06	-51289.1	955.822	-29752.5	0.000000	0.000000	7.814963	468.98	NaN	0.000000	0.001533	0.001688	28.0773	96.0681	0.001846	52046.1	2.293418	174.386	464.079	1.794591	0.107524	0.107166	468.98	52046.1	0.100765	0.311309	1506.48	85224.7

File: 2025-07-22_16-23-58_1_254.txt
2025-07-22, 16:23:58, 1
Index	Phase	Displacement	Time	Pos X	Pos Y	Pos Z	Rot A	Rot B	Piezo Z	Force A	Force B	Gripper	Voltage A	Voltage B	Temperature	Amplitude force	Amplitude pos	Stiffness	Phase shift	Phase excitation	Force A raw	Displacement raw	HMax	HMax raw	Real Force	Real Stiffness	Contact Depth	Area	Hardness	Reduced Mod.
[#]	[#]	[um]	[s]	[um]	[um]	[um]	[m°]	[m°]	[um]	[uN]	[uN]	[V]	[V]	[V]	[°C]	[uN]	[um]	[N/m]	[°]	[°]	[uN]	[um]	[um]	[um]	[uN]	[N/m]	[um]	[um^2]	[MPa]	[MPa]
254	1.000000	0.002560	7.36754e+06	-51339.1	955.82	-29752.9	0.000000	0.000000	6.002784	-0.044032	NaN	0.000000	0.001537	0.001694	28.0805	0.123180	0.000908	135.718	158.688	-164.653	0.032509	0.001320	-1.122067	-1.123307	-0.044032	135.718	-1.121824	-9.838685E+14	4.475357E-17	NaN
254	1.000000	0.044488	7.36754e+06	-51339.1	955.819	-29752.9	0.000000	0.000000	6.044714	0.017170	NaN	0.000000	0.001593	0.001642	28.0802	0.054174	0.002043	26.5126	151.549	17.4211	0.030812	0.043167	-1.080139	-1.081460	0.017170	26.5126	-1.080625	-2.753673E+14	-6.235173E-17	NaN
254	1.000000	0.086506	7.36754e+06	-51339.1	955.82	-29752.9	0.000000	0.000000	6.086733	0.039420	NaN	0.000000	0.001586	0.001634	28.0789	0.046673	0.002067	22.5824	70.4967	-166.095	0.033386	0.085250	-1.038121	-1.039377	0.039420	22.5824	-1.039430	-7.696637E+13	-5.121759E-16	NaN
254	1.000000	0.128533	7.36754e+06	-51339.1	955.819	-29752.9	0.000000	0.000000	6.128759	0.018862	NaN	0.000000	0.001626	0.001709	28.0791	0.103690	0.001955	53.0267	-51.9808	12.6332	-0.022600	0.127213	-0.996094	-0.997414	0.018862	53.0267	-0.996361	-2.026603E+13	-9.306965E-16	NaN
254	1.000000	0.170547	7.36754e+06	-51339.1	955.819	-29752.9	0.000000	0.000000	6.170774	0.033492	NaN	0.000000	0.001571	0.001697	28.079	0.055387	0.002099	26.3886	150.274	-163.949	0.067149	0.169245	-0.954080	-0.955382	0.033492	26.3886	-0.955032	-5.621860E+12	-5.957428E-15	NaN
254	1.000000	0.212615	7.36754e+06	-51339.1	955.818	-29752.9	0.000000	0.000000	6.212839	-0.043613	NaN	0.000000	0.001544	0.001731	28.079	0.084705	0.001958	43.2599	-101.997	12.8851	-0.084579	0.211221	-0.912012	-0.913405	-0.043613	43.2599	-0.911256	-1.442521E+12	3.023388E-14	NaN
254	1.000000	0.254635	7.36754e+06	-51339.1	955.817	-29752.9	0.000000	0.000000	6.254859	-0.032505	NaN	0.000000	0.001550	0.001682	28.0802	0.120501	0.002033	59.2631	135.21	-166.068	-0.052771	0.253277	-0.869992	-0.871350	-0.032505	59.2631	-0.869580	-3.942453E+11	8.244849E-14	NaN
254	1.000000	0.296626	7.36754e+06	-51339.1	955.82	-29752.9	0.000000	0.000000	6.296853	0.023993	NaN	0.000000	0.001566	0.001691	28.0803	0.047240	0.001901	24.8435	128.736	14.0791	-0.024035	0.295202	-0.828001	-0.829425	0.023993	24.8435	-0.828725	-1.102817E+11	-2.175630E-13	NaN
254	1.000000	0.338612	7.36754e+06	-51339.1	955.818	-29752.9	0.000000	0.000000	6.338840	0.081578	NaN	0.000000	0.001580	0.001702	28.0803	0.051471	0.002103	24.4802	-49.0861	-169.424	0.092175	0.337341	-0.786015	-0.787286	0.081578	24.4802	-0.788515	-3.139860E+10	-2.598136E-12	NaN
254	1.000000	0.380677	7.36754e+06	-51339.1	955.819	-29752.9	0.000000	0.000000	6.380899	-0.077362	NaN	0.000000	0.001635	0.001671	28.0791	0.024754	0.002075	11.9316	97.7172	11.9706	-0.023666	0.379293	-0.743950	-0.745334	-0.077362	11.9316	-0.739088	-6.677718E+9	1.158511E-11	NaN
254	1.000000	0.422669	7.36754e+06	-51339.1	955.818	-29752.9	0.000000	0.000000	6.422895	0.011202	NaN	0.000000	0.001561	0.001715	28.079	0.049656	0.002047	24.2532	-100.413	-161.737	0.031857	0.421388	-0.701958	-0.703239	0.011202	24.2532	-0.702304	-2.103740E+9	-5.324644E-12	NaN
254	1.000000	0.464688	7.36754e+06	-51339.1	955.818	-29752.9	0.000000	0.000000	6.464914	0.009688	NaN	0.000000	0.001555	0.001683	28.0791	0.097458	0.001856	52.5074	-122.145	12.6712	0.005614	0.463333	-0.659939	-0.661294	0.009688	52.5074	-0.660077	-5.565736E+8	-1.740654E-11	NaN
254	1.000000	0.506688	7.36754e+06	-51339.1	955.819	-29752.9	0.000000	0.000000	6.506914	0.017566	NaN	0.000000	0.001564	0.001671	28.0803	0.068106	0.001989	34.2358	53.323	-168.575	-0.004604	0.505382	-0.617939	-0.619245	0.017566	34.2358	-0.618324	-1.487964E+8	-1.180560E-10	NaN
254	1.000000	0.548746	7.36754e+06	-51339.1	955.82	-29752.9	0.000000	0.000000	6.548972	0.006262	NaN	0.000000	0.001557	0.001686	28.0804	0.122187	0.002076	58.8549	159.551	13.3539	0.026153	0.547370	-0.575881	-0.577257	0.006262	58.8549	-0.575961	-3.881199E+7	-1.613300E-10	NaN
254	1.000000	0.590767	7.36754e+06	-51339.1	955.818	-29752.9	0.000000	0.000000	6.590994	0.035628	NaN	0.000000	0.001610	0.001742	28.0809	0.025700	0.002001	12.8464	-89.6512	-168.586	0.065543	0.589442	-0.533860	-0.535185	0.035628	12.8464	-0.535940	-1.084004E+7	-3.286664E-9	NaN
254	1.000000	0.632752	7.36754e+06	-51339.1	955.819	-29752.9	0.000000	0.000000	6.632979	0.044655	NaN	0.000000	0.001641	0.001675	28.0793	0.049528	0.001961	25.2529	149.574	11.7324	-0.002303	0.631406	-0.491875	-0.493221	0.044655	25.2529	-0.493201	-2.75496e+06	-1.620899E-8	NaN
254	1.000000	0.674792	7.36754e+06	-51339.1	955.819	-29752.9	0.000000	0.000000	6.675021	0.091490	NaN	0.000000	0.001553	0.001720	28.0793	0.066406	0.002001	33.1869	-78.9606	-167.873	0.157167	0.673493	-0.449835	-0.451134	0.091490	33.1869	-0.451903	-726331	-1.259612E-7	NaN
254	1.000000	0.716821	7.36754e+06	-51339.1	955.818	-29752.9	0.000000	0.000000	6.717047	0.019872	NaN	0.000000	0.001580	0.001724	28.0793	0.064088	0.002026	31.6256	22.9131	14.7071	-0.017312	0.715458	-0.407806	-0.409169	0.019872	31.6256	-0.408277	-175346	-1.133310E-7	NaN
254	1.000000	0.758833	7.36754e+06	-51339.1	955.819	-29752.9	0.000000	0.000000	6.759059	0.025487	NaN	0.000000	0.001627	0.001686	28.079	0.027085	0.002043	13.2605	-173.831	-163.133	0.080051	0.757510	-0.365794	-0.367117	0.025487	13.2605	-0.367236	-45321.1	-5.623662E-7	NaN
254	1.000000	0.800822	7.36754e+06	-51339.1	955.818	-29752.9	0.000000	0.000000	6.801045	-0.056474	NaN	0.000000	0.001669	0.001722	28.0808	0.120636	0.002064	58.4455	120.266	12.6734	-0.000669	0.799487	-0.323805	-0.325140	-0.056474	58.4455	-0.323080	-10326.2	5.468989E-6	NaN
254	1.000000	0.842858	7.36754e+06	-51339.1	955.818	-29752.9	0.000000	0.000000	6.843085	0.034963	NaN	0.000000	0.001633	0.001684	28.0807	0.091635	0.002117	43.276	-91.7854	-166.06	0.016465	0.841579	-0.281769	-0.283048	0.034963	43.276	-0.282375	-2563.11	-1.364085E-5	NaN
254	1.000000	0.884838	7.36754e+06	-51339.1	955.819	-29752.9	0.000000	0.000000	6.885062	-0.019329	NaN	0.000000	0.001602	0.001693	28.0804	0.048057	0.002060	23.327	-121.897	15.6949	-0.031506	0.883471	-0.239789	-0.241156	-0.019329	23.327	-0.239168	-557.892	3.464741E-5	NaN
254	1.000000	0.926886	7.36754e+06	-51339.1	955.818	-29752.9	0.000000	0.000000	6.927114	0.052633	NaN	0.000000	0.001599	0.001692	28.0792	0.067780	0.001982	34.1912	122.732	-164.624	-0.000384	0.925583	-0.197741	-0.199044	0.052633	34.1912	-0.198895	-126.336	-0.000417	NaN
254	1.000000	0.968918	7.36754e+06	-51339.1	955.819	-29752.9	0.000000	0.000000	6.969143	-0.031784	NaN	0.000000	0.001647	0.001691	28.0792	0.069294	0.002118	32.7225	115.545	15.278	0.049538	0.967556	-0.155709	-0.157071	-0.031784	32.7225	-0.154980	-22.2957	0.001426	NaN
254	1.000000	1.010919	7.36754e+06	-51339.1	955.818	-29752.9	0.000000	0.000000	7.011144	-0.027455	NaN	0.000000	0.001656	0.001698	28.0793	0.014359	0.002046	7.019901	103.62	-165.947	-0.039783	1.009634	-0.113708	-0.114993	-0.027455	7.019901	-0.110774	-3.120122	0.008799	NaN
254	1.000000	1.052915	7.36754e+06	-51339.1	955.818	-29752.9	0.000000	0.000000	7.053139	-0.036106	NaN	0.000000	0.001651	0.001679	28.0808	0.055428	0.001853	29.9088	-9.985070	15.2317	0.063451	1.051595	-0.071712	-0.073032	-0.036106	29.9088	-0.070807	-0.358465	0.100724	NaN
254	1.000000	1.094960	7.36754e+06	-51339.1	955.819	-29752.9	0.000000	0.000000	7.095182	-0.065475	NaN	0.000000	0.001626	0.001690	28.0806	0.025287	0.002159	11.7137	175.094	-167.205	-0.007632	1.093661	-0.029667	-0.030966	-0.065475	11.7137	-0.025475	-0.017361	3.771468	NaN
254	2.000000	1.136012	7.36754e+06	-51339.1	955.819	-29752.9	0.000000	0.000000	7.136578	8.278715	NaN	0.000000	0.001628	0.001640	28.0806	9.045335	0.001723	5250.1	10.5471	3.957746	8.010495	1.135417	0.011385	0.010790	8.278715	5250.1	0.010202	0.009407	880.029	49454.7
254	2.000000	1.146441	7.36754e+06	-51339.1	955.819	-29752.9	0.000000	0.000000	7.147759	26.5639	NaN	0.000000	0.001675	0.001663	28.0792	21.2606	0.001851	11486.8	6.337097	-178.489	25.9514	1.146166	0.021814	0.021539	26.5639	11486.8	0.020080	0.022668	1171.89	69705.7
254	2.000000	1.156926	7.36754e+06	-51339.1	955.818	-29752.9	0.000000	0.000000	7.159260	51.2813	NaN	0.000000	0.001583	0.001691	28.0789	31.6023	0.001869	16906.4	5.629814	-1.467305	50.2074	1.156545	0.032299	0.031918	51.2813	16906.4	0.030024	0.040793	1257.1	76476.7
254	2.000000	1.167343	7.36754e+06	-51339.1	955.818	-29752.9	0.000000	0.000000	7.171204	88.4005	NaN	0.000000	0.001610	0.001709	28.0791	42.3263	0.001819	23272.8	4.380190	176.509	86.8515	1.167113	0.042716	0.042486	88.4005	23272.8	0.039867	0.063685	1388.08	84256.2
254	2.000000	1.177960	7.36754e+06	-51339.1	955.818	-29752.9	0.000000	0.000000	7.183764	135.637	NaN	0.000000	0.001634	0.001667	28.0791	51.2798	0.001735	29551.4	8.980268	-8.333121	138.316	1.177439	0.053333	0.052812	135.637	29551.4	0.049891	0.092077	1473.08	88976.6
254	2.000000	1.188466	7.36754e+06	-51339.1	955.819	-29752.9	0.000000	0.000000	7.196479	189.369	NaN	0.000000	0.001663	0.001679	28.0813	63.6955	0.001847	34484.3	5.997877	173.06	191.103	1.188051	0.063839	0.063424	189.369	34484.3	0.059720	0.124807	1517.3	89181.8
254	2.000000	1.198875	7.36754e+06	-51339.1	955.818	-29752.9	0.000000	0.000000	7.209853	261.482	NaN	0.000000	0.001645	0.001709	28.0804	73.7465	0.001730	42627.6	4.734500	-7.471920	261.013	1.198438	0.074248	0.073811	261.482	42627.6	0.069647	0.162656	1607.58	96567.2
254	2.000000	1.209356	7.36754e+06	-51339.1	955.819	-29752.9	0.000000	0.000000	7.223298	333.52	NaN	0.000000	0.001667	0.001689	28.0805	83.3309	0.001673	49803	0.879074	174.532	332.097	1.209019	0.084729	0.084392	333.52	49803	0.079707	0.205800	1620.6	100301
254	2.000000	1.219761	7.36754e+06	-51339.1	955.818	-29752.9	0.000000	0.000000	7.237283	420.604	NaN	0.000000	0.001650	0.001637	28.0794	93.2166	0.001792	52017.7	3.514019	-7.703920	413.25	1.219337	0.095134	0.094710	420.604	52017.7	0.089070	0.250197	1681.09	95013.1
254	2.000000	1.230272	7.36754e+06	-51339.1	955.818	-29752.9	0.000000	0.000000	7.251880	519.945	NaN	0.000000	0.001556	0.001701	28.0793	103.4	0.001779	58136	3.799663	171.618	516.823	1.229929	0.105645	0.105302	519.945	58136	0.098938	0.301347	1725.4	96757.6
254	2.000000	1.234229	7.36754e+06	-51339.1	955.818	-29752.9	0.000000	0.000000	7.257278	554.981	NaN	0.000000	0.001568	0.001634	28.0792	106.688	0.001684	63343.3	1.827199	172.238	549.437	1.233965	0.109603	0.109338	554.981	63343.3	0.103031	0.323870	1713.59	101693