Folder: unikorn_login/remote_trans/data/nanoindenter/0828-1/data/Data_2025-08-06,11h17m57s (part 155)

File: 2025-07-22_16-23-58_1_327.txt
2025-07-22, 16:23:58, 1
Index	Phase	Displacement	Time	Pos X	Pos Y	Pos Z	Rot A	Rot B	Piezo Z	Force A	Force B	Gripper	Voltage A	Voltage B	Temperature	Amplitude force	Amplitude pos	Stiffness	Phase shift	Phase excitation	Force A raw	Displacement raw	HMax	HMax raw	Real Force	Real Stiffness	Contact Depth	Area	Hardness	Reduced Mod.
[#]	[#]	[um]	[s]	[um]	[um]	[um]	[m°]	[m°]	[um]	[uN]	[uN]	[V]	[V]	[V]	[°C]	[uN]	[um]	[N/m]	[°]	[°]	[uN]	[um]	[um]	[um]	[uN]	[N/m]	[um]	[um^2]	[MPa]	[MPa]
327	1.000000	0.002801	7.36826e+06	-54989.1	955.819	-29742.7	0.000000	0.000000	6.002780	-0.026212	NaN	0.000000	0.001590	0.001604	28.0807	0.160908	0.000955	168.424	-169.03	-162.323	-0.033336	0.001576	-1.153990	-1.155214	-0.026212	168.424	-1.153873	-2.646904E+15	9.902827E-18	NaN
327	1.000000	0.046769	7.36826e+06	-54989.1	955.818	-29742.7	0.000000	0.000000	6.046748	-0.023403	NaN	0.000000	0.001609	0.001666	28.0808	0.085707	0.001968	43.5459	143.721	-164.732	-0.013230	0.045435	-1.110021	-1.111355	-0.023403	43.5459	-1.109618	-6.747772E+14	3.468209E-17	NaN
327	1.000000	0.090803	7.36826e+06	-54989.1	955.819	-29742.7	0.000000	0.000000	6.090781	-0.057835	NaN	0.000000	0.001587	0.001657	28.079	0.087255	0.002130	40.9706	4.460247	-164.31	-0.029033	0.089427	-1.065987	-1.067363	-0.057835	40.9706	-1.064929	-1.694542E+14	3.413003E-16	NaN
327	1.000000	0.134789	7.36826e+06	-54989.1	955.819	-29742.7	0.000000	0.000000	6.134767	-0.052515	NaN	0.000000	0.001640	0.001729	28.0791	0.063910	0.001875	34.0823	98.5887	-162.975	-0.006693	0.133460	-1.022001	-1.023331	-0.052515	34.0823	-1.020845	-4.328400E+13	1.213261E-15	NaN
327	1.000000	0.178845	7.36826e+06	-54989.1	955.819	-29742.7	0.000000	0.000000	6.178823	-0.055355	NaN	0.000000	0.001604	0.001699	28.0792	0.018233	0.002002	9.109108	113.63	-166.449	-0.025555	0.177507	-0.977945	-0.979283	-0.055355	9.109108	-0.973387	-9.938331E+12	5.569856E-15	NaN
327	1.000000	0.222824	7.36826e+06	-54989.1	955.82	-29742.7	0.000000	0.000000	6.222804	0.010517	NaN	0.000000	0.001629	0.001683	28.0804	0.014709	0.001928	7.627466	-90.7428	-166.183	-0.049140	0.221523	-0.933966	-0.935267	0.010517	7.627466	-0.935000	-3.017720E+12	-3.485011E-15	NaN
327	1.000000	0.266855	7.36826e+06	-54989.1	955.819	-29742.7	0.000000	0.000000	6.266832	-0.080980	NaN	0.000000	0.001584	0.001698	28.0802	0.105959	0.002062	51.3755	92.7598	-168.147	-0.057197	0.265564	-0.889935	-0.891226	-0.080980	51.3755	-0.888753	-7.162385E+11	1.130628E-13	NaN
327	1.000000	0.310894	7.36826e+06	-54989.1	955.819	-29742.7	0.000000	0.000000	6.310875	0.034923	NaN	0.000000	0.001565	0.001697	28.08	0.054404	0.001922	28.3033	53.696	-167.147	0.028937	0.309620	-0.845896	-0.847171	0.034923	28.3033	-0.846822	-1.939535E+11	-1.800607E-13	NaN
327	1.000000	0.354886	7.36826e+06	-54989.1	955.82	-29742.7	0.000000	0.000000	6.354865	-0.020257	NaN	0.000000	0.001667	0.001659	28.079	0.042875	0.001913	22.4123	-49.1789	-167.079	0.054349	0.353575	-0.801905	-0.803215	-0.020257	22.4123	-0.801227	-4.672126E+10	4.335770E-13	NaN
327	1.000000	0.398887	7.36826e+06	-54989.1	955.818	-29742.7	0.000000	0.000000	6.398866	-0.027380	NaN	0.000000	0.001684	0.001670	28.079	0.114370	0.001916	59.6896	25.018	-164.674	-0.026785	0.397632	-0.757903	-0.759158	-0.027380	59.6896	-0.757559	-1.191511E+10	2.297959E-12	NaN
327	1.000000	0.442956	7.36826e+06	-54989.1	955.819	-29742.7	0.000000	0.000000	6.442936	-0.001226	NaN	0.000000	0.001682	0.001657	28.0791	0.025795	0.002089	12.3509	-69.9037	-165.171	-0.052483	0.441645	-0.713834	-0.715145	-0.001226	12.3509	-0.713760	-3.015433E+9	4.066587E-13	NaN
327	1.000000	0.486973	7.36827e+06	-54989.1	955.818	-29742.7	0.000000	0.000000	6.486951	-0.037174	NaN	0.000000	0.001675	0.001653	28.0804	0.051762	0.001957	26.4558	-135.379	-161.256	-0.055626	0.485598	-0.669817	-0.671192	-0.037174	26.4558	-0.668764	-7.319270E+8	5.078866E-11	NaN
327	1.000000	0.530980	7.36827e+06	-54989.1	955.819	-29742.7	0.000000	0.000000	6.530964	0.092425	NaN	0.000000	0.001705	0.001651	28.0804	0.090809	0.001977	45.9222	-176.166	-166.584	-0.026009	0.529658	-0.625810	-0.627132	0.092425	45.9222	-0.627319	-1.977917E+8	-4.672870E-10	NaN
327	1.000000	0.575010	7.36827e+06	-54989.1	955.818	-29742.7	0.000000	0.000000	6.574987	-0.064887	NaN	0.000000	0.001678	0.001639	28.0802	0.107112	0.001957	54.7301	-88.125	-166.545	-0.102765	0.573705	-0.581781	-0.583085	-0.064887	54.7301	-0.580891	-4.539722E+7	1.429324E-9	NaN
327	1.000000	0.618996	7.36827e+06	-54989.1	955.818	-29742.7	0.000000	0.000000	6.618972	-0.106216	NaN	0.000000	0.001730	0.001681	28.0793	0.050390	0.001978	25.4701	-169.513	-168.09	-0.105789	0.617674	-0.537794	-0.539116	-0.106216	25.4701	-0.534666	-1.040775E+7	1.020544E-8	NaN
327	1.000000	0.663040	7.36827e+06	-54989.1	955.818	-29742.7	0.000000	0.000000	6.663018	-0.039024	NaN	0.000000	0.001668	0.001677	28.079	0.094542	0.001908	49.5475	39.4838	-163.326	0.002668	0.661684	-0.493751	-0.495106	-0.039024	49.5475	-0.493160	-2.7513e+06	1.418376E-8	NaN
327	1.000000	0.707017	7.36827e+06	-54989.1	955.82	-29742.7	0.000000	0.000000	6.706999	0.053567	NaN	0.000000	0.001660	0.001697	28.0789	0.052536	0.002107	24.9367	78.6797	-164.333	0.005904	0.705698	-0.449774	-0.451092	0.053567	24.9367	-0.451385	-714234	-7.499947E-8	NaN
327	1.000000	0.751078	7.36827e+06	-54989.1	955.818	-29742.7	0.000000	0.000000	6.751057	-0.035904	NaN	0.000000	0.001644	0.001661	28.08	0.103856	0.002105	49.3483	146.589	-165.889	0.001246	0.749663	-0.405712	-0.407128	-0.035904	49.3483	-0.405166	-158349	2.267413E-7	NaN
327	1.000000	0.795079	7.36827e+06	-54989.1	955.819	-29742.7	0.000000	0.000000	6.795058	-0.013119	NaN	0.000000	0.001687	0.001685	28.0803	0.092811	0.001865	49.7692	167.091	-164.744	0.037982	0.793732	-0.361712	-0.363059	-0.013119	49.7692	-0.361514	-37473.4	3.500756E-7	NaN
327	1.000000	0.839114	7.36827e+06	-54989.1	955.818	-29742.7	0.000000	0.000000	6.839093	-0.026732	NaN	0.000000	0.001708	0.001681	28.0808	0.046598	0.002047	22.7655	-16.8256	-165.965	0.023205	0.837760	-0.317676	-0.319030	-0.026732	22.7655	-0.316796	-8345.12	3.203286E-6	NaN
327	1.000000	0.883114	7.36827e+06	-54989.1	955.819	-29742.7	0.000000	0.000000	6.883091	-0.076443	NaN	0.000000	0.001692	0.001645	28.0793	0.114431	0.001902	60.1731	24.3198	-163.592	-0.104182	0.881879	-0.273676	-0.274911	-0.076443	60.1731	-0.272724	-1831.89	4.172882E-5	NaN
327	1.000000	0.927158	7.36827e+06	-54989.1	955.818	-29742.7	0.000000	0.000000	6.927135	-0.078774	NaN	0.000000	0.001754	0.001688	28.0792	0.033040	0.001925	17.1617	93.7786	-166.597	-0.064886	0.925800	-0.229632	-0.230990	-0.078774	17.1617	-0.226190	-348.51	0.000226	NaN
327	1.000000	0.971170	7.36827e+06	-54989.1	955.82	-29742.7	0.000000	0.000000	6.971146	-0.098677	NaN	0.000000	0.001710	0.001680	28.0794	0.057519	0.002156	26.6774	93.9899	-167.227	-0.151697	0.969894	-0.185620	-0.186896	-0.098677	26.6774	-0.182846	-68.1958	0.001447	NaN
327	1.000000	1.015206	7.36827e+06	-54989.1	955.819	-29742.7	0.000000	0.000000	7.015186	0.003889	NaN	0.000000	0.001734	0.001704	28.0805	0.119792	0.001822	65.7637	-93.0557	-163.336	-0.004504	1.013851	-0.141585	-0.142939	0.003889	65.7637	-0.141629	-12.6908	-0.000306	NaN
327	1.000000	1.059203	7.36827e+06	-54989.1	955.817	-29742.7	0.000000	0.000000	7.059179	-0.093140	NaN	0.000000	0.001739	0.001664	28.0806	0.031025	0.002066	15.0143	169.788	-166.57	-0.115462	1.057850	-0.097587	-0.098940	-0.093140	15.0143	-0.092935	-1.264966	0.073631	NaN
327	1.000000	1.103218	7.36827e+06	-54989.1	955.819	-29742.7	0.000000	0.000000	7.103196	-0.057139	NaN	0.000000	0.001796	0.001667	28.0806	0.104006	0.002099	49.5415	-121.088	-165.881	-0.124493	1.101907	-0.053572	-0.054883	-0.057139	49.5415	-0.052707	-0.110070	0.519114	NaN
327	1.000000	1.147238	7.36827e+06	-54989.1	955.817	-29742.7	0.000000	0.000000	7.147217	-0.046448	NaN	0.000000	0.001733	0.001706	28.0797	0.022831	0.002010	11.3594	104.41	-164.4	-0.104150	1.145907	-0.009552	-0.010884	-0.046448	11.3594	-0.006485	-0.004331	10.7242	NaN
327	2.000000	1.172827	7.36827e+06	-54989.1	955.819	-29742.7	0.000000	0.000000	7.173455	15.7575	NaN	0.000000	0.001695	0.001668	28.0792	15.2792	0.001878	8135.18	4.515798	-172.988	15.6708	1.172471	0.016037	0.015681	15.7575	8135.18	0.014584	0.014735	1069.4	61230.3
327	2.000000	1.183806	7.36827e+06	-54989.1	955.817	-29742.7	0.000000	0.000000	7.185547	42.7908	NaN	0.000000	0.001650	0.001676	28.0794	26.3617	0.001730	15240	7.290941	179.045	43.4879	1.183440	0.027016	0.026650	42.7908	15240	0.024910	0.030852	1386.96	79270.9
327	2.000000	1.194775	7.36827e+06	-54989.1	955.818	-29742.7	0.000000	0.000000	7.197818	74.4626	NaN	0.000000	0.001763	0.001662	28.0792	37.2828	0.001863	20009.5	5.686201	178.272	73.8781	1.194380	0.037984	0.037590	74.4626	20009.5	0.035193	0.052197	1426.57	80017.7
327	2.000000	1.205676	7.36827e+06	-54989.1	955.818	-29742.7	0.000000	0.000000	7.210563	119.283	NaN	0.000000	0.001776	0.001646	28.0803	49.1368	0.001783	27561.5	5.020304	175.438	116.004	1.205398	0.048886	0.048607	119.283	27561.5	0.045640	0.079414	1502.04	89356.6
327	2.000000	1.216641	7.36827e+06	-54989.1	955.818	-29742.7	0.000000	0.000000	7.223733	172.899	NaN	0.000000	0.001728	0.001615	28.0803	59.8168	0.001898	31516.8	4.807978	174.22	168.093	1.216503	0.059851	0.059713	172.899	31516.8	0.055736	0.110965	1558.14	86441.7
327	2.000000	1.227678	7.36827e+06	-54989.1	955.819	-29742.7	0.000000	0.000000	7.237587	241.369	NaN	0.000000	0.001755	0.001651	28.0806	68.5774	0.001817	37749.5	3.654691	174.365	239.399	1.227354	0.070888	0.070564	241.369	37749.5	0.066093	0.148557	1624.75	89482.3
327	2.000000	1.238709	7.36827e+06	-54989.1	955.818	-29742.7	0.000000	0.000000	7.251813	319.026	NaN	0.000000	0.001727	0.001614	28.0791	79.1849	0.001813	43667.4	5.182400	171.133	316.236	1.238340	0.081919	0.081549	319.026	43667.4	0.076439	0.191265	1667.98	91224.8
327	2.000000	1.249742	7.36827e+06	-54989.1	955.818	-29742.7	0.000000	0.000000	7.266160	399.597	NaN	0.000000	0.001686	0.001644	28.0789	88.0852	0.001691	52087.5	5.270367	170.286	401.314	1.249377	0.092951	0.092587	399.597	52087.5	0.087198	0.240997	1658.1	96939.6
327	2.000000	1.260668	7.36827e+06	-54989.1	955.817	-29742.7	0.000000	0.000000	7.280863	491.419	NaN	0.000000	0.001679	0.001609	28.0789	99.3308	0.001730	57403.5	3.722930	171.447	492.517	1.260417	0.103878	0.103626	491.419	57403.5	0.097457	0.293391	1674.96	96825.2
327	2.000000	1.265164	7.36827e+06	-54989.1	955.819	-29742.7	0.000000	0.000000	7.286837	527.323	NaN	0.000000	0.001622	0.001637	28.0804	104.821	0.001864	56224.7	5.425678	-9.883324	523.929	1.264687	0.108374	0.107897	527.323	56224.7	0.101340	0.314473	1676.85	91602.9

File: 2025-07-22_16-23-58_1_328.txt
2025-07-22, 16:23:58, 1
Index	Phase	Displacement	Time	Pos X	Pos Y	Pos Z	Rot A	Rot B	Piezo Z	Force A	Force B	Gripper	Voltage A	Voltage B	Temperature	Amplitude force	Amplitude pos	Stiffness	Phase shift	Phase excitation	Force A raw	Displacement raw	HMax	HMax raw	Real Force	Real Stiffness	Contact Depth	Area	Hardness	Reduced Mod.
[#]	[#]	[um]	[s]	[um]	[um]	[um]	[m°]	[m°]	[um]	[uN]	[uN]	[V]	[V]	[V]	[°C]	[uN]	[um]	[N/m]	[°]	[°]	[uN]	[um]	[um]	[um]	[uN]	[N/m]	[um]	[um^2]	[MPa]	[MPa]
328	1.000000	0.002374	7.36827e+06	-55039.1	955.819	-29742.7	0.000000	0.000000	6.002810	-0.038482	NaN	0.000000	0.001753	0.001642	28.0795	0.149962	0.000903	166.117	-5.354621	-169.615	0.042884	0.001119	-1.008679	-1.009934	-0.038482	166.117	-1.008505	-2.952998E+13	1.303146E-15	NaN
328	1.000000	0.040299	7.36827e+06	-55039.1	955.817	-29742.7	0.000000	0.000000	6.040735	-0.021519	NaN	0.000000	0.001796	0.001632	28.0798	0.111469	0.002044	54.5309	172.735	15.6342	0.019911	0.038980	-0.970754	-0.972073	-0.021519	54.5309	-0.970458	-9.074793E+12	2.371329E-15	NaN
328	1.000000	0.078327	7.36827e+06	-55039.1	955.819	-29742.7	0.000000	0.000000	6.078766	0.043344	NaN	0.000000	0.001706	0.001634	28.0791	0.049472	0.002020	24.4943	-150.976	-166.584	0.038018	0.076983	-0.932726	-0.934070	0.043344	24.4943	-0.934054	-2.930230E+12	-1.479206E-14	NaN
328	1.000000	0.116320	7.36827e+06	-55039.1	955.818	-29742.7	0.000000	0.000000	6.116755	-0.063125	NaN	0.000000	0.001670	0.001650	28.0805	0.099395	0.002050	48.4823	-45.6628	14.9492	-0.053158	0.114957	-0.894733	-0.896096	-0.063125	48.4823	-0.893757	-8.369346E+11	7.542454E-14	NaN
328	1.000000	0.154345	7.36827e+06	-55039.1	955.819	-29742.7	0.000000	0.000000	6.154782	-0.002435	NaN	0.000000	0.001699	0.001648	28.0803	0.075646	0.002029	37.2901	11.6648	-165.687	0.009750	0.153005	-0.856708	-0.858048	-0.002435	37.2901	-0.856659	-2.635712E+11	9.236999E-15	NaN
328	1.000000	0.192347	7.36827e+06	-55039.1	955.819	-29742.7	0.000000	0.000000	6.192782	-0.059645	NaN	0.000000	0.001745	0.001659	28.081	0.087946	0.002024	43.4541	24.8074	11.3199	-0.035454	0.191054	-0.818706	-0.819999	-0.059645	43.4541	-0.817676	-7.810879E+10	7.636115E-13	NaN
328	1.000000	0.230371	7.36827e+06	-55039.1	955.818	-29742.7	0.000000	0.000000	6.230803	-0.129738	NaN	0.000000	0.001775	0.001579	28.0804	0.027035	0.001899	14.2362	-174.319	-163.424	-0.100186	0.229057	-0.780682	-0.781996	-0.129738	14.2362	-0.773847	-1.984280E+10	6.538301E-12	NaN
328	1.000000	0.268419	7.36827e+06	-55039.1	955.818	-29742.7	0.000000	0.000000	6.268855	-0.033427	NaN	0.000000	0.001685	0.001670	28.0794	0.075276	0.001984	37.9367	-171.328	14.2263	0.020908	0.267015	-0.742634	-0.744038	-0.033427	37.9367	-0.741973	-7.310152E+9	4.572736E-12	NaN
328	1.000000	0.306424	7.36827e+06	-55039.1	955.818	-29742.7	0.000000	0.000000	6.306857	-0.089676	NaN	0.000000	0.001714	0.001675	28.0795	0.042248	0.001946	21.7157	133.91	-167.56	-0.101920	0.305114	-0.704629	-0.705939	-0.089676	21.7157	-0.701532	-2.053317E+9	4.367350E-11	NaN
328	1.000000	0.344445	7.36827e+06	-55039.1	955.818	-29742.7	0.000000	0.000000	6.344881	-0.022821	NaN	0.000000	0.001730	0.001642	28.0799	0.078396	0.001978	39.6368	68.5739	13.7625	-0.048478	0.343039	-0.666608	-0.668014	-0.022821	39.6368	-0.666176	-6.746015E+8	3.382935E-11	NaN
328	1.000000	0.382464	7.36827e+06	-55039.1	955.817	-29742.7	0.000000	0.000000	6.382901	-0.008176	NaN	0.000000	0.001661	0.001673	28.0804	0.076339	0.002134	35.7714	-161.564	-166.411	-0.014279	0.381130	-0.628589	-0.629923	-0.008176	35.7714	-0.628418	-2.047828E+8	3.992287E-11	NaN
328	1.000000	0.420446	7.36827e+06	-55039.1	955.818	-29742.7	0.000000	0.000000	6.420882	-0.049674	NaN	0.000000	0.001646	0.001640	28.0805	0.068060	0.001982	34.3477	18.2197	13.6328	-0.069578	0.419086	-0.590607	-0.591967	-0.049674	34.3477	-0.589522	-5.971411E+7	8.318665E-10	NaN
328	1.000000	0.458490	7.36827e+06	-55039.1	955.818	-29742.7	0.000000	0.000000	6.458926	-0.030185	NaN	0.000000	0.001651	0.001658	28.0805	0.114071	0.001965	58.0631	-32.2713	-167.079	0.011904	0.457170	-0.552563	-0.553883	-0.030185	58.0631	-0.552173	-1.819911E+7	1.658619E-9	NaN
328	1.000000	0.496512	7.36828e+06	-55039.1	955.818	-29742.7	0.000000	0.000000	6.496949	-0.010182	NaN	0.000000	0.001654	0.001640	28.0809	0.148737	0.001903	78.1457	175.444	12.3865	0.006061	0.495125	-0.514541	-0.515928	-0.010182	78.1457	-0.514444	-5.44866e+06	1.868631E-9	NaN
328	1.000000	0.534508	7.36828e+06	-55039.1	955.818	-29742.7	0.000000	0.000000	6.534946	0.016927	NaN	0.000000	0.001672	0.001641	28.0795	0.067990	0.001971	34.4926	12.413	-164.721	0.058160	0.533234	-0.476545	-0.477819	0.016927	34.4926	-0.476913	-1.63044e+06	-1.038167E-8	NaN
328	1.000000	0.572540	7.36828e+06	-55039.1	955.817	-29742.7	0.000000	0.000000	6.572980	0.052475	NaN	0.000000	0.001644	0.001645	28.0795	0.015133	0.001955	7.739073	63.2665	12.3954	0.086010	0.571179	-0.438513	-0.439874	0.052475	7.739073	-0.443598	-554784	-9.458640E-8	NaN
328	1.000000	0.610549	7.36828e+06	-55039.1	955.818	-29742.7	0.000000	0.000000	6.610984	-0.047568	NaN	0.000000	0.001637	0.001668	28.0797	0.044181	0.002024	21.8247	58.3603	-164.25	-0.059872	0.609234	-0.400504	-0.401819	-0.047568	21.8247	-0.398870	-128786	3.693563E-7	NaN
328	1.000000	0.648543	7.36828e+06	-55039.1	955.818	-29742.7	0.000000	0.000000	6.648976	-0.121937	NaN	0.000000	0.001666	0.001672	28.0793	0.098545	0.001931	51.0397	-173.72	14.7228	-0.096219	0.647168	-0.362510	-0.363885	-0.121937	51.0397	-0.360718	-36493.8	3.341320E-6	NaN
328	1.000000	0.686581	7.36828e+06	-55039.1	955.819	-29742.7	0.000000	0.000000	6.687019	0.017089	NaN	0.000000	0.001653	0.001700	28.0807	0.131204	0.001922	68.2556	-83.9021	-164.611	0.049069	0.685245	-0.324472	-0.325808	0.017089	68.2556	-0.324660	-10893	-1.568832E-6	NaN
328	1.000000	0.724586	7.36828e+06	-55039.1	955.819	-29742.7	0.000000	0.000000	6.725023	0.002864	NaN	0.000000	0.001707	0.001738	28.0807	0.079814	0.001967	40.574	-115.472	13.1667	0.022495	0.723225	-0.286467	-0.287828	0.002864	40.574	-0.286520	-2958.74	-9.680482E-7	NaN
328	1.000000	0.762614	7.36828e+06	-55039.1	955.818	-29742.7	0.000000	0.000000	6.763050	-0.040914	NaN	0.000000	0.001655	0.001723	28.0808	0.068022	0.001867	36.4415	104.603	-169.347	-0.135605	0.761264	-0.248439	-0.249789	-0.040914	36.4415	-0.247597	-754.662	5.421524E-5	NaN
328	1.000000	0.800639	7.36828e+06	-55039.1	955.818	-29742.7	0.000000	0.000000	6.801076	-0.010027	NaN	0.000000	0.001687	0.001716	28.0794	0.013362	0.002075	6.440681	155.508	14.3948	-0.016149	0.799269	-0.210414	-0.211784	-0.010027	6.440681	-0.209247	-186.471	5.377461E-5	NaN
328	1.000000	0.838633	7.36828e+06	-55039.1	955.818	-29742.7	0.000000	0.000000	6.839068	-0.071639	NaN	0.000000	0.001644	0.001717	28.0795	0.061058	0.002055	29.7192	-51.5824	-165.813	-0.021025	0.837319	-0.172420	-0.173734	-0.071639	29.7192	-0.170612	-42.0951	0.001702	NaN
328	1.000000	0.876672	7.36828e+06	-55039.1	955.818	-29742.7	0.000000	0.000000	6.877108	-0.022748	NaN	0.000000	0.001640	0.001690	28.0794	0.004677	0.001998	2.340697	-23.8032	13.003	-0.080853	0.875273	-0.134381	-0.135780	-0.022748	2.340697	-0.127092	-6.687021	0.003402	NaN
328	1.000000	0.914683	7.36828e+06	-55039.1	955.818	-29742.7	0.000000	0.000000	6.915120	-0.001555	NaN	0.000000	0.001676	0.001703	28.0794	0.079005	0.001949	40.542	-103.569	-164.652	0.064885	0.913331	-0.096370	-0.097722	-0.001555	40.542	-0.096341	-1.513065	0.001027	NaN
328	1.000000	0.952713	7.36828e+06	-55039.1	955.818	-29742.7	0.000000	0.000000	6.953151	0.011302	NaN	0.000000	0.001639	0.001720	28.0807	0.074278	0.001936	38.3691	66.2787	17.8037	-0.163660	0.951371	-0.058340	-0.059682	0.011302	38.3691	-0.058561	-0.163689	-0.069044	NaN
328	1.000000	0.990711	7.36828e+06	-55039.1	955.818	-29742.7	0.000000	0.000000	6.991144	-0.105380	NaN	0.000000	0.001666	0.001715	28.0808	0.043660	0.001904	22.9288	167.35	-166.304	-0.060164	0.989374	-0.020342	-0.021679	-0.105380	22.9288	-0.016895	-0.010443	10.0906	NaN
328	2.000000	1.020845	7.36828e+06	-55039.1	955.819	-29742.7	0.000000	0.000000	7.021726	10.7951	NaN	0.000000	0.001653	0.001689	28.0805	11.6955	0.001773	6598.21	4.717786	7.144997	10.0623	1.020576	0.009792	0.009523	10.7951	6598.21	0.008565	0.007630	1414.85	69014.5
328	2.000000	1.030287	7.36828e+06	-55039.1	955.819	-29742.7	0.000000	0.000000	7.031802	26.2108	NaN	0.000000	0.001666	0.001706	28.0796	20.3907	0.001708	11937.8	4.009972	-174.418	26.4377	1.029956	0.019234	0.018903	26.2108	11937.8	0.017587	0.018892	1387.42	79352.6
328	2.000000	1.039749	7.36828e+06	-55039.1	955.819	-29742.7	0.000000	0.000000	7.042269	50.6264	NaN	0.000000	0.001695	0.001680	28.0795	30.8035	0.001740	17708.1	6.598027	-2.386342	49.6384	1.039318	0.028696	0.028265	50.6264	17708.1	0.026552	0.033900	1493.4	87870.6
328	2.000000	1.049200	7.36828e+06	-55039.1	955.819	-29742.7	0.000000	0.000000	7.052907	79.494	NaN	0.000000	0.001686	0.001682	28.0795	40.0015	0.001756	22781.7	3.903097	177.914	76.2119	1.048961	0.038147	0.037908	79.494	22781.7	0.035530	0.052986	1500.27	90422.7
328	2.000000	1.058765	7.36828e+06	-55039.1	955.82	-29742.7	0.000000	0.000000	7.063900	114.194	NaN	0.000000	0.001686	0.001686	28.0797	49.2782	0.001737	28374.6	4.091673	-5.057723	115.063	1.058535	0.047712	0.047482	114.194	28374.6	0.044694	0.076721	1488.43	93593.4
328	2.000000	1.068179	7.36828e+06	-55039.1	955.82	-29742.7	0.000000	0.000000	7.075336	163.353	NaN	0.000000	0.001668	0.001672	28.0805	58.7622	0.001810	32457.7	6.441873	172.589	161.544	1.067775	0.057126	0.056722	163.353	32457.7	0.053352	0.103054	1585.12	92375.9
328	2.000000	1.077654	7.36828e+06	-55039.1	955.818	-29742.7	0.000000	0.000000	7.086723	209.835	NaN	0.000000	0.001636	0.001670	28.0804	66.3623	0.001627	40781.6	4.734304	-8.313761	206.595	1.077442	0.066601	0.066389	209.835	40781.6	0.062742	0.135825	1544.9	101099
328	2.000000	1.087242	7.36828e+06	-55039.1	955.818	-29742.7	0.000000	0.000000	7.098364	259.75	NaN	0.000000	0.001635	0.001653	28.0806	76.5484	0.001758	43540.7	2.339110	174.434	262.238	1.086915	0.076189	0.075862	259.75	43540.7	0.071714	0.171132	1517.84	96162.1
328	2.000000	1.096595	7.36828e+06	-55039.1	955.819	-29742.7	0.000000	0.000000	7.110623	330.387	NaN	0.000000	0.001666	0.001624	28.0809	85.2326	0.001791	47597.2	5.842762	-9.643684	324.062	1.096175	0.085542	0.085122	330.387	47597.2	0.080336	0.208657	1583.4	95200.3
328	2.000000	1.106066	7.36828e+06	-55039.1	955.818	-29742.7	0.000000	0.000000	7.122922	399.127	NaN	0.000000	0.001641	0.001639	28.0798	91.2322	0.001741	52408.7	0.098185	174.992	393.638	1.105725	0.095013	0.094672	399.127	52408.7	0.089301	0.251347	1587.95	95508
328	2.000000	1.115534	7.36828e+06	-55039.1	955.819	-29742.7	0.000000	0.000000	7.135390	472.042	NaN	0.000000	0.001615	0.001647	28.0794	102.774	0.001764	58253.5	3.571299	-9.153608	463.618	1.115289	0.104481	0.104236	472.042	58253.5	0.098404	0.298467	1581.55	97419.7
328	2.000000	1.116736	7.36828e+06	-55039.1	955.818	-29742.7	0.000000	0.000000	7.136787	476.784	NaN	0.000000	0.001644	0.001665	28.0798	103.92	0.001732	60004.8	5.474116	-10.8639	476.735	1.116393	0.105683	0.105340	476.784	60004.8	0.099724	0.305614	1560.09	99168.3