Folder: unikorn_login/remote_trans/data/nanoindenter/0828-1/data/Data_2025-08-06,11h17m57s (part 106)

File: 2025-07-22_16-23-58_1_229.txt
2025-07-22, 16:23:58, 1
Index	Phase	Displacement	Time	Pos X	Pos Y	Pos Z	Rot A	Rot B	Piezo Z	Force A	Force B	Gripper	Voltage A	Voltage B	Temperature	Amplitude force	Amplitude pos	Stiffness	Phase shift	Phase excitation	Force A raw	Displacement raw	HMax	HMax raw	Real Force	Real Stiffness	Contact Depth	Area	Hardness	Reduced Mod.
[#]	[#]	[um]	[s]	[um]	[um]	[um]	[m°]	[m°]	[um]	[uN]	[uN]	[V]	[V]	[V]	[°C]	[uN]	[um]	[N/m]	[°]	[°]	[uN]	[um]	[um]	[um]	[uN]	[N/m]	[um]	[um^2]	[MPa]	[MPa]
229	1.000000	0.002249	7.36729e+06	-50089.1	955.817	-29757.3	0.000000	0.000000	6.002809	-0.002991	NaN	0.000000	0.001499	0.001616	28.0761	0.045841	0.001021	44.9154	-105.817	-159.789	-0.079451	0.001021	-1.039187	-1.040415	-0.002991	44.9154	-1.039137	-7.627138E+13	3.921637E-17	NaN
229	1.000000	0.042196	7.36729e+06	-50089.1	955.818	-29757.3	0.000000	0.000000	6.042753	-0.054437	NaN	0.000000	0.001525	0.001627	28.0758	0.074271	0.001986	37.3911	150.048	-162.944	0.050432	0.040898	-0.999240	-1.000537	-0.054437	37.3911	-0.998148	-2.142061E+13	2.541331E-15	NaN
229	1.000000	0.082201	7.36729e+06	-50089.1	955.818	-29757.3	0.000000	0.000000	6.082757	-0.104168	NaN	0.000000	0.001545	0.001567	28.0758	0.076511	0.002005	38.1538	-177.719	-166.209	-0.076483	0.080905	-0.959234	-0.960530	-0.104168	38.1538	-0.957187	-6.010895E+12	1.732990E-14	NaN
229	1.000000	0.122226	7.36729e+06	-50089.1	955.818	-29757.3	0.000000	0.000000	6.122785	-0.013625	NaN	0.000000	0.001560	0.001639	28.0757	0.078369	0.002172	36.0805	72.4037	-164.368	-0.067729	0.120903	-0.919210	-0.920532	-0.013625	36.0805	-0.918926	-1.831095E+12	7.441105E-15	NaN
229	1.000000	0.162221	7.36729e+06	-50089.1	955.818	-29757.3	0.000000	0.000000	6.162782	0.017749	NaN	0.000000	0.001544	0.001579	28.077	0.045686	0.001911	23.9018	7.872219	-165.718	-0.050545	0.160948	-0.879214	-0.880487	0.017749	23.9018	-0.879771	-5.415157E+11	-3.277727E-14	NaN
229	1.000000	0.202255	7.36729e+06	-50089.1	955.818	-29757.3	0.000000	0.000000	6.202814	-0.025471	NaN	0.000000	0.001600	0.001571	28.0774	0.080086	0.001931	41.4771	46.9983	-165.009	-0.053823	0.200982	-0.839181	-0.840453	-0.025471	41.4771	-0.838720	-1.506451E+11	1.690815E-13	NaN
229	1.000000	0.242288	7.36729e+06	-50089.1	955.819	-29757.3	0.000000	0.000000	6.242848	0.001428	NaN	0.000000	0.001521	0.001662	28.0773	0.107592	0.002003	53.7177	-132.447	-165.746	-0.072279	0.240959	-0.799147	-0.800477	0.001428	53.7177	-0.799167	-4.380864E+10	-3.258842E-14	NaN
229	1.000000	0.282275	7.36729e+06	-50089.1	955.818	-29757.3	0.000000	0.000000	6.282836	0.035060	NaN	0.000000	0.001569	0.001662	28.076	0.014974	0.001912	7.831419	166.751	-166.071	0.048477	0.280980	-0.759160	-0.760456	0.035060	7.831419	-0.762518	-1.391732E+10	-2.519128E-12	NaN
229	1.000000	0.322293	7.36729e+06	-50089.1	955.817	-29757.3	0.000000	0.000000	6.322851	-0.065345	NaN	0.000000	0.001599	0.001675	28.0759	0.056005	0.001935	28.9483	52.4707	-164.056	-0.070964	0.320940	-0.719142	-0.720495	-0.065345	28.9483	-0.717449	-3.385944E+9	1.929881E-11	NaN
229	1.000000	0.362310	7.36729e+06	-50089.1	955.818	-29757.3	0.000000	0.000000	6.362871	0.024336	NaN	0.000000	0.001632	0.001631	28.076	0.129170	0.002119	60.9625	-8.412030	-167.018	0.066675	0.360997	-0.679126	-0.680439	0.024336	60.9625	-0.679425	-1.024103E+9	-2.376349E-11	NaN
229	1.000000	0.402322	7.36729e+06	-50089.1	955.819	-29757.3	0.000000	0.000000	6.402883	0.042453	NaN	0.000000	0.001558	0.001638	28.0763	0.056022	0.002021	27.7177	41.338	-164.668	-0.046708	0.400993	-0.639114	-0.640443	0.042453	27.7177	-0.640262	-2.977769E+8	-1.425673E-10	NaN
229	1.000000	0.442355	7.36729e+06	-50089.1	955.819	-29757.3	0.000000	0.000000	6.442915	0.004995	NaN	0.000000	0.001558	0.001644	28.0776	0.134917	0.002023	66.6873	-170.368	-167.599	0.040165	0.441046	-0.599081	-0.600389	0.004995	66.6873	-0.599137	-8.101617E+7	-6.165407E-11	NaN
229	1.000000	0.482370	7.36729e+06	-50089.1	955.818	-29757.3	0.000000	0.000000	6.482932	0.048862	NaN	0.000000	0.001545	0.001692	28.0775	0.049378	0.002185	22.6033	178.245	-165.161	0.017923	0.481028	-0.559065	-0.560408	0.048862	22.6033	-0.560686	-2.387118E+7	-2.046914E-9	NaN
229	1.000000	0.522376	7.36729e+06	-50089.1	955.818	-29757.3	0.000000	0.000000	6.522936	0.017224	NaN	0.000000	0.001571	0.001693	28.0777	0.072682	0.002041	35.6098	74.6402	-165.85	0.043034	0.521052	-0.519060	-0.520383	0.017224	35.6098	-0.519423	-6.39097e+06	-2.694982E-9	NaN
229	1.000000	0.562395	7.36729e+06	-50089.1	955.818	-29757.3	0.000000	0.000000	6.562952	-0.052041	NaN	0.000000	0.001525	0.001670	28.0763	0.030802	0.001913	16.1052	19.2801	-168.707	0.017407	0.561027	-0.479041	-0.480408	-0.052041	16.1052	-0.476617	-1.61495e+06	3.222444E-8	NaN
229	1.000000	0.602441	7.36729e+06	-50089.1	955.818	-29757.3	0.000000	0.000000	6.603002	0.027537	NaN	0.000000	0.001581	0.001633	28.0762	0.036652	0.002102	17.4367	-153.31	-160.687	0.003144	0.601112	-0.438994	-0.440324	0.027537	17.4367	-0.440179	-496461	-5.546588E-8	NaN
229	1.000000	0.642443	7.36729e+06	-50089.1	955.819	-29757.3	0.000000	0.000000	6.643000	-0.065819	NaN	0.000000	0.001580	0.001751	28.0762	0.037104	0.001918	19.3408	30.7048	-167.347	-0.000471	0.641086	-0.398992	-0.400349	-0.065819	19.3408	-0.396440	-118905	5.535438E-7	NaN
229	1.000000	0.682444	7.36729e+06	-50089.1	955.819	-29757.3	0.000000	0.000000	6.683003	-0.022704	NaN	0.000000	0.001616	0.001738	28.0774	0.041843	0.002022	20.6928	33.0729	-165.494	0.010428	0.681185	-0.358991	-0.360251	-0.022704	20.6928	-0.358168	-33524.2	6.772512E-7	NaN
229	1.000000	0.722482	7.36729e+06	-50089.1	955.819	-29757.3	0.000000	0.000000	6.723043	-0.000361	NaN	0.000000	0.001542	0.001714	28.0772	0.068578	0.002060	33.2869	-72.2297	-165.576	0.006802	0.721175	-0.318953	-0.320260	-0.000361	33.2869	-0.318945	-8976.42	4.023422E-8	NaN
229	1.000000	0.762492	7.36729e+06	-50089.1	955.818	-29757.3	0.000000	0.000000	6.763051	-0.027314	NaN	0.000000	0.001594	0.001677	28.0773	0.024836	0.002108	11.7842	-126.965	-168.386	-0.007097	0.761180	-0.278943	-0.280255	-0.027314	11.7842	-0.277205	-2141.71	1.275353E-5	NaN
229	1.000000	0.802519	7.36729e+06	-50089.1	955.819	-29757.3	0.000000	0.000000	6.803078	-0.036286	NaN	0.000000	0.001581	0.001661	28.0771	0.110570	0.002062	53.6189	46.7562	-167.461	-0.015119	0.801204	-0.238916	-0.240231	-0.036286	53.6189	-0.238409	-542.848	6.684360E-5	NaN
229	1.000000	0.842556	7.36729e+06	-50089.1	955.819	-29757.3	0.000000	0.000000	6.843113	-0.071976	NaN	0.000000	0.001544	0.001641	28.076	0.053458	0.002061	25.9382	113.784	-165.859	-0.013741	0.841220	-0.198879	-0.200215	-0.071976	25.9382	-0.196798	-116.666	0.000617	NaN
229	1.000000	0.882522	7.36729e+06	-50089.1	955.819	-29757.3	0.000000	0.000000	6.883082	-0.000877	NaN	0.000000	0.001579	0.001662	28.0759	0.072389	0.001979	36.5776	121.131	-168.911	-0.004396	0.881294	-0.158914	-0.160142	-0.000877	36.5776	-0.158896	-26.2023	3.345571E-5	NaN
229	1.000000	0.922548	7.36729e+06	-50089.1	955.819	-29757.3	0.000000	0.000000	6.923109	0.027142	NaN	0.000000	0.001555	0.001685	28.0762	0.054897	0.001936	28.3497	-115.636	-162.963	0.031748	0.921205	-0.118887	-0.120230	0.027142	28.3497	-0.119605	-4.743623	-0.005722	NaN
229	1.000000	0.962565	7.36729e+06	-50089.1	955.818	-29757.3	0.000000	0.000000	6.963125	0.015617	NaN	0.000000	0.001565	0.001647	28.0774	0.075501	0.001902	39.6989	-89.0402	-164.941	-0.058589	0.961282	-0.078871	-0.080154	0.015617	39.6989	-0.079166	-0.589887	-0.026474	NaN
229	1.000000	1.002579	7.36729e+06	-50089.1	955.819	-29757.3	0.000000	0.000000	7.003138	-0.024570	NaN	0.000000	0.001578	0.001689	28.0777	0.033075	0.001827	18.1068	117.829	-168.811	-0.036854	1.001305	-0.038857	-0.040131	-0.024570	18.1068	-0.037839	-0.038906	0.631527	NaN
229	1.000000	1.042612	7.36729e+06	-50089.1	955.819	-29757.3	0.000000	0.000000	7.043187	0.369322	NaN	0.000000	0.001583	0.001653	28.078	0.742716	0.001889	393.102	13.0365	-165.52	-0.038397	1.041298	0.001176	-0.000137	0.369322	393.102	0.000472	0.000356	1037.82	19038.7
229	2.000000	1.059116	7.36729e+06	-50089.1	955.818	-29757.3	0.000000	0.000000	7.060417	18.012	NaN	0.000000	0.001583	0.001647	28.0777	17.5886	0.001977	8898.44	11.8117	-178.765	18.5205	1.058783	0.017681	0.017348	18.012	8898.44	0.016163	0.016867	1067.86	62598.6
229	2.000000	1.069024	7.36729e+06	-50089.1	955.819	-29757.3	0.000000	0.000000	7.071090	36.6086	NaN	0.000000	0.001597	0.001654	28.0767	26.8575	0.001747	15369.8	1.976808	-175.165	34.2482	1.068760	0.027589	0.027325	36.6086	15369.8	0.025802	0.032492	1126.71	77903.4
229	2.000000	1.079010	7.36729e+06	-50089.1	955.818	-29757.3	0.000000	0.000000	7.082163	63.0613	NaN	0.000000	0.001565	0.001678	28.0765	36.5244	0.001794	20364.9	2.531363	-178.903	60.9091	1.078757	0.037574	0.037321	63.0613	20364.9	0.035252	0.052334	1204.97	81332.1
229	2.000000	1.089053	7.36729e+06	-50089.1	955.818	-29757.3	0.000000	0.000000	7.093703	99.4481	NaN	0.000000	0.001598	0.001653	28.0769	46.0383	0.001769	26030.3	5.369211	175.795	100.707	1.088799	0.047618	0.047364	99.4481	26030.3	0.044753	0.076887	1293.44	85768.3
229	2.000000	1.099054	7.36729e+06	-50089.1	955.817	-29757.3	0.000000	0.000000	7.105260	137.283	NaN	0.000000	0.001589	0.001635	28.0777	55.9008	0.001739	32146.7	4.920563	175.283	139.947	1.098749	0.057619	0.057314	137.283	32146.7	0.054416	0.106550	1288.44	89977.3
229	2.000000	1.109008	7.36729e+06	-50089.1	955.818	-29757.3	0.000000	0.000000	7.117146	184.299	NaN	0.000000	0.001569	0.001674	28.0776	65.7497	0.001793	36661.7	3.035922	175.706	185.63	1.108800	0.067572	0.067365	184.299	36661.7	0.063802	0.139794	1318.36	89586.3
229	2.000000	1.118980	7.36729e+06	-50089.1	955.819	-29757.3	0.000000	0.000000	7.129156	233.86	NaN	0.000000	0.001564	0.001687	28.0776	74.5365	0.001936	38496.5	4.836692	173.846	232.714	1.118742	0.077544	0.077307	233.86	38496.5	0.072988	0.176455	1325.32	83729.3
229	2.000000	1.129020	7.36729e+06	-50089.1	955.818	-29757.3	0.000000	0.000000	7.142172	306.219	NaN	0.000000	0.001569	0.001668	28.0761	83.7278	0.001784	46930.3	7.485918	169.806	311.027	1.128612	0.087585	0.087177	306.219	46930.3	0.082691	0.219509	1395.01	91516.5
229	2.000000	1.138921	7.36729e+06	-50089.1	955.819	-29757.3	0.000000	0.000000	7.155310	384.953	NaN	0.000000	0.001557	0.001678	28.0762	93.2435	0.001795	51946.7	2.643762	173.628	381.846	1.138705	0.097485	0.097270	384.953	51946.7	0.091927	0.264553	1455.11	92273.2
229	2.000000	1.148976	7.36729e+06	-50089.1	955.819	-29757.3	0.000000	0.000000	7.168714	466.387	NaN	0.000000	0.001612	0.001681	28.0764	102.802	0.001782	57676.5	4.836124	170.829	467.25	1.148763	0.107540	0.107328	466.387	57676.5	0.101476	0.315221	1479.56	93856.7
229	2.000000	1.149885	7.36729e+06	-50089.1	955.819	-29757.3	0.000000	0.000000	7.170331	483.596	NaN	0.000000	0.001605	0.001702	28.0762	102.505	0.001813	56541.4	5.699705	170.8	482.006	1.149475	0.108450	0.108040	483.596	56541.4	0.102035	0.318319	1519.22	91560.6

File: 2025-07-22_16-23-58_1_230.txt
2025-07-22, 16:23:58, 1
Index	Phase	Displacement	Time	Pos X	Pos Y	Pos Z	Rot A	Rot B	Piezo Z	Force A	Force B	Gripper	Voltage A	Voltage B	Temperature	Amplitude force	Amplitude pos	Stiffness	Phase shift	Phase excitation	Force A raw	Displacement raw	HMax	HMax raw	Real Force	Real Stiffness	Contact Depth	Area	Hardness	Reduced Mod.
[#]	[#]	[um]	[s]	[um]	[um]	[um]	[m°]	[m°]	[um]	[uN]	[uN]	[V]	[V]	[V]	[°C]	[uN]	[um]	[N/m]	[°]	[°]	[uN]	[um]	[um]	[um]	[uN]	[N/m]	[um]	[um^2]	[MPa]	[MPa]
230	1.000000	0.002237	7.36729e+06	-50139.1	955.82	-29757	0.000000	0.000000	6.002793	-0.088800	NaN	0.000000	0.001598	0.001672	28.0802	0.034816	0.000976	35.6772	144.548	-167.516	-0.064352	0.001020	-1.081165	-1.082382	-0.088800	35.6772	-1.079298	-2.642967E+14	3.359872E-16	NaN
230	1.000000	0.042201	7.3673e+06	-50139.1	955.819	-29757	0.000000	0.000000	6.042760	-0.035764	NaN	0.000000	0.001509	0.001669	28.0792	0.081420	0.001982	41.0811	80.5022	-164.085	-0.124998	0.040847	-1.041201	-1.042555	-0.035764	41.0811	-1.040548	-7.967660E+13	4.488629E-16	NaN
230	1.000000	0.082185	7.3673e+06	-50139.1	955.818	-29757	0.000000	0.000000	6.082744	-0.010737	NaN	0.000000	0.001581	0.001717	28.0793	0.111202	0.001944	57.1914	24.7592	-166.272	-0.027892	0.080827	-1.001217	-1.002574	-0.010737	57.1914	-1.001076	-2.345637E+13	4.577576E-16	NaN
230	1.000000	0.122205	7.3673e+06	-50139.1	955.817	-29757	0.000000	0.000000	6.122763	-0.029984	NaN	0.000000	0.001591	0.001684	28.079	0.025328	0.002081	12.1681	71.147	-164.39	-0.023381	0.120959	-0.961197	-0.962443	-0.029984	12.1681	-0.959349	-6.428260E+12	4.664420E-15	NaN
230	1.000000	0.162212	7.3673e+06	-50139.1	955.818	-29757	0.000000	0.000000	6.162769	-0.073715	NaN	0.000000	0.001578	0.001693	28.0803	0.068943	0.001910	36.089	60.2793	-163.583	-0.035905	0.160923	-0.921189	-0.922479	-0.073715	36.089	-0.919658	-1.873191E+12	3.935241E-14	NaN
230	1.000000	0.202190	7.3673e+06	-50139.1	955.818	-29757	0.000000	0.000000	6.202746	-0.083173	NaN	0.000000	0.001575	0.001651	28.0801	0.026952	0.002062	13.0709	-36.1111	-165.19	-0.115464	0.200962	-0.881212	-0.882440	-0.083173	13.0709	-0.876440	-4.881553E+11	1.703825E-13	NaN
230	1.000000	0.242243	7.3673e+06	-50139.1	955.817	-29757	0.000000	0.000000	6.242803	-0.008288	NaN	0.000000	0.001607	0.001668	28.0815	0.043933	0.002005	21.9079	-127.346	-166.534	-0.097405	0.240981	-0.841159	-0.842421	-0.008288	21.9079	-0.840875	-1.611194E+11	5.144022E-14	NaN
230	1.000000	0.282278	7.3673e+06	-50139.1	955.819	-29757	0.000000	0.000000	6.282838	-0.017229	NaN	0.000000	0.001633	0.001704	28.0803	0.065539	0.001951	33.5972	-121.026	-166.873	0.006092	0.280957	-0.801124	-0.802445	-0.017229	33.5972	-0.800739	-4.601437E+10	3.744234E-13	NaN
230	1.000000	0.322330	7.3673e+06	-50139.1	955.818	-29757	0.000000	0.000000	6.322887	-0.089422	NaN	0.000000	0.001593	0.001695	28.0791	0.124252	0.001918	64.7725	114.412	-163.583	-0.091450	0.320963	-0.761072	-0.762439	-0.089422	64.7725	-0.760036	-1.287646E+10	6.944648E-12	NaN
230	1.000000	0.362322	7.3673e+06	-50139.1	955.818	-29757	0.000000	0.000000	6.362883	0.012540	NaN	0.000000	0.001605	0.001678	28.0792	0.091507	0.002050	44.6287	-146.986	-166.33	-0.007159	0.361052	-0.721080	-0.722350	0.012540	44.6287	-0.721291	-3.820088E+9	-3.282522E-12	NaN
230	1.000000	0.402340	7.3673e+06	-50139.1	955.819	-29757	0.000000	0.000000	6.402900	0.007260	NaN	0.000000	0.001576	0.001644	28.0793	0.047823	0.002016	23.718	-68.9173	-165.057	-0.021327	0.401055	-0.681062	-0.682347	0.007260	23.718	-0.681292	-1.086098E+9	-6.684365E-12	NaN
230	1.000000	0.442331	7.3673e+06	-50139.1	955.818	-29757	0.000000	0.000000	6.442891	0.005245	NaN	0.000000	0.001559	0.001681	28.0803	0.095933	0.002116	45.339	-124.808	-165.311	-0.030312	0.441037	-0.641071	-0.642365	0.005245	45.339	-0.641158	-3.063168E+8	-1.712263E-11	NaN
230	1.000000	0.482385	7.3673e+06	-50139.1	955.819	-29757	0.000000	0.000000	6.482943	-0.063641	NaN	0.000000	0.001576	0.001651	28.0801	0.039375	0.002047	19.2313	29.1895	-166.077	-0.034268	0.481058	-0.601017	-0.602344	-0.063641	19.2313	-0.598535	-7.948390E+7	8.006747E-10	NaN
230	1.000000	0.522399	7.3673e+06	-50139.1	955.818	-29757	0.000000	0.000000	6.522957	-0.051523	NaN	0.000000	0.001684	0.001671	28.0803	0.086490	0.002042	42.3469	71.2313	-166.229	0.017179	0.521092	-0.561003	-0.562310	-0.051523	42.3469	-0.560090	-2.342225E+7	2.199737E-9	NaN
230	1.000000	0.562406	7.3673e+06	-50139.1	955.819	-29757	0.000000	0.000000	6.562961	-0.127513	NaN	0.000000	0.001700	0.001735	28.0799	0.013458	0.002075	6.486648	84.5814	-163.842	-0.147538	0.561105	-0.520996	-0.522297	-0.127513	6.486648	-0.506252	-4.18987e+06	3.043359E-8	NaN
230	1.000000	0.602413	7.3673e+06	-50139.1	955.817	-29757	0.000000	0.000000	6.602972	-0.029881	NaN	0.000000	0.001678	0.001692	28.0794	0.070828	0.001927	36.7496	44.8761	-162.212	-0.016813	0.601074	-0.480989	-0.482328	-0.029881	36.7496	-0.480379	-1.82319e+06	1.638962E-8	NaN
230	1.000000	0.642439	7.3673e+06	-50139.1	955.819	-29757	0.000000	0.000000	6.642999	0.013240	NaN	0.000000	0.001623	0.001679	28.0796	0.068918	0.001855	37.1588	68.5153	-162.654	-0.035292	0.641112	-0.440963	-0.442290	0.013240	37.1588	-0.441231	-513722	-2.577235E-8	NaN
230	1.000000	0.682440	7.3673e+06	-50139.1	955.818	-29757	0.000000	0.000000	6.682999	-0.029181	NaN	0.000000	0.001576	0.001683	28.0792	0.064862	0.001937	33.4774	54.0649	-167.342	-0.081952	0.681176	-0.400961	-0.402226	-0.029181	33.4774	-0.400308	-135015	2.161290E-7	NaN
230	1.000000	0.722477	7.3673e+06	-50139.1	955.819	-29757	0.000000	0.000000	6.723036	-0.006623	NaN	0.000000	0.001608	0.001694	28.0807	0.062246	0.002025	30.7357	54.1944	-165.929	-0.048518	0.721200	-0.360925	-0.362201	-0.006623	30.7357	-0.360764	-36549.7	1.812032E-7	NaN
230	1.000000	0.762476	7.3673e+06	-50139.1	955.818	-29757	0.000000	0.000000	6.763033	-0.060012	NaN	0.000000	0.001573	0.001694	28.0805	0.029377	0.002057	14.2824	-94.701	-165.058	-0.028067	0.761185	-0.320926	-0.322217	-0.060012	14.2824	-0.317775	-8627.16	6.956130E-6	NaN
230	1.000000	0.802516	7.3673e+06	-50139.1	955.819	-29757	0.000000	0.000000	6.803071	-0.124989	NaN	0.000000	0.001603	0.001700	28.0803	0.012564	0.002115	5.939927	97.4253	-167.751	-0.068670	0.801202	-0.280886	-0.282200	-0.124989	5.939927	-0.265105	-1402.76	8.910244E-5	NaN
230	1.000000	0.842519	7.3673e+06	-50139.1	955.818	-29757	0.000000	0.000000	6.843078	-0.021565	NaN	0.000000	0.001570	0.001708	28.0792	0.053192	0.001992	26.6961	115.665	-163.221	-0.002878	0.841214	-0.240883	-0.242188	-0.021565	26.6961	-0.240277	-580.601	3.714185E-5	NaN
230	1.000000	0.882554	7.3673e+06	-50139.1	955.818	-29757	0.000000	0.000000	6.883114	0.000168	NaN	0.000000	0.001603	0.001676	28.0793	0.034521	0.001801	19.1704	-11.9116	-162.767	-0.010825	0.881262	-0.200848	-0.202140	0.000168	19.1704	-0.200854	-136.059	-1.237802E-6	NaN
230	1.000000	0.922563	7.3673e+06	-50139.1	955.817	-29757	0.000000	0.000000	6.923120	-0.066780	NaN	0.000000	0.001656	0.001650	28.0791	0.019759	0.002103	9.393609	22.6717	-166.923	0.043651	0.921254	-0.160839	-0.162148	-0.066780	9.393609	-0.155507	-22.7878	0.002931	NaN
230	1.000000	0.962579	7.3673e+06	-50139.1	955.819	-29757	0.000000	0.000000	6.963135	-0.096056	NaN	0.000000	0.001691	0.001680	28.079	0.033746	0.001901	17.751	-157.134	-162.415	-0.099345	0.961226	-0.120823	-0.122176	-0.096056	17.751	-0.116765	-4.152845	0.023130	NaN
230	1.000000	1.002611	7.3673e+06	-50139.1	955.817	-29757	0.000000	0.000000	7.003171	0.011835	NaN	0.000000	0.001570	0.001731	28.0804	0.034039	0.001939	17.5595	159.002	-163.816	-0.094110	1.001323	-0.080791	-0.082079	0.011835	17.5595	-0.081297	-0.666757	-0.017750	NaN
230	1.000000	1.042617	7.3673e+06	-50139.1	955.819	-29757	0.000000	0.000000	7.043177	-0.009440	NaN	0.000000	0.001625	0.001708	28.0804	0.055214	0.001968	28.053	38.3959	-164.114	0.008343	1.041284	-0.040785	-0.042118	-0.009440	28.053	-0.040533	-0.046939	0.201101	NaN
230	1.000000	1.082595	7.3673e+06	-50139.1	955.818	-29757	0.000000	0.000000	7.083250	2.327897	NaN	0.000000	0.001566	0.001712	28.0804	1.275657	0.001939	657.823	4.379224	-167.536	1.816545	1.081303	-0.000807	-0.002099	2.327897	657.823	-0.003461	-0.002427	-959.199	NaN
230	2.000000	1.103054	7.3673e+06	-50139.1	955.819	-29757	0.000000	0.000000	7.104389	18.8394	NaN	0.000000	0.001610	0.001689	28.0793	13.5851	0.001767	7688.16	8.042805	-174.213	17.9705	1.102804	0.019652	0.019402	18.8394	7688.16	0.017814	0.019223	980.039	50662.2
230	2.000000	1.112997	7.3673e+06	-50139.1	955.819	-29757	0.000000	0.000000	7.115378	44.2919	NaN	0.000000	0.001653	0.001704	28.0794	25.625	0.001690	15158.6	4.240763	-178.059	42.9669	1.112749	0.029595	0.029347	44.2919	15158.6	0.027404	0.035534	1246.46	73470
230	2.000000	1.122996	7.3673e+06	-50139.1	955.818	-29757	0.000000	0.000000	7.126747	77.5997	NaN	0.000000	0.001662	0.001667	28.0791	36.2891	0.001857	19546.5	5.068778	179.816	76.6762	1.122704	0.039594	0.039302	77.5997	19546.5	0.036617	0.055577	1396.25	75752.1
230	2.000000	1.132986	7.3673e+06	-50139.1	955.819	-29757	0.000000	0.000000	7.138150	111.967	NaN	0.000000	0.001671	0.001666	28.0791	45.7129	0.001837	24878.9	3.996602	177.908	110.101	1.132775	0.049584	0.049373	111.967	24878.9	0.046208	0.081055	1381.37	79838.7
230	2.000000	1.142977	7.3673e+06	-50139.1	955.82	-29757	0.000000	0.000000	7.150357	165.86	NaN	0.000000	0.001653	0.001707	28.08	55.724	0.001774	31412.6	4.802604	175.417	166.265	1.142615	0.059575	0.059213	165.86	31412.6	0.055615	0.110556	1500.23	86314.9
230	2.000000	1.152901	7.3673e+06	-50139.1	955.819	-29757	0.000000	0.000000	7.162346	216.074	NaN	0.000000	0.001659	0.001680	28.0801	64.3195	0.001666	38597.2	4.309344	174.167	212.508	1.152685	0.069499	0.069283	216.074	38597.2	0.065300	0.145498	1485.07	92448.8
230	2.000000	1.162923	7.3673e+06	-50139.1	955.819	-29757	0.000000	0.000000	7.174792	275.003	NaN	0.000000	0.001692	0.001687	28.0804	74.2559	0.001728	42978.2	3.560863	174.884	272.737	1.162700	0.079521	0.079298	275.003	42978.2	0.074722	0.183827	1495.99	91583.4
230	2.000000	1.172868	7.3673e+06	-50139.1	955.819	-29757	0.000000	0.000000	7.187740	348.042	NaN	0.000000	0.001664	0.001680	28.079	82.7266	0.001748	47321.1	2.478008	175.003	342.368	1.172651	0.089467	0.089249	348.042	47321.1	0.083950	0.225420	1543.97	91060.9
230	2.000000	1.182873	7.3673e+06	-50139.1	955.82	-29757	0.000000	0.000000	7.200665	419.061	NaN	0.000000	0.001682	0.001636	28.079	91.9715	0.001705	53944.8	4.047699	172.092	416.357	1.182737	0.099471	0.099335	419.061	53944.8	0.093645	0.273360	1533	94266
230	2.000000	1.192919	7.3673e+06	-50139.1	955.82	-29757	0.000000	0.000000	7.214075	500.887	NaN	0.000000	0.001635	0.001750	28.0788	102.51	0.001787	57360	5.364235	170.616	499.952	1.192691	0.109517	0.109289	500.887	57360	0.102967	0.323511	1548.28	92137.7
230	2.000000	1.194857	7.3673e+06	-50139.1	955.821	-29757	0.000000	0.000000	7.216973	524.223	NaN	0.000000	0.001645	0.001759	28.0792	103.456	0.001779	58160	3.008215	173.366	523.196	1.194548	0.111455	0.111146	524.223	58160	0.104695	0.333239	1573.12	92049.2