Folder: unikorn_login/remote_trans/data/nanoindenter/0828-1/data/Data_2025-08-06,11h17m57s (part 42)

File: 2025-07-22_16-23-58_1_101.txt
2025-07-22, 16:23:58, 1
Index	Phase	Displacement	Time	Pos X	Pos Y	Pos Z	Rot A	Rot B	Piezo Z	Force A	Force B	Gripper	Voltage A	Voltage B	Temperature	Amplitude force	Amplitude pos	Stiffness	Phase shift	Phase excitation	Force A raw	Displacement raw	HMax	HMax raw	Real Force	Real Stiffness	Contact Depth	Area	Hardness	Reduced Mod.
[#]	[#]	[um]	[s]	[um]	[um]	[um]	[m°]	[m°]	[um]	[uN]	[uN]	[V]	[V]	[V]	[°C]	[uN]	[um]	[N/m]	[°]	[°]	[uN]	[um]	[um]	[um]	[uN]	[N/m]	[um]	[um^2]	[MPa]	[MPa]
101	1.000000	0.002930	7.36602e+06	-43689.1	955.819	-29778.8	0.000000	0.000000	6.002801	0.063942	NaN	0.000000	0.001569	0.001655	28.1005	0.101597	0.000981	103.577	-21.957	-167.099	0.091472	0.001701	-0.981113	-0.982342	0.063942	103.577	-0.981576	-1.281268E+13	-4.990491E-15	NaN
101	1.000000	0.040906	7.36603e+06	-43689.1	955.819	-29778.8	0.000000	0.000000	6.040777	0.071659	NaN	0.000000	0.001592	0.001626	28.1275	0.007810	0.001921	4.066663	-48.7217	14.2875	-0.011489	0.039515	-0.943137	-0.944527	0.071659	4.066663	-0.956353	-5.857277E+12	-1.223425E-14	NaN
101	1.000000	0.078881	7.36603e+06	-43689.1	955.819	-29778.8	0.000000	0.000000	6.078750	0.014886	NaN	0.000000	0.001600	0.001601	28.0905	0.036642	0.002014	18.1898	-127.688	-163.785	-0.009286	0.077622	-0.905161	-0.906421	0.014886	18.1898	-0.905775	-1.216450E+12	-1.223746E-14	NaN
101	1.000000	0.116884	7.36603e+06	-43689.1	955.819	-29778.8	0.000000	0.000000	6.116754	0.031168	NaN	0.000000	0.001590	0.001656	28.0757	0.061286	0.001969	31.1249	-105.603	13.0542	-0.016921	0.115505	-0.867159	-0.868537	0.031168	31.1249	-0.867910	-3.742515E+11	-8.328002E-14	NaN
101	1.000000	0.154918	7.36603e+06	-43689.1	955.819	-29778.8	0.000000	0.000000	6.154787	-0.000545	NaN	0.000000	0.001562	0.001650	28.0985	0.052158	0.001781	29.28	59.0467	-165.537	0.045511	0.153618	-0.829124	-0.830425	-0.000545	29.28	-0.829111	-1.116164E+11	4.884399E-15	NaN
101	1.000000	0.192966	7.36603e+06	-43689.1	955.819	-29778.8	0.000000	0.000000	6.192836	0.018643	NaN	0.000000	0.001619	0.001627	28.1259	0.110104	0.002150	51.2056	158.148	14.4175	-0.010491	0.191637	-0.791076	-0.792406	0.018643	51.2056	-0.791349	-3.430906E+10	-5.433931E-13	NaN
101	1.000000	0.230955	7.36603e+06	-43689.1	955.819	-29778.8	0.000000	0.000000	6.230822	-0.036041	NaN	0.000000	0.001583	0.001685	28.091	0.077374	0.002053	37.6934	174.872	-165.735	0.019903	0.229647	-0.753088	-0.754395	-0.036041	37.6934	-0.752371	-1.012727E+10	3.558766E-12	NaN
101	1.000000	0.269003	7.36603e+06	-43689.1	955.818	-29778.8	0.000000	0.000000	6.268867	-0.096775	NaN	0.000000	0.001581	0.001687	28.0782	0.158873	0.001971	80.6038	143.288	13.2361	-0.127037	0.267641	-0.715040	-0.716402	-0.096775	80.6038	-0.714140	-3.051638E+9	3.171239E-11	NaN
101	1.000000	0.307029	7.36603e+06	-43689.1	955.818	-29778.8	0.000000	0.000000	6.306898	-0.000308	NaN	0.000000	0.001561	0.001666	28.1019	0.146142	0.002052	71.2209	-171.901	-162.93	0.068923	0.305698	-0.677014	-0.678344	-0.000308	71.2209	-0.677010	-9.491051E+8	3.242296E-13	NaN
101	1.000000	0.344998	7.36603e+06	-43689.1	955.818	-29778.8	0.000000	0.000000	6.344867	0.029296	NaN	0.000000	0.001579	0.001665	28.1262	0.077466	0.001924	40.256	-105.705	10.1512	0.062543	0.343665	-0.639045	-0.640378	0.029296	40.256	-0.639591	-2.915252E+8	-1.004924E-10	NaN
101	1.000000	0.383034	7.36603e+06	-43689.1	955.818	-29778.8	0.000000	0.000000	6.382904	0.025503	NaN	0.000000	0.001559	0.001651	28.0897	0.028819	0.001910	15.0904	34.7736	-163.466	-0.039886	0.381751	-0.601009	-0.602291	0.025503	15.0904	-0.602276	-8.949620E+7	-2.849588E-10	NaN
101	1.000000	0.421055	7.36603e+06	-43689.1	955.82	-29778.8	0.000000	0.000000	6.420923	-0.017310	NaN	0.000000	0.001564	0.001661	28.0771	0.103134	0.002061	50.0389	-158.734	14.1766	0.024328	0.419694	-0.562988	-0.564349	-0.017310	50.0389	-0.562728	-2.547515E+7	6.795033E-10	NaN
101	1.000000	0.459044	7.36603e+06	-43689.1	955.818	-29778.8	0.000000	0.000000	6.458909	-0.088368	NaN	0.000000	0.001644	0.001703	28.1005	0.112283	0.001808	62.1202	166.23	-165.016	-0.043110	0.457733	-0.524999	-0.526310	-0.088368	62.1202	-0.523932	-7.38357e+06	1.196824E-8	NaN
101	1.000000	0.497043	7.36603e+06	-43689.1	955.818	-29778.8	0.000000	0.000000	6.496911	-0.026609	NaN	0.000000	0.001583	0.001693	28.1272	0.070229	0.002085	33.686	-160.164	14.362	0.008081	0.495690	-0.487000	-0.488353	-0.026609	33.686	-0.486407	-2.21396e+06	1.201873E-8	NaN
101	1.000000	0.535110	7.36603e+06	-43689.1	955.819	-29778.8	0.000000	0.000000	6.534977	-0.020234	NaN	0.000000	0.001635	0.001698	28.0891	0.035147	0.002000	17.5743	159.516	-165.308	0.012038	0.533761	-0.448933	-0.450282	-0.020234	17.5743	-0.448070	-641434	3.154460E-8	NaN
101	1.000000	0.573097	7.36603e+06	-43689.1	955.819	-29778.8	0.000000	0.000000	6.572966	0.003007	NaN	0.000000	0.001576	0.001672	28.0793	0.052525	0.002043	25.706	-142.172	12.9376	-0.054691	0.571799	-0.410945	-0.412243	0.003007	25.706	-0.411033	-191907	-1.567009E-8	NaN
101	1.000000	0.611114	7.36603e+06	-43689.1	955.819	-29778.8	0.000000	0.000000	6.610986	0.097834	NaN	0.000000	0.001597	0.001688	28.1016	0.029442	0.001946	15.1266	67.9927	-167.007	0.048981	0.609847	-0.372929	-0.374196	0.097834	15.1266	-0.377780	-64270.8	-1.522222E-6	NaN
101	1.000000	0.649134	7.36603e+06	-43689.1	955.818	-29778.8	0.000000	0.000000	6.649003	0.002378	NaN	0.000000	0.001643	0.001659	28.1268	0.067656	0.001805	37.4764	-100.168	16.6582	0.010308	0.647803	-0.334908	-0.336240	0.002378	37.4764	-0.334956	-15415	-1.542449E-7	NaN
101	1.000000	0.687137	7.36603e+06	-43689.1	955.819	-29778.8	0.000000	0.000000	6.687004	-0.026545	NaN	0.000000	0.001599	0.001684	28.0871	0.078018	0.001947	40.0636	-59.2449	-167.45	-0.072662	0.685823	-0.296906	-0.298219	-0.026545	40.0636	-0.296409	-4160.27	6.380594E-6	NaN
101	1.000000	0.725176	7.36603e+06	-43689.1	955.818	-29778.8	0.000000	0.000000	6.725049	0.086625	NaN	0.000000	0.001579	0.001724	28.0771	0.032287	0.002053	15.7305	20.628	13.7178	-0.004523	0.723844	-0.258866	-0.260199	0.086625	15.7305	-0.262996	-1302.52	-6.650606E-5	NaN
101	1.000000	0.763174	7.36603e+06	-43689.1	955.818	-29778.8	0.000000	0.000000	6.763045	0.056710	NaN	0.000000	0.001551	0.001640	28.1032	0.010020	0.001958	5.118384	32.4749	-167.843	-0.000879	0.761848	-0.220869	-0.222195	0.056710	5.118384	-0.229179	-388.636	-0.000146	NaN
101	1.000000	0.801242	7.36603e+06	-43689.1	955.818	-29778.8	0.000000	0.000000	6.801109	-0.049392	NaN	0.000000	0.001551	0.001679	28.1278	0.054817	0.002061	26.5999	-156.869	14.5671	0.061766	0.799850	-0.182800	-0.184193	-0.049392	26.5999	-0.181408	-64.4741	0.000766	NaN
101	1.000000	0.839214	7.36603e+06	-43689.1	955.818	-29778.8	0.000000	0.000000	6.839080	-0.049951	NaN	0.000000	0.001627	0.001683	28.0879	0.041995	0.001914	21.9395	-110.433	-168.291	-0.019894	0.837927	-0.144829	-0.146116	-0.049951	21.9395	-0.143121	-13.5305	0.003692	NaN
101	1.000000	0.877233	7.36603e+06	-43689.1	955.818	-29778.8	0.000000	0.000000	6.877101	-0.029482	NaN	0.000000	0.001618	0.001688	28.0785	0.075861	0.001993	38.0556	65.1275	9.469036	-0.046358	0.875843	-0.106809	-0.108200	-0.029482	38.0556	-0.106228	-2.498212	0.011801	NaN
101	1.000000	0.915254	7.36603e+06	-43689.1	955.819	-29778.8	0.000000	0.000000	6.915122	-0.005009	NaN	0.000000	0.001533	0.001691	28.1022	0.080525	0.001898	42.4172	-152.35	-167.037	-0.084509	0.913946	-0.068789	-0.070097	-0.005009	42.4172	-0.068700	-0.314714	0.015916	NaN
101	1.000000	0.953278	7.36603e+06	-43689.1	955.817	-29778.8	0.000000	0.000000	6.953147	0.011060	NaN	0.000000	0.001588	0.001684	28.1261	0.056562	0.001940	29.1526	95.3036	12.734	-0.007966	0.951902	-0.030765	-0.032140	0.011060	29.1526	-0.031049	-0.024626	-0.449098	NaN
101	2.000000	0.990762	7.36603e+06	-43689.1	955.819	-29778.8	0.000000	0.000000	6.991039	9.934682	NaN	0.000000	0.001539	0.001685	28.0862	7.710420	0.001693	4554.35	10.7273	-176.847	7.803874	0.989840	0.006720	0.005798	9.934682	4554.35	0.005084	0.004210	2359.91	64131.5
101	2.000000	1.000373	7.36603e+06	-43689.1	955.819	-29778.8	0.000000	0.000000	7.001271	25.0563	NaN	0.000000	0.001526	0.001637	28.08	18.15	0.001946	9327.77	8.176507	2.931214	23.6798	1.000061	0.016330	0.016018	25.0563	9327.77	0.014315	0.014383	1742.05	71059.6
101	2.000000	1.009867	7.36603e+06	-43689.1	955.819	-29778.8	0.000000	0.000000	7.011786	49.8851	NaN	0.000000	0.001570	0.001683	28.1041	26.6639	0.001790	14893.6	7.628484	178.653	48.4472	1.009611	0.025825	0.025568	49.8851	14893.6	0.023313	0.028017	1780.5	81293.8
101	2.000000	1.019357	7.36603e+06	-43689.1	955.82	-29778.8	0.000000	0.000000	7.023110	94.4975	NaN	0.000000	0.001585	0.001694	28.1265	36.5552	0.001749	20903.9	5.579561	-2.970033	94.333	1.018952	0.035315	0.034909	94.4975	20903.9	0.031924	0.044827	2108.06	90205.2
101	2.000000	1.028805	7.36603e+06	-43689.1	955.821	-29778.8	0.000000	0.000000	7.034846	150.177	NaN	0.000000	0.001599	0.001711	28.0876	46.0161	0.001827	25182.7	5.207254	175.763	148.817	1.028507	0.044762	0.044464	150.177	25182.7	0.040290	0.064779	2318.3	90398.1
101	2.000000	1.038307	7.36603e+06	-43689.1	955.821	-29778.8	0.000000	0.000000	7.046777	209.27	NaN	0.000000	0.001625	0.001682	28.0783	54.9996	0.001677	32797.9	5.623983	-6.944041	207.457	1.038022	0.054264	0.053979	209.27	32797.9	0.049479	0.090809	2304.52	99438.8
101	2.000000	1.047793	7.36603e+06	-43689.1	955.822	-29778.8	0.000000	0.000000	7.058793	270.808	NaN	0.000000	0.001526	0.001673	28.1035	63.1985	0.001854	34080.1	6.510306	172.872	269.382	1.047491	0.063750	0.063448	270.808	34080.1	0.057791	0.118006	2294.87	90640.6
101	2.000000	1.057302	7.36603e+06	-43689.1	955.821	-29778.8	0.000000	0.000000	7.070882	333.606	NaN	0.000000	0.001523	0.001699	28.1251	71.7741	0.001930	37195.7	5.010343	-6.623607	331.792	1.056941	0.073259	0.072898	333.606	37195.7	0.066532	0.150269	2220.06	87666
101	2.000000	1.066740	7.36603e+06	-43689.1	955.82	-29778.8	0.000000	0.000000	7.083088	400.931	NaN	0.000000	0.001517	0.001693	28.0856	78.7963	0.001823	43235.1	5.398666	171.256	398.764	1.066514	0.082697	0.082472	400.931	43235.1	0.075742	0.188228	2130.02	91047.4
101	2.000000	1.076251	7.36603e+06	-43689.1	955.821	-29778.8	0.000000	0.000000	7.094772	453.8	NaN	0.000000	0.001536	0.001653	28.0794	84.6236	0.001814	46640.4	3.582459	-6.958447	449.723	1.076023	0.092208	0.091981	453.8	46640.4	0.084911	0.229976	1973.25	88857.4
101	2.000000	1.085742	7.36603e+06	-43689.1	955.822	-29778.8	0.000000	0.000000	7.107170	524.543	NaN	0.000000	0.001574	0.001637	28.1067	92.7661	0.001765	52550.6	2.782241	172.639	523.408	1.085460	0.101699	0.101418	524.543	52550.6	0.094213	0.276301	1898.45	91339.6
101	2.000000	1.089142	7.36603e+06	-43689.1	955.821	-29778.8	0.000000	0.000000	7.111666	551.193	NaN	0.000000	0.001543	0.001683	28.1255	95.9519	0.001773	54117.5	6.900986	-11.6763	543.554	1.088817	0.105099	0.104774	551.193	54117.5	0.097460	0.293406	1878.6	91280.1

File: 2025-07-22_16-23-58_1_102.txt
2025-07-22, 16:23:58, 1
Index	Phase	Displacement	Time	Pos X	Pos Y	Pos Z	Rot A	Rot B	Piezo Z	Force A	Force B	Gripper	Voltage A	Voltage B	Temperature	Amplitude force	Amplitude pos	Stiffness	Phase shift	Phase excitation	Force A raw	Displacement raw	HMax	HMax raw	Real Force	Real Stiffness	Contact Depth	Area	Hardness	Reduced Mod.
[#]	[#]	[um]	[s]	[um]	[um]	[um]	[m°]	[m°]	[um]	[uN]	[uN]	[V]	[V]	[V]	[°C]	[uN]	[um]	[N/m]	[°]	[°]	[uN]	[um]	[um]	[um]	[uN]	[N/m]	[um]	[um^2]	[MPa]	[MPa]
102	1.000000	0.002233	7.36603e+06	-43739.1	955.818	-29778.5	0.000000	0.000000	6.002782	-0.002927	NaN	0.000000	0.001583	0.001616	28.0868	0.071275	0.000992	71.8756	-95.3306	-174.565	-0.047343	0.001004	-1.092483	-1.093712	-0.002927	71.8756	-1.092452	-3.969507E+14	7.372830E-18	NaN
102	1.000000	0.044205	7.36603e+06	-43739.1	955.819	-29778.5	0.000000	0.000000	6.044754	0.003369	NaN	0.000000	0.001569	0.001646	28.1277	0.074783	0.002085	35.8655	70.4109	13.497	0.018947	0.042832	-1.050511	-1.051884	0.003369	35.8655	-1.050582	-1.087018E+14	-3.098953E-17	NaN
102	1.000000	0.086236	7.36603e+06	-43739.1	955.818	-29778.6	0.000000	0.000000	6.086786	0.026393	NaN	0.000000	0.001546	0.001655	28.1148	0.117172	0.001883	62.2286	38.0998	-169.806	0.007961	0.084869	-1.008480	-1.009847	0.026393	62.2286	-1.008798	-2.979927E+13	-8.856951E-16	NaN
102	1.000000	0.128240	7.36603e+06	-43739.1	955.818	-29778.6	0.000000	0.000000	6.128787	-0.051811	NaN	0.000000	0.001621	0.001652	28.0825	0.030007	0.001939	15.4753	89.9608	14.7548	-0.062207	0.126879	-0.966476	-0.967837	-0.051811	15.4753	-0.963965	-7.418562E+12	6.984026E-15	NaN
102	1.000000	0.170263	7.36603e+06	-43739.1	955.818	-29778.6	0.000000	0.000000	6.170811	-0.009867	NaN	0.000000	0.001575	0.001671	28.0878	0.122599	0.002124	57.7294	-179.14	-169.382	-0.095452	0.168921	-0.924453	-0.925795	-0.009867	57.7294	-0.924325	-2.165691E+12	4.555871E-15	NaN
102	1.000000	0.212267	7.36603e+06	-43739.1	955.819	-29778.6	0.000000	0.000000	6.212817	0.027458	NaN	0.000000	0.001602	0.001673	28.1252	0.121835	0.002058	59.2025	48.7174	11.0166	-0.008686	0.210891	-0.882449	-0.883825	0.027458	59.2025	-0.882797	-5.950116E+11	-4.614714E-14	NaN
102	1.000000	0.254306	7.36604e+06	-43739.1	955.818	-29778.6	0.000000	0.000000	6.254854	-0.036102	NaN	0.000000	0.001591	0.001704	28.1132	0.060357	0.001987	30.3704	97.2417	-165.873	-0.009282	0.253011	-0.840410	-0.841705	-0.036102	30.3704	-0.839518	-1.544426E+11	2.337552E-13	NaN
102	1.000000	0.296302	7.36604e+06	-43739.1	955.818	-29778.6	0.000000	0.000000	6.296849	-0.034078	NaN	0.000000	0.001561	0.001690	28.0807	0.069710	0.002059	33.8601	-16.8025	11.8319	-0.074651	0.294939	-0.798414	-0.799777	-0.034078	33.8601	-0.797660	-4.179177E+10	8.154125E-13	NaN
102	1.000000	0.338331	7.36604e+06	-43739.1	955.818	-29778.6	0.000000	0.000000	6.338881	0.038130	NaN	0.000000	0.001583	0.001628	28.0878	0.017457	0.002056	8.488796	-80.2102	-164.069	0.011684	0.337020	-0.756385	-0.757696	0.038130	8.488796	-0.759754	-1.276318E+10	-2.987478E-12	NaN
102	1.000000	0.380336	7.36604e+06	-43739.1	955.818	-29778.6	0.000000	0.000000	6.380885	-0.010545	NaN	0.000000	0.001589	0.001664	28.126	0.059508	0.002012	29.5823	83.1198	16.8277	-0.029831	0.378977	-0.714380	-0.715739	-0.010545	29.5823	-0.714113	-3.049052E+9	3.458359E-12	NaN
102	1.000000	0.422380	7.36604e+06	-43739.1	955.819	-29778.6	0.000000	0.000000	6.422929	0.014476	NaN	0.000000	0.001570	0.001664	28.115	0.074300	0.002043	36.3698	84.4171	-167.719	-0.107630	0.421035	-0.672336	-0.673681	0.014476	36.3698	-0.672635	-8.268870E+8	-1.750680E-11	NaN
102	1.000000	0.464372	7.36604e+06	-43739.1	955.818	-29778.6	0.000000	0.000000	6.464919	-0.042909	NaN	0.000000	0.001595	0.001667	28.0812	0.056154	0.001932	29.0713	-48.9539	13.4089	-0.126010	0.463005	-0.630344	-0.631711	-0.042909	29.0713	-0.629237	-2.101598E+8	2.041750E-10	NaN
102	1.000000	0.506381	7.36604e+06	-43739.1	955.818	-29778.6	0.000000	0.000000	6.506931	0.034627	NaN	0.000000	0.001589	0.001680	28.086	0.054036	0.001998	27.0381	-112.396	-166.486	-0.002942	0.504986	-0.588335	-0.589730	0.034627	27.0381	-0.589295	-5.928602E+7	-5.840642E-10	NaN
102	1.000000	0.548388	7.36604e+06	-43739.1	955.818	-29778.6	0.000000	0.000000	6.548937	0.012444	NaN	0.000000	0.001577	0.001647	28.1234	0.076103	0.002043	37.2425	-71.8619	14.6152	0.050541	0.547040	-0.546328	-0.547676	0.012444	37.2425	-0.546579	-1.522505E+7	-8.173465E-10	NaN
102	1.000000	0.590425	7.36604e+06	-43739.1	955.818	-29778.6	0.000000	0.000000	6.590975	0.024226	NaN	0.000000	0.001568	0.001673	28.1153	0.035697	0.002029	17.5968	-42.9375	-167.949	0.010434	0.589118	-0.504291	-0.505598	0.024226	17.5968	-0.505324	-4.06685e+06	-5.956964E-9	NaN
102	1.000000	0.632460	7.36604e+06	-43739.1	955.818	-29778.6	0.000000	0.000000	6.633009	0.016854	NaN	0.000000	0.001560	0.001630	28.0827	0.051813	0.002054	25.2217	-124.086	16.5776	-0.022262	0.631117	-0.462256	-0.463599	0.016854	25.2217	-0.462758	-1.03219e+06	-1.632800E-8	NaN
102	1.000000	0.674481	7.36604e+06	-43739.1	955.818	-29778.6	0.000000	0.000000	6.675029	-0.033299	NaN	0.000000	0.001517	0.001642	28.0875	0.092158	0.001898	48.5566	179.079	-164.217	-0.078073	0.673160	-0.420235	-0.421556	-0.033299	48.5566	-0.419720	-254946	1.306123E-7	NaN
102	1.000000	0.716478	7.36604e+06	-43739.1	955.818	-29778.6	0.000000	0.000000	6.717027	-0.015837	NaN	0.000000	0.001569	0.001652	28.1228	0.015250	0.001954	7.804827	174.023	12.6005	-0.051696	0.715129	-0.378238	-0.379587	-0.015837	7.804827	-0.376716	-62048.5	2.552393E-7	NaN
102	1.000000	0.758514	7.36604e+06	-43739.1	955.818	-29778.6	0.000000	0.000000	6.759062	-0.025617	NaN	0.000000	0.001649	0.001705	28.1149	0.060449	0.001899	31.8299	-168.433	-167.137	-0.042535	0.757183	-0.336202	-0.337533	-0.025617	31.8299	-0.335599	-15751.9	1.626261E-6	NaN
102	1.000000	0.800523	7.36604e+06	-43739.1	955.818	-29778.6	0.000000	0.000000	6.801070	-0.038829	NaN	0.000000	0.001596	0.001642	28.0813	0.026578	0.002046	12.9911	-156.754	14.07	-0.025376	0.799151	-0.294193	-0.295565	-0.038829	12.9911	-0.291951	-3568.78	1.088019E-5	NaN
102	1.000000	0.842523	7.36604e+06	-43739.1	955.818	-29778.6	0.000000	0.000000	6.843071	-0.012013	NaN	0.000000	0.001577	0.001691	28.086	0.141343	0.002010	70.312	-123.777	-168.842	-0.037357	0.841188	-0.252193	-0.253528	-0.012013	70.312	-0.252065	-884.863	1.357561E-5	NaN
102	1.000000	0.884553	7.36604e+06	-43739.1	955.819	-29778.6	0.000000	0.000000	6.885101	-0.038944	NaN	0.000000	0.001522	0.001618	28.1247	0.084517	0.002051	41.2059	-173.708	13.1292	0.008493	0.883220	-0.210163	-0.211496	-0.038944	41.2059	-0.209454	-187.919	0.000207	NaN
102	1.000000	0.926575	7.36604e+06	-43739.1	955.818	-29778.6	0.000000	0.000000	6.927122	-0.046933	NaN	0.000000	0.001581	0.001654	28.116	0.045461	0.001938	23.459	-23.8224	-165.472	-0.000937	0.925269	-0.168141	-0.169447	-0.046933	23.459	-0.166641	-35.8975	0.001307	NaN
102	1.000000	0.968580	7.36604e+06	-43739.1	955.818	-29778.6	0.000000	0.000000	6.969127	-0.046752	NaN	0.000000	0.001596	0.001636	28.0845	0.051916	0.001887	27.5194	-105.383	16.0963	-0.050612	0.967229	-0.126136	-0.127487	-0.046752	27.5194	-0.124862	-6.043033	0.007736	NaN
102	1.000000	1.010612	7.36604e+06	-43739.1	955.818	-29778.6	0.000000	0.000000	7.011160	-0.015743	NaN	0.000000	0.001581	0.001640	28.0846	0.079198	0.002034	38.9294	-75.4669	-165.782	-0.004958	1.009372	-0.084104	-0.085344	-0.015743	38.9294	-0.083801	-0.768321	0.020490	NaN
102	1.000000	1.052627	7.36604e+06	-43739.1	955.818	-29778.6	0.000000	0.000000	7.053175	-0.025472	NaN	0.000000	0.001568	0.001647	28.123	0.033805	0.002001	16.8962	-42.1462	15.9578	0.034535	1.051261	-0.042089	-0.043455	-0.025472	16.8962	-0.040958	-0.048360	0.526716	NaN
102	1.000000	1.094612	7.36604e+06	-43739.1	955.818	-29778.6	0.000000	0.000000	7.095161	0.007736	NaN	0.000000	0.001555	0.001646	28.1161	0.109831	0.002014	54.5444	35.6125	-168.1	-0.067647	1.093339	-0.000104	-0.001377	0.007736	54.5444	-0.000211	-0.000157	-49.2992	NaN
102	2.000000	1.112589	7.36604e+06	-43739.1	955.818	-29778.6	0.000000	0.000000	7.114242	26.8601	NaN	0.000000	0.001548	0.001659	28.0843	18.8266	0.001772	10626	7.068855	2.472565	25.6052	1.112145	0.017873	0.017429	26.8601	10626	0.015977	0.016611	1617.02	75326.7
102	2.000000	1.122988	7.36604e+06	-43739.1	955.819	-29778.6	0.000000	0.000000	7.125883	57.0833	NaN	0.000000	0.001610	0.001651	28.0843	28.9708	0.001826	15869.3	6.129071	179.921	54.4432	1.122703	0.028272	0.027987	57.0833	15869.3	0.025574	0.032068	1780.08	80964.6
102	2.000000	1.133507	7.36604e+06	-43739.1	955.818	-29778.6	0.000000	0.000000	7.137630	86.9636	NaN	0.000000	0.001569	0.001703	28.1239	38.347	0.001808	21210.9	5.127863	-1.225578	85.185	1.133159	0.038791	0.038443	86.9636	21210.9	0.035716	0.053426	1627.73	83840.8
102	2.000000	1.143990	7.36604e+06	-43739.1	955.818	-29778.6	0.000000	0.000000	7.150094	135.165	NaN	0.000000	0.001612	0.001680	28.1167	47.5883	0.001813	26242.2	1.466381	-178.601	133.366	1.143661	0.049274	0.048945	135.165	26242.2	0.045411	0.078758	1716.21	85433.2
102	2.000000	1.154479	7.36604e+06	-43739.1	955.817	-29778.6	0.000000	0.000000	7.163019	194.435	NaN	0.000000	0.001571	0.001692	28.0826	57.7303	0.001821	31694.1	6.720552	-4.857770	193.723	1.154004	0.059763	0.059288	194.435	31694.1	0.055161	0.109032	1783.28	87694.8
102	2.000000	1.164989	7.36604e+06	-43739.1	955.818	-29778.6	0.000000	0.000000	7.176194	259.272	NaN	0.000000	0.001562	0.001718	28.0828	68.5606	0.001828	37503.1	8.171285	171.905	256.922	1.164582	0.070272	0.069866	259.272	37503.1	0.065087	0.144681	1792.03	90081.5
102	2.000000	1.175493	7.36604e+06	-43739.1	955.819	-29778.6	0.000000	0.000000	7.189403	325.081	NaN	0.000000	0.001602	0.001665	28.1219	78.4885	0.001732	45313.5	2.666893	-4.624959	325.095	1.175262	0.080777	0.080546	325.081	45313.5	0.075396	0.186729	1740.92	95806.5
102	2.000000	1.185883	7.36604e+06	-43739.1	955.819	-29778.6	0.000000	0.000000	7.203203	408.033	NaN	0.000000	0.001572	0.001706	28.1187	89.4675	0.001818	49224.2	5.210129	172.157	403.917	1.185665	0.091167	0.090949	408.033	49224.2	0.084950	0.230161	1772.81	93742.4
102	2.000000	1.196209	7.36604e+06	-43739.1	955.819	-29778.6	0.000000	0.000000	7.217032	493.267	NaN	0.000000	0.001510	0.001697	28.084	98.7448	0.001813	54468.9	3.896016	-7.064066	479.156	1.196012	0.101493	0.101296	493.267	54468.9	0.094701	0.278841	1768.99	94241.7
102	2.000000	1.202937	7.36604e+06	-43739.1	955.819	-29778.6	0.000000	0.000000	7.226462	558.985	NaN	0.000000	0.001578	0.001659	28.0838	105.524	0.001828	57715	2.699941	174	557.803	1.202544	0.108221	0.107828	558.985	57715	0.100957	0.312361	1789.55	94348.1