Folder: unikorn_login/remote_trans/data/nanoindenter/0828-1/data/Data_2025-08-06,11h17m57s (part 161)

File: 2025-07-22_16-23-58_1_339.txt
2025-07-22, 16:23:58, 1
Index	Phase	Displacement	Time	Pos X	Pos Y	Pos Z	Rot A	Rot B	Piezo Z	Force A	Force B	Gripper	Voltage A	Voltage B	Temperature	Amplitude force	Amplitude pos	Stiffness	Phase shift	Phase excitation	Force A raw	Displacement raw	HMax	HMax raw	Real Force	Real Stiffness	Contact Depth	Area	Hardness	Reduced Mod.
[#]	[#]	[um]	[s]	[um]	[um]	[um]	[m°]	[m°]	[um]	[uN]	[uN]	[V]	[V]	[V]	[°C]	[uN]	[um]	[N/m]	[°]	[°]	[uN]	[um]	[um]	[um]	[uN]	[N/m]	[um]	[um^2]	[MPa]	[MPa]
339	1.000000	0.002246	7.36838e+06	-55589.1	955.819	-29741.5	0.000000	0.000000	6.002806	-0.022947	NaN	0.000000	0.001542	0.001646	28.0794	0.023834	0.000981	24.2837	149.611	-164.207	-0.005302	0.000957	-1.090714	-1.092003	-0.022947	24.2837	-1.090005	-3.680250E+14	6.235044E-17	NaN
339	1.000000	0.044172	7.36838e+06	-55589.1	955.819	-29741.5	0.000000	0.000000	6.044733	0.017079	NaN	0.000000	0.001518	0.001709	28.079	0.059076	0.002002	29.5112	-150.989	13.9806	0.048035	0.042801	-1.048788	-1.050159	0.017079	29.5112	-1.049222	-1.042204E+14	-1.638777E-16	NaN
339	1.000000	0.086207	7.36838e+06	-55589.1	955.819	-29741.5	0.000000	0.000000	6.086768	0.012962	NaN	0.000000	0.001530	0.001704	28.0791	0.050037	0.002054	24.3574	-28.6938	-165.431	0.025601	0.084943	-1.006753	-1.008017	0.012962	24.3574	-1.007152	-2.831727E+13	-4.577389E-16	NaN
339	1.000000	0.128218	7.36838e+06	-55589.1	955.818	-29741.5	0.000000	0.000000	6.128777	-0.021428	NaN	0.000000	0.001487	0.001701	28.0802	0.080610	0.002029	39.7206	-3.689070	14.8979	-0.066132	0.126862	-0.964742	-0.966098	-0.021428	39.7206	-0.964338	-7.504903E+12	2.855197E-15	NaN
339	1.000000	0.170234	7.36838e+06	-55589.1	955.819	-29741.5	0.000000	0.000000	6.170793	-0.020361	NaN	0.000000	0.001484	0.001707	28.0804	0.080343	0.001998	40.2077	-135.357	-165.122	-0.049012	0.168913	-0.922726	-0.924047	-0.020361	40.2077	-0.922346	-2.036490E+12	9.997914E-15	NaN
339	1.000000	0.212250	7.36838e+06	-55589.1	955.818	-29741.5	0.000000	0.000000	6.212808	-0.042600	NaN	0.000000	0.001505	0.001692	28.0807	0.101329	0.001892	53.5577	-90.2015	13.9211	-0.057718	0.210874	-0.880710	-0.882086	-0.042600	53.5577	-0.880114	-5.473277E+11	7.783321E-14	NaN
339	1.000000	0.254281	7.36838e+06	-55589.1	955.818	-29741.5	0.000000	0.000000	6.254840	-0.042504	NaN	0.000000	0.001558	0.001717	28.0792	0.111473	0.001988	56.0743	157.353	-165.447	-0.066280	0.252924	-0.838679	-0.840036	-0.042504	56.0743	-0.838110	-1.478050E+11	2.875684E-13	NaN
339	1.000000	0.296311	7.36838e+06	-55589.1	955.819	-29741.5	0.000000	0.000000	6.296873	0.047014	NaN	0.000000	0.001519	0.001697	28.0793	0.039484	0.001995	19.789	-91.257	14.8894	0.063130	0.294848	-0.796649	-0.798112	0.047014	19.789	-0.798431	-4.281203E+10	-1.098150E-12	NaN
339	1.000000	0.338288	7.36838e+06	-55589.1	955.818	-29741.5	0.000000	0.000000	6.338846	-0.053840	NaN	0.000000	0.001536	0.001692	28.0793	0.021952	0.001961	11.1956	-123.77	-162.794	-0.015218	0.337020	-0.754672	-0.755940	-0.053840	11.1956	-0.751065	-9.721201E+9	5.538454E-12	NaN
339	1.000000	0.380362	7.36838e+06	-55589.1	955.82	-29741.5	0.000000	0.000000	6.380922	0.006017	NaN	0.000000	0.001538	0.001702	28.0806	0.080346	0.001967	40.8543	162.821	16.2386	-0.005647	0.378992	-0.712598	-0.713968	0.006017	40.8543	-0.712708	-2.917474E+9	-2.062238E-12	NaN
339	1.000000	0.422357	7.36838e+06	-55589.1	955.818	-29741.5	0.000000	0.000000	6.422916	-0.011579	NaN	0.000000	0.001545	0.001707	28.0808	0.060095	0.002010	29.8979	-40.1556	-163.617	-0.035408	0.421008	-0.670603	-0.671952	-0.011579	29.8979	-0.670313	-7.685475E+8	1.506633E-11	NaN
339	1.000000	0.464365	7.36838e+06	-55589.1	955.819	-29741.5	0.000000	0.000000	6.464924	-0.045411	NaN	0.000000	0.001489	0.001746	28.0803	0.083714	0.002111	39.6492	-37.442	15.877	-0.056936	0.463037	-0.628595	-0.629923	-0.045411	39.6492	-0.627736	-2.004128E+8	2.265860E-10	NaN
339	1.000000	0.506378	7.36838e+06	-55589.1	955.818	-29741.5	0.000000	0.000000	6.506938	-0.004302	NaN	0.000000	0.001531	0.001756	28.0791	0.098888	0.001904	51.9384	166.71	-166.472	-0.003126	0.505045	-0.586582	-0.587915	-0.004302	51.9384	-0.586520	-5.428507E+7	7.925274E-11	NaN
339	1.000000	0.548408	7.36838e+06	-55589.1	955.819	-29741.5	0.000000	0.000000	6.548969	0.019328	NaN	0.000000	0.001492	0.001738	28.0792	0.090655	0.002075	43.6809	-44.4922	17.4081	-0.048742	0.547060	-0.544552	-0.545900	0.019328	43.6809	-0.544884	-1.442359E+7	-1.340021E-9	NaN
339	1.000000	0.590438	7.36838e+06	-55589.1	955.82	-29741.5	0.000000	0.000000	6.590997	-0.022107	NaN	0.000000	0.001507	0.001752	28.0795	0.059591	0.001890	31.5355	107.345	-164.338	-0.018548	0.589090	-0.502522	-0.503870	-0.022107	31.5355	-0.501997	-3.65484e+06	6.048638E-9	NaN
339	1.000000	0.632419	7.36838e+06	-55589.1	955.819	-29741.5	0.000000	0.000000	6.632984	0.102997	NaN	0.000000	0.001572	0.001723	28.0796	0.073274	0.001905	38.4679	-63.3484	13.5223	0.147453	0.631035	-0.460541	-0.461925	0.102997	38.4679	-0.462549	-1.02524e+06	-1.004616E-7	NaN
339	1.000000	0.674461	7.36838e+06	-55589.1	955.818	-29741.5	0.000000	0.000000	6.675021	0.006358	NaN	0.000000	0.001559	0.001705	28.0806	0.102670	0.001858	55.2544	117.875	-164.003	-0.027377	0.673146	-0.418499	-0.419814	0.006358	55.2544	-0.418586	-245669	-2.588131E-8	NaN
339	1.000000	0.716486	7.36838e+06	-55589.1	955.819	-29741.5	0.000000	0.000000	6.717046	0.003372	NaN	0.000000	0.001546	0.001699	28.0805	0.063159	0.001925	32.8127	-65.9826	13.4881	-0.049831	0.715089	-0.376474	-0.377871	0.003372	32.8127	-0.376551	-61711.7	-5.463569E-8	NaN
339	1.000000	0.758479	7.36838e+06	-55589.1	955.819	-29741.5	0.000000	0.000000	6.759039	-0.003035	NaN	0.000000	0.001527	0.001694	28.0805	0.066260	0.002142	30.9319	-62.4361	-166.238	-0.022709	0.757171	-0.334481	-0.335789	-0.003035	30.9319	-0.334407	-15133.1	2.005679E-7	NaN
339	1.000000	0.800501	7.36838e+06	-55589.1	955.819	-29741.5	0.000000	0.000000	6.801061	-0.002813	NaN	0.000000	0.001527	0.001687	28.0793	0.158934	0.001917	82.927	46.5249	15.1696	-0.038770	0.799142	-0.292459	-0.293818	-0.002813	82.927	-0.292434	-3628.56	7.753514E-7	NaN
339	1.000000	0.842533	7.36838e+06	-55589.1	955.819	-29741.5	0.000000	0.000000	6.843093	-0.010227	NaN	0.000000	0.001485	0.001720	28.0795	0.016379	0.002172	7.542160	107.148	-165.264	0.023295	0.841227	-0.250427	-0.251733	-0.010227	7.542160	-0.249410	-805.084	1.270329E-5	NaN
339	1.000000	0.884532	7.36838e+06	-55589.1	955.818	-29741.5	0.000000	0.000000	6.885092	0.000213	NaN	0.000000	0.001522	0.001678	28.0795	0.110011	0.001999	55.0225	-172.943	15.6592	-0.003623	0.883164	-0.208428	-0.209796	0.000213	55.0225	-0.208431	-180.877	-1.176726E-6	NaN
339	1.000000	0.926549	7.36838e+06	-55589.1	955.819	-29741.5	0.000000	0.000000	6.927109	-0.000754	NaN	0.000000	0.001567	0.001746	28.0804	0.036893	0.001930	19.1195	134.907	-171.787	0.002547	0.925299	-0.166411	-0.167661	-0.000754	19.1195	-0.166381	-35.524	2.122494E-5	NaN
339	1.000000	0.968573	7.36838e+06	-55589.1	955.818	-29741.5	0.000000	0.000000	6.969132	-0.020475	NaN	0.000000	0.001496	0.001722	28.0804	0.087474	0.002069	42.2766	68.5164	17.5256	-0.017131	0.967240	-0.124387	-0.125720	-0.020475	42.2766	-0.124024	-5.816152	0.003520	NaN
339	1.000000	1.010589	7.36838e+06	-55589.1	955.818	-29741.5	0.000000	0.000000	7.011149	-0.000925	NaN	0.000000	0.001517	0.001738	28.0803	0.051840	0.002071	25.0299	-95.0648	-163.96	-0.000368	1.009268	-0.082371	-0.083692	-0.000925	25.0299	-0.082343	-0.707668	0.001307	NaN
339	1.000000	1.052611	7.36838e+06	-55589.1	955.819	-29741.5	0.000000	0.000000	7.053169	-0.045560	NaN	0.000000	0.001485	0.001723	28.0791	0.037916	0.002029	18.6886	140.372	16.3353	-0.080269	1.051257	-0.040349	-0.041703	-0.045560	18.6886	-0.038521	-0.040791	1.116916	NaN
339	1.000000	1.094618	7.36838e+06	-55589.1	955.819	-29741.5	0.000000	0.000000	7.095213	0.845927	NaN	0.000000	0.001524	0.001720	28.0798	1.330741	0.001941	685.461	9.472611	-166.467	0.197605	1.093328	0.001658	0.000368	0.845927	685.461	0.000733	0.000555	1522.85	26571.6
339	2.000000	1.110617	7.36838e+06	-55589.1	955.819	-29741.5	0.000000	0.000000	7.112139	23.3821	NaN	0.000000	0.001466	0.001685	28.0802	19.3755	0.001822	10633.4	10.2206	-0.092734	22.3598	1.110229	0.017657	0.017269	23.3821	10633.4	0.016008	0.016653	1404.09	75283.8
339	2.000000	1.121060	7.36838e+06	-55589.1	955.818	-29741.5	0.000000	0.000000	7.123424	43.8544	NaN	0.000000	0.001552	0.001664	28.08	29.9307	0.001755	17053.9	5.743265	179.708	42.4069	1.120728	0.028100	0.027768	43.8544	17053.9	0.026171	0.033181	1321.66	85536.4
339	2.000000	1.131550	7.36838e+06	-55589.1	955.819	-29741.5	0.000000	0.000000	7.135348	78.7094	NaN	0.000000	0.001415	0.001717	28.0806	38.9102	0.001860	20924.1	3.733569	3.067521	79.2781	1.131090	0.038590	0.038130	78.7094	20924.1	0.035769	0.053552	1469.78	82609.8
339	2.000000	1.142042	7.36838e+06	-55589.1	955.819	-29741.5	0.000000	0.000000	7.147295	114.077	NaN	0.000000	0.001530	0.001724	28.0805	47.578	0.001724	27597.9	3.790023	177.919	113.283	1.141719	0.049082	0.048759	114.077	27597.9	0.045981	0.080398	1418.91	88925.7
339	2.000000	1.152453	7.36838e+06	-55589.1	955.819	-29741.5	0.000000	0.000000	7.159532	158.471	NaN	0.000000	0.001476	0.001726	28.0808	58.7932	0.001909	30796.3	2.700720	-1.276707	154.354	1.152208	0.059493	0.059248	158.471	30796.3	0.055633	0.110617	1432.61	84598.2
339	2.000000	1.162992	7.36838e+06	-55589.1	955.819	-29741.5	0.000000	0.000000	7.172208	210.403	NaN	0.000000	0.001528	0.001745	28.0793	69.8487	0.001824	38293.8	5.109196	174.498	208.569	1.162675	0.070032	0.069715	210.403	38293.8	0.065911	0.147854	1423.04	90988.2
339	2.000000	1.173473	7.36838e+06	-55589.1	955.818	-29741.5	0.000000	0.000000	7.185437	277.205	NaN	0.000000	0.001552	0.001735	28.0792	78.9786	0.001787	44187.5	2.721043	-4.067368	273.562	1.173119	0.080513	0.080159	277.205	44187.5	0.075808	0.188512	1470.49	92982.8
339	2.000000	1.183974	7.36839e+06	-55589.1	955.82	-29741.5	0.000000	0.000000	7.198714	344.699	NaN	0.000000	0.001560	0.001737	28.0792	88.5506	0.001741	50862	5.984809	171.1	344.553	1.183668	0.091014	0.090708	344.699	50862	0.085931	0.234862	1467.66	95887
339	2.000000	1.194335	7.36839e+06	-55589.1	955.817	-29741.5	0.000000	0.000000	7.212244	421.721	NaN	0.000000	0.001465	0.001729	28.0806	98.3382	0.001810	54335.5	4.249439	-7.581923	410.776	1.193979	0.101375	0.101019	421.721	54335.5	0.095554	0.283305	1488.57	93267.2
339	2.000000	1.200337	7.36839e+06	-55589.1	955.818	-29741.5	0.000000	0.000000	7.220154	468.102	NaN	0.000000	0.001494	0.001739	28.0804	104.776	0.001677	62492.6	4.783356	-8.993210	458.984	1.200111	0.107377	0.107151	468.102	62492.6	0.101760	0.316791	1477.64	101442

File: 2025-07-22_16-23-58_1_340.txt
2025-07-22, 16:23:58, 1
Index	Phase	Displacement	Time	Pos X	Pos Y	Pos Z	Rot A	Rot B	Piezo Z	Force A	Force B	Gripper	Voltage A	Voltage B	Temperature	Amplitude force	Amplitude pos	Stiffness	Phase shift	Phase excitation	Force A raw	Displacement raw	HMax	HMax raw	Real Force	Real Stiffness	Contact Depth	Area	Hardness	Reduced Mod.
[#]	[#]	[um]	[s]	[um]	[um]	[um]	[m°]	[m°]	[um]	[uN]	[uN]	[V]	[V]	[V]	[°C]	[uN]	[um]	[N/m]	[°]	[°]	[uN]	[um]	[um]	[um]	[uN]	[N/m]	[um]	[um^2]	[MPa]	[MPa]
340	1.000000	0.002534	7.36839e+06	-55639.1	955.818	-29741.5	0.000000	0.000000	6.002771	0.008702	NaN	0.000000	0.001515	0.001707	28.0788	0.055941	0.000975	57.3966	178.45	-163.606	-0.123609	0.001320	-0.991362	-0.992577	0.008702	57.3966	-0.991476	-1.741747E+13	-4.996209E-16	NaN
340	1.000000	0.040517	7.36839e+06	-55639.1	955.817	-29741.5	0.000000	0.000000	6.040757	0.070181	NaN	0.000000	0.001530	0.001714	28.0789	0.064934	0.001908	34.0256	102.982	16.1462	0.060074	0.039208	-0.953379	-0.954688	0.070181	34.0256	-0.954926	-5.603380E+12	-1.252473E-14	NaN
340	1.000000	0.078547	7.36839e+06	-55639.1	955.818	-29741.5	0.000000	0.000000	6.078780	-0.082765	NaN	0.000000	0.001472	0.001702	28.0801	0.070072	0.001904	36.7971	41.4742	-163.93	-0.022972	0.077215	-0.915349	-0.916681	-0.082765	36.7971	-0.913662	-1.554631E+12	5.323786E-14	NaN
340	1.000000	0.116577	7.36839e+06	-55639.1	955.817	-29741.5	0.000000	0.000000	6.116814	0.006605	NaN	0.000000	0.001491	0.001709	28.0799	0.063458	0.002063	30.7665	-94.0911	17.7075	0.019568	0.115221	-0.877319	-0.878675	0.006605	30.7665	-0.877480	-5.042288E+11	-1.309938E-14	NaN
340	1.000000	0.154563	7.36839e+06	-55639.1	955.819	-29741.5	0.000000	0.000000	6.154802	0.050430	NaN	0.000000	0.001507	0.001682	28.0799	0.029067	0.002124	13.683	-133.929	-160.581	-0.056384	0.153258	-0.839333	-0.840638	0.050430	13.683	-0.842097	-1.673788E+11	-3.012899E-13	NaN
340	1.000000	0.192560	7.36839e+06	-55639.1	955.819	-29741.5	0.000000	0.000000	6.192800	0.065398	NaN	0.000000	0.001592	0.001705	28.08	0.069180	0.002030	34.0713	-88.5236	12.7637	0.007475	0.191189	-0.801336	-0.802707	0.065398	34.0713	-0.802775	-4.903812E+10	-1.333615E-12	NaN
340	1.000000	0.230604	7.36839e+06	-55639.1	955.818	-29741.5	0.000000	0.000000	6.230840	-0.010418	NaN	0.000000	0.001518	0.001727	28.0782	0.122521	0.001978	61.9351	14.2209	-167.528	0.082884	0.229320	-0.763292	-0.764576	-0.010418	61.9351	-0.763166	-1.420253E+10	7.335599E-13	NaN
340	1.000000	0.268597	7.36839e+06	-55639.1	955.819	-29741.5	0.000000	0.000000	6.268835	0.043981	NaN	0.000000	0.001493	0.001664	28.0783	0.029697	0.001994	14.8925	136.698	13.0734	-0.041694	0.267242	-0.725299	-0.726654	0.043981	14.8925	-0.727514	-4.644355E+9	-9.469880E-12	NaN
340	1.000000	0.306621	7.36839e+06	-55639.1	955.819	-29741.5	0.000000	0.000000	6.306858	0.024822	NaN	0.000000	0.001502	0.001704	28.0784	0.062873	0.002084	30.1649	-82.4199	-163.57	0.072790	0.305349	-0.687275	-0.688547	0.024822	30.1649	-0.687892	-1.336941E+9	-1.856606E-11	NaN
340	1.000000	0.344667	7.36839e+06	-55639.1	955.818	-29741.5	0.000000	0.000000	6.344904	-0.009879	NaN	0.000000	0.001414	0.001676	28.0797	0.043366	0.002037	21.2911	146.581	14.6025	-0.013859	0.343252	-0.649229	-0.650644	-0.009879	21.2911	-0.648881	-3.909227E+8	2.527149E-11	NaN
340	1.000000	0.382694	7.36839e+06	-55639.1	955.817	-29741.5	0.000000	0.000000	6.382931	0.014309	NaN	0.000000	0.001438	0.001683	28.0799	0.073927	0.002063	35.8265	47.6438	-163.293	0.053246	0.381328	-0.611202	-0.612568	0.014309	35.8265	-0.611501	-1.198864E+8	-1.193551E-10	NaN
340	1.000000	0.420679	7.36839e+06	-55639.1	955.818	-29741.5	0.000000	0.000000	6.420915	-0.006560	NaN	0.000000	0.001405	0.001696	28.0796	0.039470	0.002106	18.7415	50.3464	15.5565	-0.058467	0.419307	-0.573217	-0.574589	-0.006560	18.7415	-0.572955	-3.527370E+7	1.859649E-10	NaN
340	1.000000	0.458681	7.36839e+06	-55639.1	955.817	-29741.5	0.000000	0.000000	6.458917	-0.012713	NaN	0.000000	0.001440	0.001661	28.0799	0.031949	0.001833	17.4272	146.911	-167.895	0.004423	0.457388	-0.535215	-0.536508	-0.012713	17.4272	-0.534668	-1.040823E+7	1.221459E-9	NaN
340	1.000000	0.496701	7.36839e+06	-55639.1	955.817	-29741.5	0.000000	0.000000	6.496939	0.025533	NaN	0.000000	0.001486	0.001687	28.078	0.092177	0.002100	43.8872	4.284777	15.8886	0.021600	0.495298	-0.497195	-0.498598	0.025533	43.8872	-0.497631	-3.17662e+06	-8.037903E-9	NaN
340	1.000000	0.534687	7.36839e+06	-55639.1	955.819	-29741.5	0.000000	0.000000	6.534924	0.022917	NaN	0.000000	0.001497	0.001668	28.0784	0.132552	0.001966	67.4121	70.9961	-164.041	0.004208	0.533339	-0.459209	-0.460557	0.022917	67.4121	-0.459464	-927879	-2.469816E-8	NaN
340	1.000000	0.572732	7.36839e+06	-55639.1	955.818	-29741.5	0.000000	0.000000	6.572969	0.007089	NaN	0.000000	0.001528	0.001698	28.0785	0.016115	0.002084	7.731693	-88.9887	14.1148	0.014469	0.571411	-0.421164	-0.422485	0.007089	7.731693	-0.421851	-273316	-2.593852E-8	NaN
340	1.000000	0.610752	7.36839e+06	-55639.1	955.818	-29741.5	0.000000	0.000000	6.610989	0.032736	NaN	0.000000	0.001476	0.001682	28.0795	0.063919	0.001950	32.7853	28.3972	-165.712	0.013976	0.609445	-0.383145	-0.384451	0.032736	32.7853	-0.383893	-78655.3	-4.161917E-7	NaN
340	1.000000	0.648757	7.36839e+06	-55639.1	955.818	-29741.5	0.000000	0.000000	6.648994	0.012158	NaN	0.000000	0.001479	0.001659	28.0794	0.098125	0.002131	46.052	63.1342	11.8082	-0.026609	0.647365	-0.345139	-0.346531	0.012158	46.052	-0.345337	-21840.2	-5.566781E-7	NaN
340	1.000000	0.686781	7.36839e+06	-55639.1	955.818	-29741.5	0.000000	0.000000	6.687017	-0.027290	NaN	0.000000	0.001497	0.001642	28.0795	0.050387	0.001966	25.6313	52.3928	-167.091	-0.001925	0.685469	-0.307115	-0.308427	-0.027290	25.6313	-0.306316	-5840.91	4.672146E-6	NaN
340	1.000000	0.724821	7.36839e+06	-55639.1	955.818	-29741.5	0.000000	0.000000	6.725057	-0.020854	NaN	0.000000	0.001501	0.001696	28.0794	0.072830	0.002049	35.5487	-142.304	16.4422	0.011437	0.723444	-0.269075	-0.270453	-0.020854	35.5487	-0.268635	-1587.74	1.313437E-5	NaN
340	1.000000	0.762821	7.36839e+06	-55639.1	955.818	-29741.5	0.000000	0.000000	6.763058	0.022344	NaN	0.000000	0.001525	0.001711	28.0785	0.090011	0.002062	43.644	154.879	-165.573	0.006871	0.761524	-0.231075	-0.232372	0.022344	43.644	-0.231459	-422.219	-5.291931E-5	NaN
340	1.000000	0.800849	7.36839e+06	-55639.1	955.818	-29741.5	0.000000	0.000000	6.801084	-0.027578	NaN	0.000000	0.001601	0.001676	28.0782	0.056529	0.001946	29.0558	-95.3024	17.933	-0.016237	0.799493	-0.193047	-0.194403	-0.027578	29.0558	-0.192335	-98.3931	0.000280	NaN
340	1.000000	0.838833	7.36839e+06	-55639.1	955.817	-29741.5	0.000000	0.000000	6.839071	0.024190	NaN	0.000000	0.001513	0.001655	28.0781	0.067826	0.002005	33.8309	35.75	-164.333	-0.028995	0.837562	-0.155063	-0.156334	0.024190	33.8309	-0.155599	-22.8746	-0.001057	NaN
340	1.000000	0.876878	7.36839e+06	-55639.1	955.82	-29741.5	0.000000	0.000000	6.877114	-0.035642	NaN	0.000000	0.001527	0.001678	28.0785	0.123790	0.001902	65.0807	-144.339	17.5826	-0.033312	0.875504	-0.117018	-0.118392	-0.035642	65.0807	-0.116607	-4.122052	0.008647	NaN
340	1.000000	0.914857	7.36839e+06	-55639.1	955.819	-29741.5	0.000000	0.000000	6.915094	0.011231	NaN	0.000000	0.001607	0.001672	28.0795	0.055213	0.002068	26.6938	82.6951	-162.885	0.007349	0.913582	-0.079039	-0.080314	0.011231	26.6938	-0.079355	-0.596370	-0.018833	NaN
340	1.000000	0.952887	7.36839e+06	-55639.1	955.818	-29741.5	0.000000	0.000000	6.953123	-0.018399	NaN	0.000000	0.001516	0.001674	28.0794	0.112931	0.002089	54.06	135.645	17.9205	-0.006929	0.951501	-0.041009	-0.042395	-0.018399	54.06	-0.040754	-0.047673	0.385946	NaN
340	1.000000	0.990910	7.36839e+06	-55639.1	955.82	-29741.5	0.000000	0.000000	6.991148	0.036329	NaN	0.000000	0.001501	0.001646	28.0794	0.092608	0.001933	47.9008	31.1413	-163.158	0.020460	0.989594	-0.002986	-0.004302	0.036329	47.9008	-0.003554	-0.002488	-14.6003	NaN
340	2.000000	1.009993	7.36839e+06	-55639.1	955.819	-29741.5	0.000000	0.000000	7.010845	14.9639	NaN	0.000000	0.001467	0.001643	28.0783	15.8118	0.001910	8276.48	8.374831	5.489283	15.2954	1.009629	0.016097	0.015733	14.9639	8276.48	0.014741	0.014942	1001.5	61861.6
340	2.000000	1.019464	7.36839e+06	-55639.1	955.82	-29741.5	0.000000	0.000000	7.020973	30.9196	NaN	0.000000	0.001571	0.001698	28.0782	24.0817	0.001677	14363	1.857250	-173.931	31.6473	1.019097	0.025568	0.025201	30.9196	14363	0.023954	0.029140	1061.07	76873.1
340	2.000000	1.028879	7.36839e+06	-55639.1	955.821	-29741.5	0.000000	0.000000	7.031250	51.8886	NaN	0.000000	0.001489	0.001698	28.0792	33.6825	0.001794	18775.9	8.715114	-3.140602	50.7247	1.028514	0.034983	0.034618	51.8886	18775.9	0.032910	0.046991	1104.22	79134.8
340	2.000000	1.038322	7.36839e+06	-55639.1	955.82	-29741.5	0.000000	0.000000	7.041749	77.5497	NaN	0.000000	0.001506	0.001671	28.0784	40.8786	0.001665	24547	0.657534	-178.195	73.5695	1.038081	0.044426	0.044185	77.5497	24547	0.042057	0.069451	1116.61	85100.5
340	2.000000	1.047804	7.36839e+06	-55639.1	955.821	-29741.5	0.000000	0.000000	7.052866	117.297	NaN	0.000000	0.001524	0.001646	28.0796	51.1126	0.001771	28858.5	6.138793	-4.678519	112.627	1.047526	0.053908	0.053630	117.297	28858.5	0.050859	0.095088	1233.56	85503.8
340	2.000000	1.057341	7.36839e+06	-55639.1	955.821	-29741.5	0.000000	0.000000	7.063918	154.12	NaN	0.000000	0.001574	0.001672	28.0794	60.1719	0.001799	33452.5	3.586384	176.993	153.413	1.056971	0.063445	0.063075	154.12	33452.5	0.059989	0.125771	1225.41	86181.2
340	2.000000	1.066888	7.36839e+06	-55639.1	955.821	-29741.5	0.000000	0.000000	7.074758	185.563	NaN	0.000000	0.001548	0.001694	28.0794	68.9017	0.001763	39081.5	2.356070	-3.329874	184.611	1.066573	0.072992	0.072677	185.563	39081.5	0.069431	0.161779	1147.01	88773.5
340	2.000000	1.076328	7.36839e+06	-55639.1	955.821	-29741.5	0.000000	0.000000	7.086488	241.218	NaN	0.000000	0.001554	0.001730	28.0783	77.9669	0.001823	42778.7	4.483133	173.97	241.072	1.076038	0.082432	0.082142	241.218	42778.7	0.078203	0.199048	1211.86	87603.8
340	2.000000	1.085914	7.36839e+06	-55639.1	955.82	-29741.5	0.000000	0.000000	7.098633	303.41	NaN	0.000000	0.001538	0.001670	28.0784	86.3611	0.001797	48050.1	8.808598	-9.609375	306.313	1.085377	0.092018	0.091481	303.41	48050.1	0.087283	0.241410	1256.82	89349
340	2.000000	1.095159	7.36839e+06	-55639.1	955.821	-29741.5	0.000000	0.000000	7.110222	360.409	NaN	0.000000	0.001532	0.001681	28.0781	94.4615	0.001803	52383	4.733945	172.953	353.687	1.094851	0.101263	0.100955	360.409	52383	0.096103	0.286199	1259.29	89460
340	2.000000	1.102258	7.36839e+06	-55639.1	955.821	-29741.5	0.000000	0.000000	7.119346	409.624	NaN	0.000000	0.001579	0.001673	28.0782	99.3536	0.001828	54338.1	1.446211	175.879	404.745	1.101931	0.108362	0.108035	409.624	54338.1	0.102708	0.322065	1271.87	87479.4