Folder: unikorn_login/remote_trans/data/nanoindenter/0828-1/data/Data_2025-08-06,11h17m57s (part 97)

File: 2025-07-22_16-23-58_1_211.txt
2025-07-22, 16:23:58, 1
Index	Phase	Displacement	Time	Pos X	Pos Y	Pos Z	Rot A	Rot B	Piezo Z	Force A	Force B	Gripper	Voltage A	Voltage B	Temperature	Amplitude force	Amplitude pos	Stiffness	Phase shift	Phase excitation	Force A raw	Displacement raw	HMax	HMax raw	Real Force	Real Stiffness	Contact Depth	Area	Hardness	Reduced Mod.
[#]	[#]	[um]	[s]	[um]	[um]	[um]	[m°]	[m°]	[um]	[uN]	[uN]	[V]	[V]	[V]	[°C]	[uN]	[um]	[N/m]	[°]	[°]	[uN]	[um]	[um]	[um]	[uN]	[N/m]	[um]	[um^2]	[MPa]	[MPa]
211	1.000000	0.002563	7.36711e+06	-49189.1	955.818	-29760.2	0.000000	0.000000	6.002823	0.022899	NaN	0.000000	0.001639	0.001797	28.0771	0.060174	0.001012	59.4324	46.9287	-165.602	0.050514	0.001276	-1.142885	-1.144173	0.022899	59.4324	-1.143174	-1.902414E+15	-1.203678E-17	NaN
211	1.000000	0.044484	7.36711e+06	-49189.1	955.818	-29760.2	0.000000	0.000000	6.044743	0.011771	NaN	0.000000	0.001591	0.001758	28.0771	0.024816	0.001938	12.8055	-11.1754	13.6762	-0.029228	0.043174	-1.100965	-1.102275	0.011771	12.8055	-1.101655	-5.275667E+14	-2.231207E-17	NaN
211	1.000000	0.086503	7.36711e+06	-49189.1	955.819	-29760.2	0.000000	0.000000	6.086764	0.047872	NaN	0.000000	0.001613	0.001755	28.0783	0.067253	0.002022	33.2671	-166.577	-167.458	0.061522	0.085193	-1.058946	-1.060256	0.047872	33.2671	-1.060025	-1.455993E+14	-3.287925E-16	NaN
211	1.000000	0.128517	7.36711e+06	-49189.1	955.819	-29760.2	0.000000	0.000000	6.128776	0.011972	NaN	0.000000	0.001650	0.001776	28.0787	0.083676	0.002096	39.9228	151.886	11.618	0.033388	0.127104	-1.016932	-1.018345	0.011972	39.9228	-1.017157	-3.860978E+13	-3.100692E-16	NaN
211	1.000000	0.170553	7.36711e+06	-49189.1	955.817	-29760.2	0.000000	0.000000	6.170814	0.063236	NaN	0.000000	0.001620	0.001783	28.0788	0.048633	0.001969	24.6998	49.1579	-163.164	0.047866	0.169294	-0.974896	-0.976155	0.063236	24.6998	-0.976816	-1.105378E+13	-5.720752E-15	NaN
211	1.000000	0.212525	7.36711e+06	-49189.1	955.818	-29760.2	0.000000	0.000000	6.212782	-0.065502	NaN	0.000000	0.001649	0.001734	28.0777	0.114467	0.001965	58.2447	86.0615	15.8309	-0.110344	0.211203	-0.932923	-0.934246	-0.065502	58.2447	-0.932080	-2.755915E+12	2.376773E-14	NaN
211	1.000000	0.254558	7.36711e+06	-49189.1	955.819	-29760.2	0.000000	0.000000	6.254819	0.058611	NaN	0.000000	0.001645	0.001765	28.0777	0.056113	0.001909	29.3883	44.8963	-165.158	-0.008717	0.253305	-0.890891	-0.892143	0.058611	29.3883	-0.892386	-8.019943E+11	-7.308117E-14	NaN
211	1.000000	0.296582	7.36711e+06	-49189.1	955.818	-29760.2	0.000000	0.000000	6.296841	-0.000607	NaN	0.000000	0.001641	0.001752	28.0774	0.130828	0.002035	64.2798	10.3835	15.9722	-0.016488	0.295271	-0.848867	-0.850178	-0.000607	64.2798	-0.848860	-2.066779E+11	2.936135E-15	NaN
211	1.000000	0.338610	7.36711e+06	-49189.1	955.819	-29760.2	0.000000	0.000000	6.338870	0.019808	NaN	0.000000	0.001573	0.001799	28.0776	0.064846	0.002006	32.3327	-6.788307	-167.796	0.013255	0.337281	-0.806839	-0.808168	0.019808	32.3327	-0.807298	-5.648202E+10	-3.506996E-13	NaN
211	1.000000	0.380609	7.36711e+06	-49189.1	955.818	-29760.2	0.000000	0.000000	6.380868	-0.003551	NaN	0.000000	0.001625	0.001756	28.0788	0.082115	0.001794	45.772	-14.4699	12.9469	0.027095	0.379269	-0.764840	-0.766180	-0.003551	45.772	-0.764782	-1.493973E+10	2.376766E-13	NaN
211	1.000000	0.422658	7.36711e+06	-49189.1	955.82	-29760.2	0.000000	0.000000	6.422918	0.031886	NaN	0.000000	0.001678	0.001795	28.0788	0.010277	0.002153	4.772693	38.1082	-165.861	-0.033896	0.421352	-0.722790	-0.724097	0.031886	4.772693	-0.727801	-4.686371E+9	-6.803969E-12	NaN
211	1.000000	0.464626	7.36711e+06	-49189.1	955.819	-29760.2	0.000000	0.000000	6.464883	-0.046047	NaN	0.000000	0.001672	0.001776	28.0787	0.023335	0.001912	12.2026	17.5918	19.8092	-0.029054	0.463349	-0.680822	-0.682100	-0.046047	12.2026	-0.677992	-9.789139E+8	4.703905E-11	NaN
211	1.000000	0.506681	7.36711e+06	-49189.1	955.819	-29760.2	0.000000	0.000000	6.506941	0.037838	NaN	0.000000	0.001674	0.001771	28.0773	0.045841	0.001929	23.762	101.811	-164.157	0.160598	0.505382	-0.638768	-0.640067	0.037838	23.762	-0.639962	-2.949624E+8	-1.282797E-10	NaN
211	1.000000	0.548709	7.36711e+06	-49189.1	955.818	-29760.2	0.000000	0.000000	6.548964	-0.097654	NaN	0.000000	0.001612	0.001778	28.0773	0.188691	0.002006	94.0763	31.2596	15.5361	-0.115700	0.547343	-0.596740	-0.598106	-0.097654	94.0763	-0.595961	-7.325319E+7	1.333103E-9	NaN
211	1.000000	0.590747	7.36711e+06	-49189.1	955.819	-29760.2	0.000000	0.000000	6.591007	0.050097	NaN	0.000000	0.001645	0.001762	28.0775	0.025142	0.002092	12.0177	139.345	-165.455	0.000715	0.589433	-0.554702	-0.556016	0.050097	12.0177	-0.557829	-2.179389E+7	-2.298656E-9	NaN
211	1.000000	0.632746	7.36711e+06	-49189.1	955.819	-29760.2	0.000000	0.000000	6.633006	0.022132	NaN	0.000000	0.001618	0.001756	28.0784	0.109946	0.001982	55.4852	56.2147	13.0519	0.009197	0.631370	-0.512702	-0.514078	0.022132	55.4852	-0.513002	-5.20252e+06	-4.254137E-9	NaN
211	1.000000	0.674753	7.36711e+06	-49189.1	955.818	-29760.2	0.000000	0.000000	6.675013	0.025751	NaN	0.000000	0.001642	0.001746	28.0788	0.018725	0.001938	9.659687	38.5463	-166.829	-0.034500	0.673508	-0.470696	-0.471941	0.025751	9.659687	-0.472696	-1.42299e+06	-1.809666E-8	NaN
211	1.000000	0.716760	7.36711e+06	-49189.1	955.819	-29760.2	0.000000	0.000000	6.717021	0.040148	NaN	0.000000	0.001598	0.001739	28.0791	0.015391	0.002051	7.503712	88.8501	15.1986	-0.039941	0.715388	-0.428688	-0.430060	0.040148	7.503712	-0.432701	-389280	-1.031327E-7	NaN
211	1.000000	0.758780	7.36711e+06	-49189.1	955.818	-29760.2	0.000000	0.000000	6.759039	0.005928	NaN	0.000000	0.001550	0.001699	28.0781	0.166527	0.001937	85.9519	118.603	-168.753	0.000481	0.757474	-0.386668	-0.387975	0.005928	85.9519	-0.386720	-86342.6	-6.865217E-8	NaN
211	1.000000	0.800794	7.36711e+06	-49189.1	955.818	-29760.2	0.000000	0.000000	6.801055	0.053828	NaN	0.000000	0.001610	0.001722	28.0783	0.071641	0.001964	36.4852	-114.853	16.1469	0.020094	0.799496	-0.344655	-0.345953	0.053828	36.4852	-0.345761	-22152.7	-2.429857E-6	NaN
211	1.000000	0.842840	7.36711e+06	-49189.1	955.818	-29760.2	0.000000	0.000000	6.843100	0.016226	NaN	0.000000	0.001608	0.001754	28.078	0.083492	0.002110	39.5738	6.355465	-165.07	-0.007167	0.841519	-0.302609	-0.303930	0.016226	39.5738	-0.302916	-5200.07	-3.120347E-6	NaN
211	1.000000	0.884839	7.36711e+06	-49189.1	955.819	-29760.2	0.000000	0.000000	6.885099	0.039459	NaN	0.000000	0.001601	0.001700	28.0775	0.087046	0.002033	42.8131	172.221	19.1785	0.043274	0.883498	-0.260610	-0.261950	0.039459	42.8131	-0.261301	-1227.01	-3.215853E-5	NaN
211	1.000000	0.926841	7.36711e+06	-49189.1	955.818	-29760.2	0.000000	0.000000	6.927102	0.062870	NaN	0.000000	0.001593	0.001694	28.0787	0.065923	0.002047	32.205	19.8045	-163.25	-0.039724	0.925582	-0.218608	-0.219866	0.062870	32.205	-0.220072	-278.502	-0.000226	NaN
211	1.000000	0.968850	7.36711e+06	-49189.1	955.818	-29760.2	0.000000	0.000000	6.969108	-0.008007	NaN	0.000000	0.001617	0.001745	28.0788	0.103841	0.002045	50.7845	-152.758	15.3306	-0.070326	0.967527	-0.176599	-0.177921	-0.008007	50.7845	-0.176481	-53.1356	0.000151	NaN
211	1.000000	1.010909	7.36711e+06	-49189.1	955.819	-29760.2	0.000000	0.000000	7.011168	0.004736	NaN	0.000000	0.001683	0.001734	28.0788	0.041671	0.002095	19.8897	-161.258	-164.933	-0.005881	1.009582	-0.134540	-0.135866	0.004736	19.8897	-0.134718	-9.395347	-0.000504	NaN
211	1.000000	1.052892	7.36711e+06	-49189.1	955.82	-29760.2	0.000000	0.000000	7.053150	-0.030970	NaN	0.000000	0.001670	0.001713	28.0777	0.043490	0.002103	20.6841	26.4824	16.9193	-0.040333	1.051535	-0.092556	-0.093914	-0.030970	20.6841	-0.091433	-1.167625	0.026524	NaN
211	1.000000	1.094958	7.36711e+06	-49189.1	955.819	-29760.2	0.000000	0.000000	7.095216	-0.031877	NaN	0.000000	0.001565	0.001749	28.0774	0.159422	0.001987	80.2121	-50.6202	-161.577	-0.019284	1.093607	-0.050490	-0.051842	-0.031877	80.2121	-0.050192	-0.092480	0.344685	NaN
211	1.000000	1.136908	7.36711e+06	-49189.1	955.821	-29760.2	0.000000	0.000000	7.137165	-0.033632	NaN	0.000000	0.001613	0.001669	28.0773	0.127541	0.002060	61.9155	-82.8098	14.8168	-0.067738	1.135574	-0.008541	-0.009874	-0.033632	61.9155	-0.008133	-0.005310	6.334195	NaN
211	2.000000	1.162552	7.36711e+06	-49189.1	955.82	-29760.2	0.000000	0.000000	7.163415	14.699	NaN	0.000000	0.001625	0.001737	28.0787	14.0461	0.001684	8341.14	7.318968	-174.999	14.9172	1.162184	0.017104	0.016735	14.699	8341.14	0.015782	0.016342	899.449	59613.4
211	2.000000	1.172926	7.36711e+06	-49189.1	955.819	-29760.2	0.000000	0.000000	7.174700	36.8316	NaN	0.000000	0.001610	0.001763	28.0786	23.9201	0.001651	14488.9	2.594703	3.914036	34.6306	1.172622	0.027478	0.027173	36.8316	14488.9	0.025571	0.032063	1148.72	73927.7
211	2.000000	1.183397	7.36711e+06	-49189.1	955.819	-29760.2	0.000000	0.000000	7.186230	62.5906	NaN	0.000000	0.001589	0.001735	28.0786	34.4232	0.001731	19882.8	6.956161	176.097	59.8485	1.183085	0.037949	0.037636	62.5906	19882.8	0.035588	0.053123	1178.22	78815.1
211	2.000000	1.193884	7.36711e+06	-49189.1	955.82	-29760.2	0.000000	0.000000	7.198334	101.937	NaN	0.000000	0.001616	0.001699	28.0774	43.3465	0.001805	24016.4	3.483369	0.765491	100.167	1.193528	0.048435	0.048079	101.937	24016.4	0.045252	0.078303	1301.82	78413.5
211	2.000000	1.204421	7.36711e+06	-49189.1	955.82	-29760.2	0.000000	0.000000	7.210585	143.598	NaN	0.000000	0.001725	0.001759	28.0776	54.3668	0.001818	29899.4	5.951843	175.212	142.605	1.204033	0.058973	0.058584	143.598	29899.4	0.055370	0.109733	1308.62	82464.4
211	2.000000	1.214874	7.36712e+06	-49189.1	955.82	-29760.2	0.000000	0.000000	7.223215	196.575	NaN	0.000000	0.001686	0.001729	28.0775	65.4443	0.001860	35182.8	4.552426	-5.098969	194.351	1.214583	0.069425	0.069134	196.575	35182.8	0.065235	0.145245	1353.4	84343.7
211	2.000000	1.225370	7.36712e+06	-49189.1	955.819	-29760.2	0.000000	0.000000	7.236574	266.185	NaN	0.000000	0.001654	0.001704	28.0775	74.4224	0.001893	39315.6	5.114005	173.818	265.716	1.225004	0.079921	0.079555	266.185	39315.6	0.074844	0.184347	1443.93	83660.3
211	2.000000	1.235822	7.36712e+06	-49189.1	955.82	-29760.2	0.000000	0.000000	7.250259	344.813	NaN	0.000000	0.001656	0.001723	28.0786	83.5589	0.001742	47965	4.597821	-7.592451	339.725	1.235471	0.090374	0.090022	344.813	47965	0.084982	0.230316	1497.13	91313.7
211	2.000000	1.246321	7.36712e+06	-49189.1	955.819	-29760.2	0.000000	0.000000	7.264057	425.045	NaN	0.000000	0.001678	0.001733	28.0788	93.2363	0.001735	53741.1	4.432347	172.363	422.806	1.246008	0.100872	0.100559	425.045	53741.1	0.094940	0.280093	1517.52	92774.5
211	2.000000	1.255338	7.36712e+06	-49189.1	955.821	-29760.2	0.000000	0.000000	7.275367	480.808	NaN	0.000000	0.001612	0.001751	28.0792	102.72	0.001830	56142	1.659223	174.381	478.886	1.255154	0.109889	0.109706	480.808	56142	0.103466	0.326307	1473.48	89794.1

File: 2025-07-22_16-23-58_1_212.txt
2025-07-22, 16:23:58, 1
Index	Phase	Displacement	Time	Pos X	Pos Y	Pos Z	Rot A	Rot B	Piezo Z	Force A	Force B	Gripper	Voltage A	Voltage B	Temperature	Amplitude force	Amplitude pos	Stiffness	Phase shift	Phase excitation	Force A raw	Displacement raw	HMax	HMax raw	Real Force	Real Stiffness	Contact Depth	Area	Hardness	Reduced Mod.
[#]	[#]	[um]	[s]	[um]	[um]	[um]	[m°]	[m°]	[um]	[uN]	[uN]	[V]	[V]	[V]	[°C]	[uN]	[um]	[N/m]	[°]	[°]	[uN]	[um]	[um]	[um]	[uN]	[N/m]	[um]	[um^2]	[MPa]	[MPa]
212	1.000000	0.002707	7.36712e+06	-49239.1	955.818	-29760	0.000000	0.000000	6.002820	-0.035946	NaN	0.000000	0.001624	0.001722	28.0785	0.120014	0.001043	115.025	-103.306	-162.714	-0.064921	0.001451	-1.099646	-1.100902	-0.035946	115.025	-1.099412	-4.922302E+14	7.302666E-17	NaN
212	1.000000	0.044651	7.36712e+06	-49239.1	955.818	-29760	0.000000	0.000000	6.044764	-0.031818	NaN	0.000000	0.001644	0.001735	28.0785	0.107626	0.001935	55.6345	-2.042718	16.1781	-0.063969	0.043298	-1.057702	-1.059055	-0.031818	55.6345	-1.057273	-1.337118E+14	2.379588E-16	NaN
212	1.000000	0.086684	7.36712e+06	-49239.1	955.818	-29760	0.000000	0.000000	6.086799	0.028598	NaN	0.000000	0.001646	0.001698	28.0784	0.132008	0.001935	68.2308	-66.6607	-164.873	0.039646	0.085317	-1.015669	-1.017036	0.028598	68.2308	-1.015983	-3.723095E+13	-7.681232E-16	NaN
212	1.000000	0.128687	7.36712e+06	-49239.1	955.818	-29760	0.000000	0.000000	6.128800	-0.039347	NaN	0.000000	0.001689	0.001747	28.0783	0.032856	0.001974	16.6431	-69.5768	17.894	-0.121014	0.127342	-0.973666	-0.975011	-0.039347	16.6431	-0.971893	-9.487874E+12	4.147124E-15	NaN
212	1.000000	0.170662	7.36712e+06	-49239.1	955.819	-29760	0.000000	0.000000	6.170774	-0.047783	NaN	0.000000	0.001588	0.001719	28.0774	0.091167	0.002054	44.3882	100.531	-162.363	-0.021385	0.169398	-0.931691	-0.932955	-0.047783	44.3882	-0.930884	-2.655371E+12	1.799487E-14	NaN
212	1.000000	0.212691	7.36712e+06	-49239.1	955.819	-29760	0.000000	0.000000	6.212803	-0.043319	NaN	0.000000	0.001606	0.001732	28.0777	0.053202	0.002070	25.7057	-160.619	14.3059	-0.040291	0.211309	-0.889662	-0.891044	-0.043319	25.7057	-0.888398	-7.083782E+11	6.115215E-14	NaN
212	1.000000	0.254725	7.36712e+06	-49239.1	955.817	-29760	0.000000	0.000000	6.254836	-0.067644	NaN	0.000000	0.001647	0.001739	28.0775	0.029092	0.002036	14.2914	-10.0495	-165.741	-0.050860	0.253425	-0.847628	-0.848928	-0.067644	14.2914	-0.844078	-1.780463E+11	3.799211E-13	NaN
212	1.000000	0.296769	7.36712e+06	-49239.1	955.819	-29760	0.000000	0.000000	6.296881	-0.037792	NaN	0.000000	0.001556	0.001730	28.0786	0.106831	0.002020	52.8863	-62.3798	15.9133	-0.062492	0.295357	-0.805584	-0.806996	-0.037792	52.8863	-0.805048	-5.264774E+10	7.178367E-13	NaN
212	1.000000	0.338765	7.36712e+06	-49239.1	955.818	-29760	0.000000	0.000000	6.338878	-0.022088	NaN	0.000000	0.001605	0.001718	28.0787	0.134647	0.002059	65.3973	90.2431	-166.301	0.040439	0.337395	-0.763588	-0.764958	-0.022088	65.3973	-0.763335	-1.427806E+10	1.547003E-12	NaN
212	1.000000	0.380753	7.36712e+06	-49239.1	955.818	-29760	0.000000	0.000000	6.380864	-0.075322	NaN	0.000000	0.001590	0.001744	28.0786	0.095135	0.002049	46.4204	106.545	14.9922	-0.030574	0.379382	-0.721600	-0.722971	-0.075322	46.4204	-0.720383	-3.712787E+9	2.028724E-11	NaN
212	1.000000	0.422812	7.36712e+06	-49239.1	955.819	-29760	0.000000	0.000000	6.422923	-0.075778	NaN	0.000000	0.001622	0.001718	28.0774	0.090374	0.002049	44.0962	30.7296	-165.325	-0.024265	0.421518	-0.679541	-0.680835	-0.075778	44.0962	-0.678252	-9.869616E+8	7.677956E-11	NaN
212	1.000000	0.464787	7.36712e+06	-49239.1	955.819	-29760	0.000000	0.000000	6.464900	-0.030335	NaN	0.000000	0.001613	0.001725	28.0775	0.102118	0.001956	52.2091	51.204	14.596	-0.080428	0.463416	-0.637566	-0.638937	-0.030335	52.2091	-0.637130	-2.697170E+8	1.124711E-10	NaN
212	1.000000	0.506821	7.36712e+06	-49239.1	955.819	-29760	0.000000	0.000000	6.506929	-0.141872	NaN	0.000000	0.001598	0.001692	28.0776	0.161196	0.002062	78.1766	132.488	-168.143	-0.123145	0.505549	-0.595532	-0.596804	-0.141872	78.1766	-0.594171	-6.920841E+7	2.049931E-9	NaN
212	1.000000	0.548838	7.36712e+06	-49239.1	955.819	-29760	0.000000	0.000000	6.548948	-0.099881	NaN	0.000000	0.001652	0.001732	28.0786	0.143387	0.001968	72.8427	-121.185	17.4481	-0.137397	0.547515	-0.553515	-0.554838	-0.099881	72.8427	-0.552486	-1.838183E+7	5.433653E-9	NaN
212	1.000000	0.590837	7.36712e+06	-49239.1	955.819	-29760	0.000000	0.000000	6.590947	-0.082913	NaN	0.000000	0.001654	0.001720	28.0786	0.071084	0.001931	36.8102	58.8555	-165.813	-0.055703	0.589542	-0.511516	-0.512811	-0.082913	36.8102	-0.509827	-4.69898e+06	1.764487E-8	NaN
212	1.000000	0.632880	7.36712e+06	-49239.1	955.819	-29760	0.000000	0.000000	6.632992	-0.053002	NaN	0.000000	0.001670	0.001736	28.079	0.004644	0.001912	2.428614	-89.4788	13.6541	-0.008232	0.631503	-0.469472	-0.470850	-0.053002	2.428614	-0.453105	-755175	7.018498E-8	NaN
212	1.000000	0.674902	7.36712e+06	-49239.1	955.818	-29760	0.000000	0.000000	6.675014	-0.046542	NaN	0.000000	0.001637	0.001701	28.0787	0.156282	0.001984	78.7637	-167.838	-163.987	-0.022466	0.673577	-0.427451	-0.428776	-0.046542	78.7637	-0.427008	-323382	1.439217E-7	NaN
212	1.000000	0.716927	7.36712e+06	-49239.1	955.819	-29760	0.000000	0.000000	6.717039	-0.061325	NaN	0.000000	0.001661	0.001746	28.0775	0.072095	0.002058	35.0315	153.122	14.2944	-0.000168	0.715581	-0.385426	-0.386772	-0.061325	35.0315	-0.384113	-79226.5	7.740412E-7	NaN
212	1.000000	0.758937	7.36712e+06	-49239.1	955.817	-29760	0.000000	0.000000	6.759048	-0.071455	NaN	0.000000	0.001621	0.001723	28.0778	0.069054	0.001894	36.466	-4.785232	-168.764	-0.097267	0.757622	-0.343416	-0.344731	-0.071455	36.466	-0.341946	-19494.6	3.665370E-6	NaN
212	1.000000	0.800989	7.36712e+06	-49239.1	955.818	-29760	0.000000	0.000000	6.801101	-0.046952	NaN	0.000000	0.001602	0.001705	28.0778	0.076034	0.002108	36.062	-108.641	14.3082	-0.067418	0.799644	-0.301364	-0.302709	-0.046952	36.062	-0.300388	-4768.75	9.845722E-6	NaN
212	1.000000	0.842954	7.36712e+06	-49239.1	955.819	-29760	0.000000	0.000000	6.843068	0.006155	NaN	0.000000	0.001616	0.001699	28.0792	0.064907	0.002008	32.3227	-95.7487	-165.245	0.009373	0.841622	-0.259399	-0.260731	0.006155	32.3227	-0.259542	-1153.19	-5.337139E-6	NaN
212	1.000000	0.884984	7.36712e+06	-49239.1	955.818	-29760	0.000000	0.000000	6.885096	-0.057512	NaN	0.000000	0.001616	0.001721	28.0788	0.107064	0.001832	58.4302	143.028	15.6324	-0.024637	0.883631	-0.217369	-0.218722	-0.057512	58.4302	-0.216630	-245.308	0.000234	NaN
212	1.000000	0.926998	7.36712e+06	-49239.1	955.818	-29760	0.000000	0.000000	6.927111	-0.032304	NaN	0.000000	0.001620	0.001731	28.0788	0.014459	0.001909	7.574013	-79.2727	-167.898	0.093287	0.925689	-0.175355	-0.176664	-0.032304	7.574013	-0.172156	-44.7674	0.000722	NaN
212	1.000000	0.969000	7.36712e+06	-49239.1	955.82	-29760	0.000000	0.000000	6.969115	0.020494	NaN	0.000000	0.001602	0.001743	28.0778	0.027470	0.001984	13.846	27.0241	14.9173	0.023686	0.967678	-0.133353	-0.134675	0.020494	13.846	-0.134463	-9.290365	-0.002206	NaN
212	1.000000	1.011011	7.36712e+06	-49239.1	955.821	-29760	0.000000	0.000000	7.011122	-0.072023	NaN	0.000000	0.001582	0.001690	28.0777	0.041175	0.002073	19.8651	33.7278	-165.691	-0.023701	1.009686	-0.091342	-0.092667	-0.072023	19.8651	-0.088622	-1.003130	0.071798	NaN
212	1.000000	1.053053	7.36712e+06	-49239.1	955.821	-29760	0.000000	0.000000	7.053166	-0.023389	NaN	0.000000	0.001684	0.001751	28.0777	0.034993	0.002008	17.4239	-29.2624	13.6005	-0.036238	1.051712	-0.049300	-0.050641	-0.023389	17.4239	-0.048293	-0.080997	0.288762	NaN
212	1.000000	1.095082	7.36712e+06	-49239.1	955.821	-29760	0.000000	0.000000	7.095206	0.250486	NaN	0.000000	0.001642	0.001724	28.0793	0.397630	0.002002	198.605	21.268	-165.869	0.199574	1.093782	-0.007271	-0.008571	0.250486	198.605	-0.008217	-0.005359	-46.7446	NaN
212	2.000000	1.123155	7.36712e+06	-49239.1	955.82	-29760	0.000000	0.000000	7.123920	15.8449	NaN	0.000000	0.001601	0.001754	28.0796	14.6785	0.001778	8256.55	5.169467	9.346863	14.1553	1.122812	0.020802	0.020459	15.8449	8256.55	0.019363	0.021551	735.243	51385.7
212	2.000000	1.133595	7.36712e+06	-49239.1	955.821	-29760	0.000000	0.000000	7.136884	77.2326	NaN	0.000000	0.001610	0.001731	28.079	29.6845	0.001650	17991.5	3.823268	-178.52	74.4271	1.133313	0.031242	0.030960	77.2326	17991.5	0.028022	0.036744	2101.89	85752.3
212	2.000000	1.144078	7.36712e+06	-49239.1	955.82	-29760	0.000000	0.000000	7.151242	171.451	NaN	0.000000	0.001508	0.001729	28.0791	41.2087	0.001733	23772.9	4.001491	-1.445392	166.871	1.143724	0.041725	0.041371	171.451	23772.9	0.036316	0.054856	3125.49	92735.4
212	2.000000	1.154554	7.36712e+06	-49239.1	955.82	-29760	0.000000	0.000000	7.166675	292.013	NaN	0.000000	0.001531	0.001692	28.0776	51.1269	0.001861	27477.5	-0.129976	-178.364	289.16	1.154255	0.052201	0.051902	292.013	27477.5	0.044231	0.075419	3871.89	91413.5
212	2.000000	1.164928	7.36712e+06	-49239.1	955.821	-29760	0.000000	0.000000	7.180931	386.426	NaN	0.000000	0.001563	0.001722	28.0776	58.1037	0.001811	32086	1.754111	-1.837731	376.358	1.164597	0.062575	0.062245	386.426	32086	0.053542	0.103676	3727.24	91043.5
212	2.000000	1.175477	7.36712e+06	-49239.1	955.821	-29760	0.000000	0.000000	7.196654	512.271	NaN	0.000000	0.001563	0.001711	28.0775	66.6629	0.001955	34104.2	4.271964	175.385	504.583	1.175196	0.073124	0.072843	512.271	34104.2	0.061858	0.132556	3864.58	85582
212	2.000000	1.186072	7.36713e+06	-49239.1	955.822	-29760	0.000000	0.000000	7.211225	608.961	NaN	0.000000	0.001567	0.001756	28.0786	73.5897	0.001926	38202.1	3.984432	-5.199414	607.832	1.185728	0.083719	0.083375	608.961	38202.1	0.071764	0.171337	3554.17	84321
212	2.000000	1.196657	7.36713e+06	-49239.1	955.821	-29760	0.000000	0.000000	7.225040	687.523	NaN	0.000000	0.001594	0.001722	28.0788	81.1434	0.001916	42358.1	9.618339	171.014	693.477	1.196067	0.094304	0.093714	687.523	42358.1	0.082130	0.216902	3169.74	83095.6
212	2.000000	1.206988	7.36713e+06	-49239.1	955.821	-29760	0.000000	0.000000	7.237456	738.211	NaN	0.000000	0.001646	0.001740	28.0789	85.5397	0.001998	42805	4.911449	-6.339533	733.919	1.206533	0.104635	0.104180	738.211	42805	0.091701	0.263400	2802.63	76200.9
212	2.000000	1.217113	7.36713e+06	-49239.1	955.822	-29760	0.000000	0.000000	7.250123	800.035	NaN	0.000000	0.001659	0.001714	28.0774	89.3869	0.001954	45744.7	7.623400	-8.728693	802.993	1.216502	0.114760	0.114149	800.035	45744.7	0.101643	0.316148	2530.58	74330.9