Folder: unikorn_login/remote_trans/data/nanoindenter/0828-1/data/Data_2025-08-06,11h17m57s (part 47)

File: 2025-07-22_16-23-58_1_111.txt
2025-07-22, 16:23:58, 1
Index	Phase	Displacement	Time	Pos X	Pos Y	Pos Z	Rot A	Rot B	Piezo Z	Force A	Force B	Gripper	Voltage A	Voltage B	Temperature	Amplitude force	Amplitude pos	Stiffness	Phase shift	Phase excitation	Force A raw	Displacement raw	HMax	HMax raw	Real Force	Real Stiffness	Contact Depth	Area	Hardness	Reduced Mod.
[#]	[#]	[um]	[s]	[um]	[um]	[um]	[m°]	[m°]	[um]	[uN]	[uN]	[V]	[V]	[V]	[°C]	[uN]	[um]	[N/m]	[°]	[°]	[uN]	[um]	[um]	[um]	[uN]	[N/m]	[um]	[um^2]	[MPa]	[MPa]
111	1.000000	0.002796	7.36612e+06	-44189.1	955.819	-29777	0.000000	0.000000	6.002811	0.037382	NaN	0.000000	0.001543	0.001642	28.0824	0.049815	0.001037	48.0385	-162.767	-163.557	0.050756	0.001542	-1.178721	-1.179976	0.037382	48.0385	-1.179305	-5.801755E+15	-6.443259E-18	NaN
111	1.000000	0.046776	7.36612e+06	-44189.1	955.818	-29777	0.000000	0.000000	6.046788	-0.057291	NaN	0.000000	0.001529	0.001584	28.122	0.100651	0.001928	52.2086	-122.356	-166.884	-0.042333	0.045464	-1.134741	-1.136053	-0.057291	52.2086	-1.133918	-1.429455E+15	4.007885E-17	NaN
111	1.000000	0.090754	7.36612e+06	-44189.1	955.818	-29777	0.000000	0.000000	6.090764	-0.102035	NaN	0.000000	0.001542	0.001632	28.0822	0.090925	0.002054	44.2608	169.356	-167.833	-0.089233	0.089501	-1.090763	-1.092016	-0.102035	44.2608	-1.089034	-3.571395E+14	2.857010E-16	NaN
111	1.000000	0.134784	7.36612e+06	-44189.1	955.818	-29777	0.000000	0.000000	6.134796	-0.054435	NaN	0.000000	0.001520	0.001614	28.122	0.030942	0.001977	15.6524	46.9224	-165.977	-0.138830	0.133457	-1.046733	-1.048060	-0.054435	15.6524	-1.044124	-8.900698E+13	6.115834E-16	NaN
111	1.000000	0.178784	7.36612e+06	-44189.1	955.818	-29777	0.000000	0.000000	6.178797	-0.009683	NaN	0.000000	0.001559	0.001621	28.0803	0.038669	0.001841	21.008	-139.311	-165.558	0.008409	0.177453	-1.002733	-1.004064	-0.009683	21.008	-1.002388	-2.442942E+13	3.963782E-16	NaN
111	1.000000	0.222813	7.36612e+06	-44189.1	955.819	-29777	0.000000	0.000000	6.222825	-0.018341	NaN	0.000000	0.001520	0.001616	28.123	0.068652	0.002088	32.8773	-51.7113	-165.924	0.027546	0.221475	-0.958705	-0.960042	-0.018341	32.8773	-0.958286	-6.219602E+12	2.948897E-15	NaN
111	1.000000	0.266820	7.36612e+06	-44189.1	955.818	-29777	0.000000	0.000000	6.266829	-0.090283	NaN	0.000000	0.001502	0.001622	28.0807	0.071701	0.001992	35.9897	126.718	-165.669	-0.082405	0.265556	-0.914698	-0.915962	-0.090283	35.9897	-0.912816	-1.514252E+12	5.962232E-14	NaN
111	1.000000	0.310856	7.36612e+06	-44189.1	955.817	-29777	0.000000	0.000000	6.310868	-0.034307	NaN	0.000000	0.001629	0.001593	28.1227	0.050629	0.001990	25.4367	-61.5572	-164.985	-0.052853	0.309563	-0.870661	-0.871954	-0.034307	25.4367	-0.869649	-3.950927E+11	8.683253E-14	NaN
111	1.000000	0.354871	7.36613e+06	-44189.1	955.818	-29777	0.000000	0.000000	6.354881	-0.089165	NaN	0.000000	0.001554	0.001599	28.0811	0.090943	0.002095	43.4124	163.331	-165.731	-0.075213	0.353597	-0.826646	-0.827920	-0.089165	43.4124	-0.825106	-9.850025E+10	9.052304E-13	NaN
111	1.000000	0.398897	7.36613e+06	-44189.1	955.818	-29777	0.000000	0.000000	6.398908	-0.048411	NaN	0.000000	0.001537	0.001632	28.1207	0.084372	0.001983	42.5393	-73.8216	-163.776	-0.090606	0.397609	-0.782621	-0.783909	-0.048411	42.5393	-0.781767	-2.542396E+10	1.904155E-12	NaN
111	1.000000	0.442873	7.36613e+06	-44189.1	955.818	-29777	0.000000	0.000000	6.442885	-0.041997	NaN	0.000000	0.001511	0.001617	28.0811	0.123927	0.001901	65.1948	-157.797	-167.182	-0.014889	0.441643	-0.738644	-0.739874	-0.041997	65.1948	-0.738161	-6.486341E+9	6.474749E-12	NaN
111	1.000000	0.486869	7.36613e+06	-44189.1	955.818	-29777	0.000000	0.000000	6.486881	-0.037388	NaN	0.000000	0.001541	0.001612	28.1213	0.074056	0.001997	37.0892	48.9433	-166.488	-0.090463	0.485601	-0.694649	-0.695916	-0.037388	37.0892	-0.693893	-1.614755E+9	2.315380E-11	NaN
111	1.000000	0.530940	7.36613e+06	-44189.1	955.817	-29777	0.000000	0.000000	6.530952	-0.037488	NaN	0.000000	0.001548	0.001582	28.0833	0.025251	0.002006	12.5877	-110.756	-166.614	-0.037251	0.529630	-0.650577	-0.651888	-0.037488	12.5877	-0.648344	-3.843505E+8	9.753726E-11	NaN
111	1.000000	0.574965	7.36613e+06	-44189.1	955.818	-29777	0.000000	0.000000	6.574976	-0.065061	NaN	0.000000	0.001552	0.001628	28.1204	0.021175	0.002075	10.2031	-44.1913	-166.25	-0.107686	0.573616	-0.606552	-0.607901	-0.065061	10.2031	-0.601769	-8.806954E+7	7.387486E-10	NaN
111	1.000000	0.619012	7.36613e+06	-44189.1	955.818	-29777	0.000000	0.000000	6.619025	-0.022208	NaN	0.000000	0.001525	0.001625	28.0813	0.031981	0.002014	15.8788	-159.156	-162.987	-0.052822	0.617721	-0.562505	-0.563796	-0.022208	15.8788	-0.561456	-2.446367E+7	9.077949E-10	NaN
111	1.000000	0.663037	7.36613e+06	-44189.1	955.818	-29777	0.000000	0.000000	6.663047	-0.073051	NaN	0.000000	0.001543	0.001634	28.1187	0.051564	0.001932	26.6858	-134.567	-166.695	-0.042959	0.661667	-0.518480	-0.519851	-0.073051	26.6858	-0.516427	-5.80625e+06	1.258147E-8	NaN
111	1.000000	0.707018	7.36613e+06	-44189.1	955.819	-29777	0.000000	0.000000	6.707030	-0.038209	NaN	0.000000	0.001541	0.001639	28.0825	0.059059	0.002047	28.8509	-154.591	-165.933	-0.065056	0.705732	-0.474499	-0.475785	-0.038209	28.8509	-0.473506	-1.46071e+06	2.615769E-8	NaN
111	1.000000	0.751057	7.36613e+06	-44189.1	955.817	-29777	0.000000	0.000000	6.751068	-0.052704	NaN	0.000000	0.001527	0.001663	28.1196	0.044851	0.001909	23.4938	-109.288	-168.398	-0.059879	0.749747	-0.430460	-0.431770	-0.052704	23.4938	-0.428778	-342587	1.538412E-7	NaN
111	1.000000	0.795057	7.36613e+06	-44189.1	955.818	-29777	0.000000	0.000000	6.795070	-0.027013	NaN	0.000000	0.001645	0.001650	28.0832	0.059213	0.001983	29.8657	129.227	-165.152	0.053038	0.793778	-0.386460	-0.387739	-0.027013	29.8657	-0.385781	-83710.6	3.226919E-7	NaN
111	1.000000	0.839067	7.36613e+06	-44189.1	955.818	-29777	0.000000	0.000000	6.839080	-0.028858	NaN	0.000000	0.001522	0.001688	28.1193	0.067380	0.001971	34.1781	29.2581	-165.325	-0.080644	0.837765	-0.342450	-0.343753	-0.028858	34.1781	-0.341817	-19409.9	1.486776E-6	NaN
111	1.000000	0.883061	7.36613e+06	-44189.1	955.818	-29777	0.000000	0.000000	6.883076	0.035286	NaN	0.000000	0.001542	0.001646	28.0831	0.061447	0.002084	29.4837	147.617	-169.397	0.067261	0.881748	-0.298456	-0.299769	0.035286	29.4837	-0.299354	-4602.72	-7.666437E-6	NaN
111	1.000000	0.927112	7.36613e+06	-44189.1	955.817	-29777	0.000000	0.000000	6.927123	-0.080546	NaN	0.000000	0.001581	0.001692	28.1177	0.016040	0.002047	7.836145	-49.0937	-164.452	-0.078320	0.925817	-0.254405	-0.255701	-0.080546	7.836145	-0.246696	-730.769	0.000110	NaN
111	1.000000	0.971131	7.36613e+06	-44189.1	955.819	-29777	0.000000	0.000000	6.971142	-0.077675	NaN	0.000000	0.001597	0.001682	28.0816	0.005654	0.001987	2.845075	-151.298	-169.782	-0.076025	0.969851	-0.210386	-0.211666	-0.077675	2.845075	-0.189910	-89.6437	0.000866	NaN
111	1.000000	1.015109	7.36613e+06	-44189.1	955.819	-29777	0.000000	0.000000	7.015123	-0.000510	NaN	0.000000	0.001625	0.001669	28.1196	0.057489	0.001943	29.5806	154.835	-164.294	0.025508	1.013838	-0.166408	-0.167679	-0.000510	29.5806	-0.166395	-35.5437	1.435160E-5	NaN
111	1.000000	1.059144	7.36613e+06	-44189.1	955.819	-29777	0.000000	0.000000	7.059159	0.019974	NaN	0.000000	0.001648	0.001679	28.0833	0.015731	0.002033	7.737611	-63.8406	-169.911	-0.024923	1.057838	-0.122373	-0.123679	0.019974	7.737611	-0.124309	-5.892536	-0.003390	NaN
111	1.000000	1.103158	7.36613e+06	-44189.1	955.82	-29777	0.000000	0.000000	7.103171	-0.004081	NaN	0.000000	0.001577	0.001712	28.1188	0.045483	0.002097	21.6872	-111.505	-164.865	0.016426	1.101872	-0.078359	-0.079645	-0.004081	21.6872	-0.078218	-0.558293	0.007310	NaN
111	1.000000	1.147199	7.36613e+06	-44189.1	955.82	-29777	0.000000	0.000000	7.147211	-0.040800	NaN	0.000000	0.001528	0.001698	28.0816	0.083481	0.001936	43.1224	-83.2446	-168.104	0.013120	1.145868	-0.034318	-0.035649	-0.040800	43.1224	-0.033609	-0.029159	1.399258	NaN
111	2.000000	1.190642	7.36613e+06	-44189.1	955.821	-29777	0.000000	0.000000	7.190999	8.357626	NaN	0.000000	0.001541	0.001734	28.1171	8.645178	0.001743	4960.82	13.558	-175.546	8.202335	1.189835	0.009125	0.008318	8.357626	4960.82	0.007861	0.006900	1211.28	54564.2
111	2.000000	1.201728	7.36613e+06	-44189.1	955.82	-29777	0.000000	0.000000	7.202799	25.726	NaN	0.000000	0.001533	0.001743	28.0807	20.4134	0.001826	11181.8	6.855791	-178.231	25.1797	1.201388	0.020211	0.019871	25.726	11181.8	0.018485	0.020218	1272.45	71849
111	2.000000	1.212688	7.36613e+06	-44189.1	955.82	-29777	0.000000	0.000000	7.215009	56.1451	NaN	0.000000	0.001572	0.001726	28.1174	31.7274	0.001839	17248.4	6.707182	179.376	54.08	1.212386	0.031170	0.030868	56.1451	17248.4	0.028729	0.038151	1471.66	80680.9
111	2.000000	1.223708	7.36613e+06	-44189.1	955.82	-29777	0.000000	0.000000	7.227258	86.0302	NaN	0.000000	0.001564	0.001756	28.0841	44.2925	0.001967	22521.5	9.277197	173.174	87.2139	1.223373	0.042191	0.041856	86.0302	22521.5	0.039326	0.062299	1380.93	82438.5
111	2.000000	1.234589	7.36613e+06	-44189.1	955.819	-29777	0.000000	0.000000	7.240308	138.808	NaN	0.000000	0.001537	0.001762	28.118	53.1084	0.001788	29708.3	2.943366	176.908	134.952	1.234318	0.053072	0.052801	138.808	29708.3	0.049567	0.091081	1524.01	89936.9
111	2.000000	1.245580	7.36613e+06	-44189.1	955.821	-29777	0.000000	0.000000	7.253602	194.831	NaN	0.000000	0.001498	0.001741	28.0832	62.7262	0.001766	35518.4	4.456221	174.634	191.595	1.245295	0.064063	0.063777	194.831	35518.4	0.059949	0.125626	1550.89	91556.3
111	2.000000	1.256537	7.36613e+06	-44189.1	955.82	-29777	0.000000	0.000000	7.267440	264.909	NaN	0.000000	0.001529	0.001715	28.1151	75.1107	0.001792	41922.3	2.851873	174.698	261.524	1.256322	0.075020	0.074805	264.909	41922.3	0.070281	0.165232	1603.26	94226.1
111	2.000000	1.267617	7.36613e+06	-44189.1	955.82	-29777	0.000000	0.000000	7.281336	333.44	NaN	0.000000	0.001559	0.001747	28.0845	84.8981	0.001835	46264.7	3.531182	173.573	333.363	1.267132	0.086100	0.085615	333.44	46264.7	0.080694	0.210291	1585.61	92174.9
111	2.000000	1.278610	7.36613e+06	-44189.1	955.821	-29777	0.000000	0.000000	7.295723	416.002	NaN	0.000000	0.001560	0.001728	28.114	94.2411	0.001754	53732.7	8.167418	168.347	413.969	1.278163	0.097093	0.096646	416.002	53732.7	0.091286	0.261298	1592.06	96038.1
111	2.000000	1.288894	7.36613e+06	-44189.1	955.822	-29777	0.000000	0.000000	7.309010	489.07	NaN	0.000000	0.001507	0.001684	28.1229	104.583	0.001850	56546.5	5.075696	-9.789557	475.752	1.288538	0.107377	0.107021	489.07	56546.5	0.100890	0.311995	1567.56	92492.2

File: 2025-07-22_16-23-58_1_112.txt
2025-07-22, 16:23:58, 1
Index	Phase	Displacement	Time	Pos X	Pos Y	Pos Z	Rot A	Rot B	Piezo Z	Force A	Force B	Gripper	Voltage A	Voltage B	Temperature	Amplitude force	Amplitude pos	Stiffness	Phase shift	Phase excitation	Force A raw	Displacement raw	HMax	HMax raw	Real Force	Real Stiffness	Contact Depth	Area	Hardness	Reduced Mod.
[#]	[#]	[um]	[s]	[um]	[um]	[um]	[m°]	[m°]	[um]	[uN]	[uN]	[V]	[V]	[V]	[°C]	[uN]	[um]	[N/m]	[°]	[°]	[uN]	[um]	[um]	[um]	[uN]	[N/m]	[um]	[um^2]	[MPa]	[MPa]
112	1.000000	0.002972	7.36613e+06	-44239.1	955.818	-29776.9	0.000000	0.000000	6.002795	-0.018341	NaN	0.000000	0.001554	0.001730	28.1223	0.097271	0.000963	101.058	95.6002	-164.966	-0.000360	0.001724	-1.116425	-1.117673	-0.018341	101.058	-1.116289	-8.292344E+14	2.211840E-17	NaN
112	1.000000	0.044927	7.36613e+06	-44239.1	955.818	-29776.9	0.000000	0.000000	6.044753	0.036298	NaN	0.000000	0.001537	0.001722	28.0848	0.048017	0.001940	24.7534	167.457	17.4404	0.009808	0.043602	-1.074470	-1.075795	0.036298	24.7534	-1.075570	-2.355109E+14	-1.541243E-16	NaN
112	1.000000	0.086971	7.36613e+06	-44239.1	955.817	-29776.9	0.000000	0.000000	6.086794	-0.021668	NaN	0.000000	0.001588	0.001661	28.0795	0.040972	0.001999	20.5007	133.18	-164.667	-0.004363	0.085617	-1.032426	-1.033780	-0.021668	20.5007	-1.031634	-6.045795E+13	3.584048E-16	NaN
112	1.000000	0.128934	7.36613e+06	-44239.1	955.818	-29776.9	0.000000	0.000000	6.128758	0.000561	NaN	0.000000	0.001563	0.001691	28.114	0.068582	0.002054	33.387	-175.772	11.9557	-0.021428	0.127565	-0.990463	-0.991832	0.000561	33.387	-0.990476	-1.688572E+13	-3.319555E-17	NaN
112	1.000000	0.170980	7.36613e+06	-44239.1	955.818	-29776.9	0.000000	0.000000	6.170805	0.017406	NaN	0.000000	0.001587	0.001656	28.1233	0.076955	0.001880	40.9418	6.943829	-165.989	0.019160	0.169654	-0.948417	-0.949743	0.017406	40.9418	-0.948736	-4.623564E+12	-3.764684E-15	NaN
112	1.000000	0.212987	7.36613e+06	-44239.1	955.818	-29776.9	0.000000	0.000000	6.212811	0.014087	NaN	0.000000	0.001581	0.001648	28.0857	0.137719	0.002003	68.7678	-147.617	14.3144	-0.000395	0.211657	-0.906410	-0.907740	0.014087	68.7678	-0.906564	-1.246653E+12	-1.129949E-14	NaN
112	1.000000	0.255007	7.36613e+06	-44239.1	955.818	-29776.9	0.000000	0.000000	6.254832	0.014609	NaN	0.000000	0.001557	0.001665	28.0774	0.096731	0.002096	46.1392	-53.1068	-170.602	-0.047963	0.253673	-0.864390	-0.865724	0.014609	46.1392	-0.864627	-3.378687E+11	-4.323750E-14	NaN
112	1.000000	0.297014	7.36613e+06	-44239.1	955.819	-29776.9	0.000000	0.000000	6.296842	0.097259	NaN	0.000000	0.001562	0.001701	28.1119	0.073479	0.002048	35.8702	79.3663	14.2066	0.047274	0.295671	-0.822383	-0.823726	0.097259	35.8702	-0.824417	-9.640460E+10	-1.008860E-12	NaN
112	1.000000	0.339053	7.36614e+06	-44239.1	955.818	-29776.9	0.000000	0.000000	6.338879	0.043214	NaN	0.000000	0.001574	0.001710	28.1224	0.050813	0.002091	24.2991	77.6506	-166.353	0.043278	0.337708	-0.780344	-0.781689	0.043214	24.2991	-0.781678	-2.535310E+10	-1.704467E-12	NaN
112	1.000000	0.381068	7.36614e+06	-44239.1	955.818	-29776.9	0.000000	0.000000	6.380895	0.069474	NaN	0.000000	0.001563	0.001755	28.0861	0.035978	0.001944	18.5036	111.333	11.9189	0.199219	0.379680	-0.738329	-0.739717	0.069474	18.5036	-0.741145	-7.122807E+9	-9.753691E-12	NaN
112	1.000000	0.423070	7.36614e+06	-44239.1	955.818	-29776.9	0.000000	0.000000	6.422894	0.000503	NaN	0.000000	0.001603	0.001706	28.0809	0.097806	0.001999	48.9192	-177.827	-168.122	-0.037325	0.421758	-0.696327	-0.697638	0.000503	48.9192	-0.696335	-1.743688E+9	-2.883120E-13	NaN
112	1.000000	0.465081	7.36614e+06	-44239.1	955.818	-29776.9	0.000000	0.000000	6.464904	-0.009207	NaN	0.000000	0.001580	0.001727	28.1122	0.025647	0.002009	12.7635	146.627	14.7632	-0.060592	0.463734	-0.654316	-0.655662	-0.009207	12.7635	-0.653775	-4.562299E+8	2.018011E-11	NaN
112	1.000000	0.507138	7.36614e+06	-44239.1	955.818	-29776.9	0.000000	0.000000	6.506962	-0.000795	NaN	0.000000	0.001449	0.001716	28.1227	0.055790	0.002035	27.4204	-115.085	-162.453	-0.061941	0.505783	-0.612259	-0.613614	-0.000795	27.4204	-0.612237	-1.227125E+8	6.479209E-12	NaN
112	1.000000	0.549117	7.36614e+06	-44239.1	955.818	-29776.9	0.000000	0.000000	6.548938	-0.052368	NaN	0.000000	0.001503	0.001764	28.0855	0.104766	0.002144	48.8739	168.015	14.4825	-0.041871	0.547715	-0.570280	-0.571682	-0.052368	48.8739	-0.569477	-3.157927E+7	1.658299E-9	NaN
112	1.000000	0.591152	7.36614e+06	-44239.1	955.818	-29776.9	0.000000	0.000000	6.590976	0.016868	NaN	0.000000	0.001539	0.001707	28.0803	0.083364	0.001931	43.1626	121.155	-163.447	-0.011787	0.589844	-0.528245	-0.529553	0.016868	43.1626	-0.528538	-8.55604e+06	-1.971489E-9	NaN
112	1.000000	0.633173	7.36614e+06	-44239.1	955.818	-29776.9	0.000000	0.000000	6.632997	0.012851	NaN	0.000000	0.001568	0.001730	28.1115	0.158790	0.001931	82.227	6.809895	18.0361	0.067615	0.631807	-0.486224	-0.487590	0.012851	82.227	-0.486341	-2.20926e+06	-5.817052E-9	NaN
112	1.000000	0.675211	7.36614e+06	-44239.1	955.818	-29776.9	0.000000	0.000000	6.675035	-0.000474	NaN	0.000000	0.001535	0.001738	28.1248	0.013277	0.002016	6.584615	-66.0167	-166.224	0.044590	0.673930	-0.444185	-0.445467	-0.000474	6.584615	-0.444131	-564476	8.402570E-10	NaN
112	1.000000	0.717190	7.36614e+06	-44239.1	955.818	-29776.9	0.000000	0.000000	6.717018	0.106235	NaN	0.000000	0.001558	0.001719	28.0875	0.073004	0.001954	37.3698	67.0067	14.5822	-0.030609	0.715841	-0.402207	-0.403556	0.106235	37.3698	-0.404339	-154111	-6.893432E-7	NaN
112	1.000000	0.759223	7.36614e+06	-44239.1	955.818	-29776.9	0.000000	0.000000	6.759047	-0.009949	NaN	0.000000	0.001544	0.001686	28.0817	0.029701	0.001965	15.1118	-46.7123	-162.277	-0.033929	0.757894	-0.360174	-0.361503	-0.009949	15.1118	-0.359680	-35254.6	2.822096E-7	NaN
112	1.000000	0.801226	7.36614e+06	-44239.1	955.818	-29776.9	0.000000	0.000000	6.801053	0.081551	NaN	0.000000	0.001565	0.001662	28.11	0.060753	0.002041	29.7728	173.564	13.0521	0.093229	0.799922	-0.318171	-0.319475	0.081551	29.7728	-0.320225	-9374.68	-8.699053E-6	NaN
112	1.000000	0.843298	7.36614e+06	-44239.1	955.819	-29776.9	0.000000	0.000000	6.843124	0.046680	NaN	0.000000	0.001538	0.001675	28.124	0.039415	0.001898	20.7651	-176.728	-162.292	-0.011299	0.841923	-0.276099	-0.277474	0.046680	20.7651	-0.277785	-2185.35	-2.136032E-5	NaN
112	1.000000	0.885271	7.36614e+06	-44239.1	955.819	-29776.9	0.000000	0.000000	6.885095	-0.010729	NaN	0.000000	0.001513	0.001728	28.0852	0.087374	0.001889	46.263	163.838	14.6452	-0.021178	0.883983	-0.234126	-0.235414	-0.010729	46.263	-0.233952	-462.144	2.321560E-5	NaN
112	1.000000	0.927284	7.36614e+06	-44239.1	955.818	-29776.9	0.000000	0.000000	6.927109	0.027331	NaN	0.000000	0.001578	0.001720	28.0812	0.062511	0.001944	32.1497	-56.953	-163.051	0.036111	0.926007	-0.192113	-0.193389	0.027331	32.1497	-0.192751	-99.9698	-0.000273	NaN
112	1.000000	0.969314	7.36614e+06	-44239.1	955.818	-29776.9	0.000000	0.000000	6.969141	0.071074	NaN	0.000000	0.001620	0.001728	28.1088	0.056735	0.001899	29.8745	162.933	13.9995	0.079762	0.967970	-0.150083	-0.151427	0.071074	29.8745	-0.151867	-19.5871	-0.003629	NaN
112	1.000000	1.011336	7.36614e+06	-44239.1	955.819	-29776.9	0.000000	0.000000	7.011160	0.008382	NaN	0.000000	0.001672	0.001688	28.1268	0.088975	0.002050	43.4043	33.9431	-167.881	-0.007678	1.010015	-0.108061	-0.109382	0.008382	43.4043	-0.108206	-2.753499	-0.003044	NaN
112	1.000000	1.053353	7.36614e+06	-44239.1	955.819	-29776.9	0.000000	0.000000	7.053180	0.062222	NaN	0.000000	0.001666	0.001678	28.0858	0.086064	0.001900	45.3046	164.058	12.9766	0.060251	1.052007	-0.066044	-0.067390	0.062222	45.3046	-0.067074	-0.284244	-0.218905	NaN
112	1.000000	1.095352	7.36614e+06	-44239.1	955.819	-29776.9	0.000000	0.000000	7.095176	-0.004565	NaN	0.000000	0.001601	0.001674	28.0787	0.091322	0.002009	45.4663	83.8838	-162.095	0.001858	1.094111	-0.024045	-0.025286	-0.004565	45.4663	-0.023970	-0.015862	0.287765	NaN
112	2.000000	1.132448	7.36614e+06	-44239.1	955.818	-29776.9	0.000000	0.000000	7.132693	10.2455	NaN	0.000000	0.001574	0.001711	28.107	10.9878	0.001756	6256.37	8.084967	6.468466	9.776206	1.132068	0.013051	0.012671	10.2455	6256.37	0.011823	0.011279	908.371	53822.2
112	2.000000	1.142818	7.36614e+06	-44239.1	955.819	-29776.9	0.000000	0.000000	7.143754	27.0456	NaN	0.000000	0.001569	0.001714	28.1276	23.0976	0.001981	11659.3	6.677175	-177.519	25.6287	1.142532	0.023422	0.023135	27.0456	11659.3	0.021682	0.025254	1070.93	67031.5
112	2.000000	1.153385	7.36614e+06	-44239.1	955.82	-29776.9	0.000000	0.000000	7.155258	49.8584	NaN	0.000000	0.001573	0.001740	28.0882	32.2044	0.001775	18143.7	7.268962	-1.134883	52.1419	1.152912	0.033988	0.033515	49.8584	18143.7	0.031927	0.044833	1112.09	78288.9
112	2.000000	1.163788	7.36614e+06	-44239.1	955.819	-29776.9	0.000000	0.000000	7.167108	85.043	NaN	0.000000	0.001593	0.001749	28.0809	42.3576	0.001861	22766.5	6.639845	177.218	84.4571	1.163442	0.044391	0.044045	85.043	22766.5	0.041590	0.068201	1246.95	79648
112	2.000000	1.174247	7.36614e+06	-44239.1	955.82	-29776.9	0.000000	0.000000	7.179117	122.763	NaN	0.000000	0.001553	0.001778	28.1075	53.034	0.001897	27955.3	5.154893	-3.506208	119.652	1.173905	0.054850	0.054508	122.763	27955.3	0.051556	0.097284	1261.91	81887.5
112	2.000000	1.184773	7.36614e+06	-44239.1	955.82	-29776.9	0.000000	0.000000	7.191448	166.676	NaN	0.000000	0.001578	0.001795	28.127	62.2268	0.001764	35284.1	0.647496	179.836	166.412	1.184504	0.065376	0.065107	166.676	35284.1	0.061834	0.132465	1258.27	88572.9
112	2.000000	1.195221	7.36614e+06	-44239.1	955.819	-29776.9	0.000000	0.000000	7.204036	218.74	NaN	0.000000	0.001545	0.001811	28.0875	74.2814	0.001884	39425.7	3.231555	-4.536421	214.191	1.194929	0.075824	0.075532	218.74	39425.7	0.071663	0.170917	1279.8	87128.3
112	2.000000	1.205701	7.36614e+06	-44239.1	955.82	-29776.9	0.000000	0.000000	7.217082	281.155	NaN	0.000000	0.001549	0.001795	28.0789	83.152	0.001850	44935.7	5.222583	173.109	280.097	1.205399	0.086304	0.086002	281.155	44935.7	0.081611	0.214503	1310.73	88643.8
112	2.000000	1.216207	7.36614e+06	-44239.1	955.821	-29776.9	0.000000	0.000000	7.230665	356.015	NaN	0.000000	0.001538	0.001832	28.1061	92.895	0.001793	51819.5	8.480852	-11.1248	352.821	1.215778	0.096810	0.096381	356.015	51819.5	0.091658	0.263181	1352.74	92286.7
112	2.000000	1.226676	7.36614e+06	-44239.1	955.822	-29776.9	0.000000	0.000000	7.244219	431.067	NaN	0.000000	0.001542	0.001825	28.1284	102.016	0.001810	56376.7	2.392830	174.245	427.786	1.226284	0.107279	0.106887	431.067	56376.7	0.101544	0.315601	1365.86	91686.2
112	2.000000	1.229193	7.36614e+06	-44239.1	955.821	-29776.9	0.000000	0.000000	7.247580	451.62	NaN	0.000000	0.001563	0.001793	28.0882	105.5	0.001822	57892.9	7.156957	-10.6286	448.086	1.228798	0.109796	0.109401	451.62	57892.9	0.103945	0.329000	1372.7	92214.7