Folder: unikorn_login/remote_trans/data/nanoindenter/0828-1/data/Data_2025-08-06,11h17m57s (part 5)

File: 2025-07-22_16-23-58_1_7.txt
2025-07-22, 16:23:58, 1
Index	Phase	Displacement	Time	Pos X	Pos Y	Pos Z	Rot A	Rot B	Piezo Z	Force A	Force B	Gripper	Voltage A	Voltage B	Temperature	Amplitude force	Amplitude pos	Stiffness	Phase shift	Phase excitation	Force A raw	Displacement raw	HMax	HMax raw	Real Force	Real Stiffness	Contact Depth	Area	Hardness	Reduced Mod.
[#]	[#]	[um]	[s]	[um]	[um]	[um]	[m°]	[m°]	[um]	[uN]	[uN]	[V]	[V]	[V]	[°C]	[uN]	[um]	[N/m]	[°]	[°]	[uN]	[um]	[um]	[um]	[uN]	[N/m]	[um]	[um^2]	[MPa]	[MPa]
7.000000	1.000000	0.002678	7.36511e+06	-38989.1	955.818	-29796.1	0.000000	0.000000	6.002805	0.048109	NaN	0.000000	0.001525	0.001737	28.1257	0.057576	0.000977	58.912	13.3032	-167.294	0.100785	0.001486	-1.133714	-1.134906	0.048109	58.912	-1.134326	-1.447595E+15	-3.323357E-17	NaN
7.000000	1.000000	0.046647	7.36511e+06	-38989.1	955.818	-29796.1	0.000000	0.000000	6.046775	0.058307	NaN	0.000000	0.001560	0.001731	28.0829	0.088525	0.001859	47.6236	-78.6167	-160.897	-0.005156	0.045339	-1.089745	-1.091053	0.058307	47.6236	-1.090663	-3.755925E+14	-1.552405E-16	NaN
7.000000	1.000000	0.090643	7.36511e+06	-38989.1	955.818	-29796.1	0.000000	0.000000	6.090771	0.061776	NaN	0.000000	0.001577	0.001721	28.1264	0.090015	0.002019	44.5907	-99.483	-168.155	0.019649	0.089355	-1.045749	-1.047038	0.061776	44.5907	-1.046788	-9.665683E+13	-6.391241E-16	NaN
7.000000	1.000000	0.134657	7.36511e+06	-38989.1	955.818	-29796.1	0.000000	0.000000	6.134786	0.096807	NaN	0.000000	0.001630	0.001722	28.0827	0.131604	0.001967	66.8897	-75.1516	-163.815	0.086293	0.133354	-1.001735	-1.003038	0.096807	66.8897	-1.002821	-2.475950E+13	-3.909876E-15	NaN
7.000000	1.000000	0.178665	7.36511e+06	-38989.1	955.818	-29796.1	0.000000	0.000000	6.178792	0.048599	NaN	0.000000	0.001637	0.001734	28.1264	0.061659	0.001999	30.8381	40.3738	-166.453	0.053190	0.177410	-0.957727	-0.958982	0.048599	30.8381	-0.958909	-6.341021E+12	-7.664195E-15	NaN
7.000000	1.000000	0.222689	7.36511e+06	-38989.1	955.819	-29796.1	0.000000	0.000000	6.222814	-0.004296	NaN	0.000000	0.001542	0.001708	28.0843	0.058209	0.002026	28.7341	48.1412	-165.81	0.005623	0.221360	-0.913703	-0.915033	-0.004296	28.7341	-0.913591	-1.551191E+12	2.769202E-15	NaN
7.000000	1.000000	0.266691	7.36511e+06	-38989.1	955.818	-29796.1	0.000000	0.000000	6.266817	0.011304	NaN	0.000000	0.001529	0.001692	28.1247	0.148510	0.001914	77.5791	-90.5366	-165.424	-0.046806	0.265413	-0.869701	-0.870979	0.011304	77.5791	-0.869810	-3.970793E+11	-2.846806E-14	NaN
7.000000	1.000000	0.310753	7.36511e+06	-38989.1	955.818	-29796.1	0.000000	0.000000	6.310882	0.100223	NaN	0.000000	0.001537	0.001671	28.0829	0.082463	0.001853	44.5139	47.8744	-164.218	0.105274	0.309441	-0.825639	-0.826952	0.100223	44.5139	-0.827328	-1.055755E+11	-9.493065E-13	NaN
7.000000	1.000000	0.354794	7.36511e+06	-38989.1	955.817	-29796.1	0.000000	0.000000	6.354921	0.050747	NaN	0.000000	0.001561	0.001707	28.1261	0.089373	0.001980	45.1397	-168.812	-166.23	0.123100	0.353394	-0.781598	-0.782998	0.050747	45.1397	-0.782441	-2.596579E+10	-1.954398E-12	NaN
7.000000	1.000000	0.398771	7.36511e+06	-38989.1	955.818	-29796.1	0.000000	0.000000	6.398899	0.075527	NaN	0.000000	0.001524	0.001744	28.0851	0.039934	0.001998	19.9826	-74.557	-164.369	0.051063	0.397492	-0.737621	-0.738900	0.075527	19.9826	-0.740456	-6.970526E+9	-1.083512E-11	NaN
7.000000	1.000000	0.442794	7.36511e+06	-38989.1	955.818	-29796.1	0.000000	0.000000	6.442924	0.127182	NaN	0.000000	0.001532	0.001740	28.1271	0.082998	0.001966	42.2178	-83.6519	-162.704	0.161516	0.441467	-0.693598	-0.694925	0.127182	42.2178	-0.695858	-1.717727E+9	-7.404064E-11	NaN
7.000000	1.000000	0.486789	7.36511e+06	-38989.1	955.818	-29796.1	0.000000	0.000000	6.486914	-0.017310	NaN	0.000000	0.001532	0.001778	28.0847	0.112057	0.002001	56.0114	53.0163	-164.215	0.057573	0.485512	-0.649603	-0.650880	-0.017310	56.0114	-0.649371	-3.970216E+8	4.359999E-11	NaN
7.000000	1.000000	0.530832	7.36511e+06	-38989.1	955.818	-29796.1	0.000000	0.000000	6.530961	0.094343	NaN	0.000000	0.001542	0.001803	28.126	0.048993	0.002125	23.0591	-140.442	-165.28	0.054760	0.529533	-0.605560	-0.606860	0.094343	23.0591	-0.608629	-1.094577E+8	-8.619166E-10	NaN
7.000000	1.000000	0.574853	7.36511e+06	-38989.1	955.817	-29796.1	0.000000	0.000000	6.574979	0.024946	NaN	0.000000	0.001551	0.001759	28.0846	0.087161	0.002077	41.965	107.771	-165.07	0.045816	0.573544	-0.561540	-0.562848	0.024946	41.965	-0.561985	-2.487941E+7	-1.002670E-9	NaN
7.000000	1.000000	0.618874	7.36511e+06	-38989.1	955.818	-29796.1	0.000000	0.000000	6.619003	0.083552	NaN	0.000000	0.001591	0.001769	28.1279	0.083495	0.002113	39.514	148.634	-163.476	0.049657	0.617577	-0.517518	-0.518815	0.083552	39.514	-0.519104	-6.326e+06	-1.320763E-8	NaN
7.000000	1.000000	0.662881	7.36511e+06	-38989.1	955.818	-29796.1	0.000000	0.000000	6.663009	0.065245	NaN	0.000000	0.001532	0.001798	28.0832	0.069579	0.002083	33.402	134.763	-165.451	0.074455	0.661597	-0.473511	-0.474795	0.065245	33.402	-0.474976	-1.53165e+06	-4.259807E-8	NaN
7.000000	1.000000	0.706950	7.36511e+06	-38989.1	955.818	-29796.1	0.000000	0.000000	6.707077	0.037227	NaN	0.000000	0.001557	0.001790	28.1282	0.091006	0.001984	45.8646	-32.6058	-163.626	-0.036495	0.705569	-0.429442	-0.430823	0.037227	45.8646	-0.430051	-357093	-1.042502E-7	NaN
7.000000	1.000000	0.750939	7.36511e+06	-38989.1	955.818	-29796.1	0.000000	0.000000	6.751066	0.043517	NaN	0.000000	0.001523	0.001811	28.0807	0.109194	0.002036	53.6351	-50.6036	-164.672	0.024782	0.749625	-0.385453	-0.386767	0.043517	53.6351	-0.386062	-84488.7	-5.150581E-7	NaN
7.000000	1.000000	0.794962	7.36511e+06	-38989.1	955.818	-29796.1	0.000000	0.000000	6.795087	0.011429	NaN	0.000000	0.001525	0.001794	28.1277	0.061975	0.002004	30.9295	71.2137	-164.034	0.026698	0.793637	-0.341431	-0.342755	0.011429	30.9295	-0.341708	-19339.1	-5.909584E-7	NaN
7.000000	1.000000	0.838984	7.36512e+06	-38989.1	955.818	-29796.1	0.000000	0.000000	6.839110	0.027249	NaN	0.000000	0.001542	0.001740	28.0801	0.101265	0.001889	53.6072	-14.7412	-164.067	0.050625	0.837607	-0.297408	-0.298785	0.027249	53.6072	-0.297790	-4362.22	-6.246612E-6	NaN
7.000000	1.000000	0.882988	7.36512e+06	-38989.1	955.818	-29796.1	0.000000	0.000000	6.883113	0.006233	NaN	0.000000	0.001568	0.001723	28.1287	0.084749	0.001890	44.8306	33.3852	-166.579	0.023160	0.881681	-0.253404	-0.254711	0.006233	44.8306	-0.253509	-931.41	-6.692071E-6	NaN
7.000000	1.000000	0.927001	7.36512e+06	-38989.1	955.819	-29796.1	0.000000	0.000000	6.927131	0.112342	NaN	0.000000	0.001548	0.001794	28.0824	0.058046	0.002053	28.2758	103.492	-165.312	-0.015470	0.925715	-0.209391	-0.210677	0.112342	28.2758	-0.212371	-209.484	-0.000536	NaN
7.000000	1.000000	0.971017	7.36512e+06	-38989.1	955.818	-29796.1	0.000000	0.000000	6.971143	0.031641	NaN	0.000000	0.001552	0.001733	28.1291	0.036651	0.001947	18.8208	-135.205	-166.284	0.073884	0.969691	-0.165375	-0.166701	0.031641	18.8208	-0.166636	-35.8906	-0.000882	NaN
7.000000	1.000000	1.015036	7.36512e+06	-38989.1	955.817	-29796.1	0.000000	0.000000	7.015163	0.044745	NaN	0.000000	0.001536	0.001702	28.0806	0.053275	0.002000	26.6439	-36.2592	-166.638	0.037481	1.013765	-0.121357	-0.122627	0.044745	26.6439	-0.122616	-5.452597	-0.008206	NaN
7.000000	1.000000	1.059045	7.36512e+06	-38989.1	955.817	-29796.1	0.000000	0.000000	7.059172	0.035552	NaN	0.000000	0.001544	0.001703	28.1275	0.152610	0.001953	78.1582	-27.5521	-165.106	-0.008593	1.057749	-0.077347	-0.078643	0.035552	78.1582	-0.077688	-0.541277	-0.065681	NaN
7.000000	1.000000	1.103072	7.36512e+06	-38989.1	955.817	-29796.1	0.000000	0.000000	7.103201	0.095699	NaN	0.000000	0.001517	0.001704	28.0824	0.023407	0.001894	12.3599	-75.0248	-167.088	0.040020	1.101794	-0.033320	-0.034598	0.095699	12.3599	-0.039127	-0.042550	-2.249113	NaN
7.000000	2.000000	1.144753	7.36512e+06	-38989.1	955.817	-29796.1	0.000000	0.000000	7.145235	8.692542	NaN	0.000000	0.001516	0.001715	28.1286	9.092813	0.001669	5446.47	8.292338	-172.224	8.399338	1.144474	0.008361	0.008082	8.692542	5446.47	0.007164	0.006197	1402.79	63213.7
7.000000	2.000000	1.155641	7.36512e+06	-38989.1	955.818	-29796.1	0.000000	0.000000	7.156937	28.5021	NaN	0.000000	0.001553	0.001731	28.0816	21.5066	0.001808	11894.7	4.822579	-175.331	27.5347	1.155339	0.019249	0.018947	28.5021	11894.7	0.017451	0.018695	1524.61	79482
7.000000	2.000000	1.166552	7.36512e+06	-38989.1	955.818	-29796.1	0.000000	0.000000	7.168983	56.1195	NaN	0.000000	0.001591	0.001703	28.1291	32.0634	0.001801	17803.8	5.974694	178.946	53.3566	1.166265	0.030160	0.029873	56.1195	17803.8	0.027796	0.036299	1546.04	85377
7.000000	2.000000	1.177538	7.36512e+06	-38989.1	955.818	-29796.1	0.000000	0.000000	7.181614	96.1452	NaN	0.000000	0.001597	0.001722	28.0835	42.0714	0.001722	24430.7	4.851623	178.153	92.8886	1.177287	0.041146	0.040895	96.1452	24430.7	0.038194	0.059446	1617.36	91548.1
7.000000	2.000000	1.188540	7.36512e+06	-38989.1	955.819	-29796.1	0.000000	0.000000	7.194405	139.675	NaN	0.000000	0.001539	0.001682	28.1283	52.4812	0.001694	30986.4	1.662229	178.655	136.4	1.188319	0.052148	0.051927	139.675	30986.4	0.048767	0.088641	1575.74	95088.2
7.000000	2.000000	1.199500	7.36512e+06	-38989.1	955.818	-29796.1	0.000000	0.000000	7.207660	195.542	NaN	0.000000	0.001648	0.001696	28.0816	64.2171	0.001819	35299.6	5.270274	174.185	192.353	1.199215	0.063107	0.062823	195.542	35299.6	0.058953	0.122080	1601.75	92304
7.000000	2.000000	1.210558	7.36512e+06	-38989.1	955.817	-29796.1	0.000000	0.000000	7.221504	263.332	NaN	0.000000	0.001638	0.001729	28.128	74.2978	0.001890	39306.8	9.450412	170.614	263.602	1.210072	0.074165	0.073680	263.332	39306.8	0.069141	0.160611	1639.57	89609.4
7.000000	2.000000	1.221524	7.36512e+06	-38989.1	955.817	-29796.1	0.000000	0.000000	7.235585	339.119	NaN	0.000000	0.001563	0.001701	28.0826	85.3916	0.001873	45594.8	6.195821	172.304	338.307	1.221157	0.085132	0.084765	339.119	45594.8	0.079554	0.205109	1653.36	91980.8
7.000000	2.000000	1.232511	7.36512e+06	-38989.1	955.818	-29796.1	0.000000	0.000000	7.249338	406.462	NaN	0.000000	0.001570	0.001714	28.1314	95.2193	0.001919	49608.5	3.411791	173.829	404.239	1.232307	0.096119	0.095915	406.462	49608.5	0.089974	0.254697	1595.86	89808.4
7.000000	2.000000	1.242467	7.36512e+06	-38989.1	955.817	-29796.1	0.000000	0.000000	7.263497	508.729	NaN	0.000000	0.001583	0.001736	28.1301	101.693	0.001703	59719.4	-2.335102	178.55	503.638	1.242132	0.106075	0.105740	508.729	59719.4	0.099686	0.305409	1665.73	98729.6

File: 2025-07-22_16-23-58_1_8.txt
2025-07-22, 16:23:58, 1
Index	Phase	Displacement	Time	Pos X	Pos Y	Pos Z	Rot A	Rot B	Piezo Z	Force A	Force B	Gripper	Voltage A	Voltage B	Temperature	Amplitude force	Amplitude pos	Stiffness	Phase shift	Phase excitation	Force A raw	Displacement raw	HMax	HMax raw	Real Force	Real Stiffness	Contact Depth	Area	Hardness	Reduced Mod.
[#]	[#]	[um]	[s]	[um]	[um]	[um]	[m°]	[m°]	[um]	[uN]	[uN]	[V]	[V]	[V]	[°C]	[uN]	[um]	[N/m]	[°]	[°]	[uN]	[um]	[um]	[um]	[uN]	[N/m]	[um]	[um^2]	[MPa]	[MPa]
8.000000	1.000000	0.002798	7.36512e+06	-39039.1	955.818	-29796	0.000000	0.000000	6.002831	-0.053004	NaN	0.000000	0.001509	0.001713	28.0812	0.076307	0.000928	82.2043	165.641	-167.138	-0.038568	0.001562	-1.140698	-1.141934	-0.053004	82.2043	-1.140215	-1.736260E+15	3.052756E-17	NaN
8.000000	1.000000	0.046742	7.36512e+06	-39039.1	955.818	-29796	0.000000	0.000000	6.046778	0.005679	NaN	0.000000	0.001588	0.001734	28.1306	0.055857	0.001899	29.4121	139.996	-164.33	0.028389	0.045433	-1.096754	-1.098062	0.005679	29.4121	-1.096898	-4.554402E+14	-1.246843E-17	NaN
8.000000	1.000000	0.090728	7.36512e+06	-39039.1	955.818	-29796	0.000000	0.000000	6.090763	-0.026793	NaN	0.000000	0.001593	0.001717	28.0815	0.129277	0.001980	65.2881	20.9905	-163.494	-0.088744	0.089466	-1.052768	-1.054030	-0.026793	65.2881	-1.052460	-1.152072E+14	2.325627E-16	NaN
8.000000	1.000000	0.134781	7.36512e+06	-39039.1	955.817	-29796	0.000000	0.000000	6.134816	-0.007276	NaN	0.000000	0.001674	0.001760	28.129	0.151901	0.001946	78.043	-143.331	-162.104	-0.026058	0.133430	-1.008715	-1.010066	-0.007276	78.043	-1.008645	-2.965845E+13	2.453269E-16	NaN
8.000000	1.000000	0.178776	7.36512e+06	-39039.1	955.819	-29796	0.000000	0.000000	6.178813	0.014554	NaN	0.000000	0.001663	0.001759	28.0786	0.078848	0.001792	43.9924	123.725	-165.766	0.080073	0.177501	-0.964720	-0.965995	0.014554	43.9924	-0.964968	-7.653121E+12	-1.901761E-15	NaN
8.000000	1.000000	0.222804	7.36512e+06	-39039.1	955.818	-29796	0.000000	0.000000	6.222839	-0.014074	NaN	0.000000	0.001689	0.001765	28.129	0.080151	0.002007	39.9412	-113.324	-162.387	0.068704	0.221493	-0.920692	-0.922003	-0.014074	39.9412	-0.920428	-1.918573E+12	7.335613E-15	NaN
8.000000	1.000000	0.266835	7.36512e+06	-39039.1	955.819	-29796	0.000000	0.000000	6.266873	0.040066	NaN	0.000000	0.001664	0.001724	28.0805	0.048309	0.001900	25.4192	-91.9422	-164.505	-0.024340	0.265459	-0.876660	-0.878036	0.040066	25.4192	-0.877842	-5.099514E+11	-7.856771E-14	NaN
8.000000	1.000000	0.310811	7.36512e+06	-39039.1	955.818	-29796	0.000000	0.000000	6.310849	0.047956	NaN	0.000000	0.001574	0.001768	28.1304	0.086151	0.001958	43.9931	61.2157	-166.371	0.024411	0.309534	-0.832685	-0.833962	0.047956	43.9931	-0.833502	-1.280114E+11	-3.746197E-13	NaN
8.000000	1.000000	0.354848	7.36512e+06	-39039.1	955.818	-29796	0.000000	0.000000	6.354886	0.065465	NaN	0.000000	0.001535	0.001713	28.0804	0.045324	0.001954	23.1951	163.005	-163.765	0.040341	0.353523	-0.788648	-0.789973	0.065465	23.1951	-0.790765	-3.368786E+10	-1.943287E-12	NaN
8.000000	1.000000	0.398861	7.36512e+06	-39039.1	955.819	-29796	0.000000	0.000000	6.398895	-0.035164	NaN	0.000000	0.001553	0.001728	28.1308	0.088130	0.002010	43.8472	-5.172113	-164.243	-0.028124	0.397561	-0.744635	-0.745934	-0.035164	43.8472	-0.744033	-7.798025E+9	4.509323E-12	NaN
8.000000	1.000000	0.442864	7.36512e+06	-39039.1	955.818	-29796	0.000000	0.000000	6.442900	-0.003772	NaN	0.000000	0.001577	0.001695	28.0781	0.051896	0.002139	24.2566	143.16	-164.841	-0.073104	0.441572	-0.700631	-0.701923	-0.003772	24.2566	-0.700515	-1.988658E+9	1.896709E-12	NaN
8.000000	1.000000	0.486872	7.36512e+06	-39039.1	955.818	-29796	0.000000	0.000000	6.486907	-0.019457	NaN	0.000000	0.001591	0.001702	28.1303	0.143424	0.002109	67.9906	136.938	-166.185	-0.062800	0.485577	-0.656624	-0.657919	-0.019457	67.9906	-0.656410	-4.957722E+8	3.924614E-11	NaN
8.000000	1.000000	0.530980	7.36512e+06	-39039.1	955.818	-29796	0.000000	0.000000	6.531016	0.004484	NaN	0.000000	0.001561	0.001665	28.0783	0.024974	0.001890	13.2164	-151.829	-162.61	-0.003562	0.529652	-0.612516	-0.613843	0.004484	13.2164	-0.612770	-1.248029E+8	-3.592562E-11	NaN
8.000000	1.000000	0.574952	7.36512e+06	-39039.1	955.818	-29796	0.000000	0.000000	6.574990	0.050423	NaN	0.000000	0.001572	0.001702	28.1317	0.046716	0.002069	22.5775	43.729	-164.308	0.030204	0.573648	-0.568544	-0.569848	0.050423	22.5775	-0.570219	-3.233399E+7	-1.559456E-9	NaN
8.000000	1.000000	0.619020	7.36512e+06	-39039.1	955.818	-29796	0.000000	0.000000	6.619058	0.034789	NaN	0.000000	0.001569	0.001711	28.0797	0.051801	0.001960	26.4269	95.0804	-165.415	0.013956	0.617688	-0.524476	-0.525807	0.034789	26.4269	-0.525463	-7.75431e+06	-4.486423E-9	NaN
8.000000	1.000000	0.662989	7.36512e+06	-39039.1	955.818	-29796	0.000000	0.000000	6.663027	0.047910	NaN	0.000000	0.001559	0.001720	28.1318	0.058638	0.001920	30.5396	5.991074	-164.742	0.065786	0.661694	-0.480507	-0.481802	0.047910	30.5396	-0.481683	-1.90145e+06	-2.519670E-8	NaN
8.000000	1.000000	0.706978	7.36512e+06	-39039.1	955.817	-29796	0.000000	0.000000	6.707014	-0.002677	NaN	0.000000	0.001574	0.001716	28.0774	0.079718	0.002027	39.3193	131.827	-167.58	-0.015631	0.705658	-0.436518	-0.437838	-0.002677	39.3193	-0.436467	-440025	6.083767E-9	NaN
8.000000	1.000000	0.751018	7.36512e+06	-39039.1	955.819	-29796	0.000000	0.000000	6.751053	-0.029727	NaN	0.000000	0.001554	0.001673	28.1306	0.043349	0.002012	21.5436	107.664	-166.046	0.013993	0.749683	-0.392478	-0.393813	-0.029727	21.5436	-0.391443	-100880	2.946752E-7	NaN
8.000000	1.000000	0.795041	7.36512e+06	-39039.1	955.818	-29796	0.000000	0.000000	6.795078	0.008642	NaN	0.000000	0.001506	0.001709	28.0788	0.059230	0.001981	29.8959	12.6668	-165.02	0.004487	0.793700	-0.348454	-0.349796	0.008642	29.8959	-0.348671	-24418.1	-3.539231E-7	NaN
8.000000	1.000000	0.839065	7.36512e+06	-39039.1	955.818	-29796	0.000000	0.000000	6.839097	-0.072650	NaN	0.000000	0.001555	0.001763	28.1309	0.026429	0.001880	14.0611	164.532	-168.277	-0.154000	0.837746	-0.304431	-0.305750	-0.072650	14.0611	-0.300556	-4796.38	1.514678E-5	NaN
8.000000	1.000000	0.883091	7.36513e+06	-39039.1	955.818	-29796	0.000000	0.000000	6.883125	-0.033848	NaN	0.000000	0.001566	0.001719	28.081	0.022272	0.001984	11.2245	109.383	-166.508	-0.065205	0.881718	-0.260405	-0.261778	-0.033848	11.2245	-0.258143	-1097.58	3.083892E-5	NaN
8.000000	1.000000	0.927109	7.36513e+06	-39039.1	955.818	-29796	0.000000	0.000000	6.927147	0.047524	NaN	0.000000	0.001634	0.001765	28.1311	0.123055	0.001903	64.6771	-41.8951	-165.212	0.126095	0.925782	-0.216387	-0.217714	0.047524	64.6771	-0.216938	-248.108	-0.000192	NaN
8.000000	1.000000	0.971094	7.36513e+06	-39039.1	955.817	-29796	0.000000	0.000000	6.971129	-0.027146	NaN	0.000000	0.001551	0.001745	28.0802	0.106280	0.002024	52.5006	117.829	-166.209	-0.077063	0.969853	-0.172402	-0.173643	-0.027146	52.5006	-0.172014	-44.5153	0.000610	NaN
8.000000	1.000000	1.015095	7.36513e+06	-39039.1	955.818	-29796	0.000000	0.000000	7.015133	0.066679	NaN	0.000000	0.001582	0.001739	28.1302	0.084888	0.002102	40.3942	21.7884	-165.801	0.025185	1.013818	-0.128401	-0.129678	0.066679	40.3942	-0.129639	-7.498867	-0.008892	NaN
8.000000	1.000000	1.059152	7.36513e+06	-39039.1	955.818	-29796	0.000000	0.000000	7.059186	-0.034861	NaN	0.000000	0.001613	0.001751	28.078	0.083681	0.002030	41.2236	-99.0527	-166.982	0.076510	1.057892	-0.084344	-0.085604	-0.034861	41.2236	-0.083710	-0.764396	0.045606	NaN
8.000000	1.000000	1.103137	7.36513e+06	-39039.1	955.819	-29796	0.000000	0.000000	7.103174	0.025538	NaN	0.000000	0.001572	0.001737	28.1311	0.037909	0.001937	19.567	-3.517516	-162.573	0.049717	1.101845	-0.040359	-0.041651	0.025538	19.567	-0.041338	-0.049666	-0.514188	NaN
8.000000	1.000000	1.147160	7.36513e+06	-39039.1	955.819	-29796	0.000000	0.000000	7.147316	2.929299	NaN	0.000000	0.001561	0.001745	28.0805	3.766527	0.001839	2048.46	6.994672	-166.077	1.479782	1.145833	0.003664	0.002337	2.929299	2048.46	0.002592	0.002039	1436.72	41448.1
8.000000	2.000000	1.161817	7.36513e+06	-39039.1	955.819	-29796	0.000000	0.000000	7.163011	28.194	NaN	0.000000	0.001577	0.001729	28.1312	18.4662	0.001771	10428.8	7.752760	-177.765	29.1041	1.161492	0.018321	0.017996	28.194	10428.8	0.016293	0.017049	1653.73	72972.6
8.000000	2.000000	1.172754	7.36513e+06	-39039.1	955.82	-29796	0.000000	0.000000	7.175151	57.4598	NaN	0.000000	0.001538	0.001746	28.0792	29.0787	0.001814	16031.3	5.411875	-179.426	56.6203	1.172408	0.029258	0.028912	57.4598	16031.3	0.026570	0.033934	1693.28	79510.6
8.000000	2.000000	1.183749	7.36513e+06	-39039.1	955.82	-29796	0.000000	0.000000	7.187932	100.915	NaN	0.000000	0.001544	0.001762	28.1306	39.3032	0.001838	21389.4	5.054477	178.257	100.074	1.183449	0.040253	0.039953	100.915	21389.4	0.036715	0.055814	1808.08	82718.3
8.000000	2.000000	1.194751	7.36513e+06	-39039.1	955.82	-29796	0.000000	0.000000	7.201026	151.832	NaN	0.000000	0.001583	0.001686	28.0776	49.75	0.001813	27438.6	5.071545	175.817	150.036	1.194402	0.051255	0.050906	151.832	27438.6	0.047105	0.083676	1814.53	86663.3
8.000000	2.000000	1.205653	7.36513e+06	-39039.1	955.82	-29796	0.000000	0.000000	7.214359	210.98	NaN	0.000000	0.001537	0.001684	28.132	59.9069	0.001771	33819.9	6.226194	172.899	207.623	1.205334	0.062157	0.061839	210.98	33819.9	0.057479	0.116922	1804.45	90364.3
8.000000	2.000000	1.216704	7.36513e+06	-39039.1	955.82	-29796	0.000000	0.000000	7.228192	278.71	NaN	0.000000	0.001538	0.001666	28.0795	68.0875	0.001783	38180.2	2.728911	176.156	277.885	1.216334	0.073208	0.072838	278.71	38180.2	0.067733	0.154988	1798.27	88605.8
8.000000	2.000000	1.227690	7.36513e+06	-39039.1	955.819	-29796	0.000000	0.000000	7.242253	353.532	NaN	0.000000	0.001554	0.001693	28.132	79.0384	0.001819	43444.2	6.668837	171.611	351.933	1.227285	0.084194	0.083789	353.532	43444.2	0.078091	0.198549	1780.58	89078
8.000000	2.000000	1.238647	7.36513e+06	-39039.1	955.82	-29796	0.000000	0.000000	7.256662	437.529	NaN	0.000000	0.001554	0.001684	28.0773	88.3761	0.001818	48599	6.449524	170.316	435.232	1.238299	0.095151	0.094803	437.529	48599	0.088399	0.246883	1772.21	89362.3
8.000000	2.000000	1.249544	7.36513e+06	-39039.1	955.82	-29796	0.000000	0.000000	7.271110	523.954	NaN	0.000000	0.001546	0.001695	28.1315	96.1189	0.001718	55932	3.733193	172.05	517.891	1.249308	0.106048	0.105812	523.954	55932	0.099022	0.301806	1736.06	93018.6
8.000000	2.000000	1.250693	7.36513e+06	-39039.1	955.82	-29796	0.000000	0.000000	7.272569	531.488	NaN	0.000000	0.001529	0.001656	28.0793	99.1536	0.001857	53389.9	7.186885	169.323	530.69	1.250376	0.107197	0.106880	531.488	53389.9	0.099731	0.305653	1738.86	88230.4