Folder: unikorn_login/remote_trans/data/nanoindenter/0828-1/data/Data_2025-08-06,11h17m57s (part 33)

File: 2025-07-22_16-23-58_1_64.txt
2025-07-22, 16:23:58, 1
Index	Phase	Displacement	Time	Pos X	Pos Y	Pos Z	Rot A	Rot B	Piezo Z	Force A	Force B	Gripper	Voltage A	Voltage B	Temperature	Amplitude force	Amplitude pos	Stiffness	Phase shift	Phase excitation	Force A raw	Displacement raw	HMax	HMax raw	Real Force	Real Stiffness	Contact Depth	Area	Hardness	Reduced Mod.
[#]	[#]	[um]	[s]	[um]	[um]	[um]	[m°]	[m°]	[um]	[uN]	[uN]	[V]	[V]	[V]	[°C]	[uN]	[um]	[N/m]	[°]	[°]	[uN]	[um]	[um]	[um]	[uN]	[N/m]	[um]	[um^2]	[MPa]	[MPa]
64	1.000000	0.002617	7.36567e+06	-41839.1	955.818	-29785.5	0.000000	0.000000	6.002796	-0.026470	NaN	0.000000	0.001571	0.001651	28.0877	0.189274	0.000888	213.127	-135.096	-171.054	0.045445	0.001420	-1.076549	-1.077746	-0.026470	213.127	-1.076456	-2.420566E+14	1.093546E-16	NaN
64	1.000000	0.042589	7.36567e+06	-41839.1	955.818	-29785.5	0.000000	0.000000	6.042767	-0.063696	NaN	0.000000	0.001570	0.001664	28.0872	0.034522	0.001934	17.8489	-100.59	-167.616	0.006272	0.041233	-1.036577	-1.037933	-0.063696	17.8489	-1.033900	-6.485394E+13	9.821517E-16	NaN
64	1.000000	0.082598	7.36567e+06	-41839.1	955.818	-29785.5	0.000000	0.000000	6.082773	-0.137684	NaN	0.000000	0.001560	0.001685	28.0886	0.086359	0.002121	40.7102	-69.743	-164.772	-0.100677	0.081260	-0.996567	-0.997906	-0.137684	40.7102	-0.994031	-1.885365E+13	7.302801E-15	NaN
64	1.000000	0.122585	7.36567e+06	-41839.1	955.818	-29785.5	0.000000	0.000000	6.122766	0.009042	NaN	0.000000	0.001585	0.001657	28.0881	0.070381	0.002078	33.8742	-31.3229	-163.587	0.019323	0.121310	-0.956581	-0.957855	0.009042	33.8742	-0.956781	-5.935726E+12	-1.523371E-15	NaN
64	1.000000	0.162592	7.36567e+06	-41839.1	955.818	-29785.5	0.000000	0.000000	6.162771	-0.053945	NaN	0.000000	0.001591	0.001672	28.0876	0.076659	0.002082	36.8185	-138.923	-166.739	0.023650	0.161311	-0.916574	-0.917855	-0.053945	36.8185	-0.915475	-1.644767E+12	3.279818E-14	NaN
64	1.000000	0.202630	7.36567e+06	-41839.1	955.819	-29785.5	0.000000	0.000000	6.202809	-0.043799	NaN	0.000000	0.001547	0.001630	28.0869	0.059163	0.002012	29.4052	-134.065	-165.849	-0.066813	0.201291	-0.876535	-0.877875	-0.043799	29.4052	-0.875418	-4.728686E+11	9.262434E-14	NaN
64	1.000000	0.242654	7.36567e+06	-41839.1	955.818	-29785.5	0.000000	0.000000	6.242834	-0.035460	NaN	0.000000	0.001634	0.001648	28.087	0.019305	0.002095	9.213649	-90.8336	-162.558	-0.102615	0.241368	-0.836511	-0.837797	-0.035460	9.213649	-0.833625	-1.285019E+11	2.759496E-13	NaN
64	1.000000	0.282673	7.36567e+06	-41839.1	955.818	-29785.5	0.000000	0.000000	6.282850	-0.090651	NaN	0.000000	0.001606	0.001668	28.0873	0.023891	0.001970	12.1291	-141.671	-166.899	-0.037178	0.281356	-0.796493	-0.797810	-0.090651	12.1291	-0.790888	-3.381734E+10	2.680607E-12	NaN
64	1.000000	0.322692	7.36567e+06	-41839.1	955.818	-29785.5	0.000000	0.000000	6.322871	-0.029847	NaN	0.000000	0.001597	0.001623	28.0887	0.087950	0.001942	45.2841	77.8573	-168.479	-0.088210	0.321339	-0.756474	-0.757827	-0.029847	45.2841	-0.755980	-1.133967E+10	2.632092E-12	NaN
64	1.000000	0.362716	7.36567e+06	-41839.1	955.818	-29785.5	0.000000	0.000000	6.362893	-0.083669	NaN	0.000000	0.001548	0.001598	28.0875	0.056665	0.002034	27.852	-75.4996	-166.176	-0.114381	0.361406	-0.716450	-0.717760	-0.083669	27.852	-0.714197	-3.057115E+9	2.736877E-11	NaN
64	1.000000	0.402739	7.36567e+06	-41839.1	955.818	-29785.5	0.000000	0.000000	6.402917	-0.064374	NaN	0.000000	0.001586	0.001620	28.0881	0.009096	0.001998	4.553173	-90.6354	-167.223	-0.162254	0.401447	-0.676427	-0.677719	-0.064374	4.553173	-0.665823	-6.671313E+8	9.649357E-11	NaN
64	1.000000	0.442723	7.36567e+06	-41839.1	955.818	-29785.5	0.000000	0.000000	6.442901	-0.070856	NaN	0.000000	0.001581	0.001631	28.0869	0.026777	0.002057	13.0152	-85.1919	-169.856	-0.038912	0.441470	-0.636443	-0.637696	-0.070856	13.0152	-0.632360	-2.319667E+8	3.054571E-10	NaN
64	1.000000	0.482746	7.36567e+06	-41839.1	955.819	-29785.5	0.000000	0.000000	6.482923	-0.090565	NaN	0.000000	0.001597	0.001635	28.0876	0.128259	0.001956	65.5865	-58.0903	-166.235	-0.057373	0.481460	-0.596420	-0.597706	-0.090565	65.5865	-0.595384	-7.192408E+7	1.259168E-9	NaN
64	1.000000	0.522779	7.36567e+06	-41839.1	955.817	-29785.5	0.000000	0.000000	6.522959	-0.017316	NaN	0.000000	0.001575	0.001654	28.0865	0.057254	0.001919	29.835	131.104	-166.39	-0.032738	0.521431	-0.556387	-0.557735	-0.017316	29.835	-0.555952	-2.052880E+7	8.434838E-10	NaN
64	1.000000	0.562764	7.36567e+06	-41839.1	955.818	-29785.5	0.000000	0.000000	6.562942	-0.068982	NaN	0.000000	0.001589	0.001660	28.088	0.141473	0.002022	69.9724	148.674	-166.147	-0.079135	0.561508	-0.516402	-0.517657	-0.068982	69.9724	-0.515662	-5.66563e+06	1.217558E-8	NaN
64	1.000000	0.602809	7.36567e+06	-41839.1	955.819	-29785.5	0.000000	0.000000	6.602989	-0.039080	NaN	0.000000	0.001608	0.001639	28.0868	0.122101	0.001994	61.2398	110.597	-163.829	-0.109342	0.601485	-0.476356	-0.477681	-0.039080	61.2398	-0.475878	-1.57688e+06	2.478322E-8	NaN
64	1.000000	0.642826	7.36567e+06	-41839.1	955.819	-29785.5	0.000000	0.000000	6.643005	-0.057462	NaN	0.000000	0.001645	0.001647	28.0893	0.027150	0.002036	13.3334	65.0877	-169.088	0.023036	0.641540	-0.436339	-0.437626	-0.057462	13.3334	-0.433107	-394457	1.456744E-7	NaN
64	1.000000	0.682824	7.36567e+06	-41839.1	955.818	-29785.5	0.000000	0.000000	6.683002	-0.058831	NaN	0.000000	0.001592	0.001636	28.087	0.017504	0.001924	9.095823	112.235	-164.976	-0.010973	0.681507	-0.396342	-0.397659	-0.058831	9.095823	-0.391491	-101039	5.822643E-7	NaN
64	1.000000	0.722852	7.36567e+06	-41839.1	955.818	-29785.5	0.000000	0.000000	6.723032	-0.016095	NaN	0.000000	0.001571	0.001665	28.0882	0.068591	0.002036	33.691	-140.537	-166.116	-0.007560	0.721609	-0.356314	-0.357557	-0.016095	33.691	-0.355956	-31141.2	5.168262E-7	NaN
64	1.000000	0.762855	7.36567e+06	-41839.1	955.818	-29785.5	0.000000	0.000000	6.763036	-0.015178	NaN	0.000000	0.001561	0.001660	28.0869	0.161076	0.002059	78.2317	102.036	-166.687	-0.041026	0.761588	-0.316310	-0.317577	-0.015178	78.2317	-0.316165	-8168.32	1.858197E-6	NaN
64	1.000000	0.802926	7.36567e+06	-41839.1	955.818	-29785.5	0.000000	0.000000	6.803104	-0.061407	NaN	0.000000	0.001573	0.001649	28.0884	0.083116	0.002022	41.1113	-158.173	-165.987	-0.015717	0.801537	-0.276240	-0.277628	-0.061407	41.1113	-0.275120	-1991.64	3.083233E-5	NaN
64	1.000000	0.842911	7.36567e+06	-41839.1	955.818	-29785.5	0.000000	0.000000	6.843089	-0.066675	NaN	0.000000	0.001614	0.001670	28.0884	0.085560	0.001990	42.9971	169.484	-166.585	-0.114559	0.841600	-0.236254	-0.237566	-0.066675	42.9971	-0.235091	-481.596	0.000138	NaN
64	1.000000	0.882942	7.36567e+06	-41839.1	955.819	-29785.5	0.000000	0.000000	6.883119	-0.099561	NaN	0.000000	0.001554	0.001614	28.0898	0.103226	0.001891	54.5911	-161.89	-167.008	-0.060947	0.881606	-0.196223	-0.197559	-0.099561	54.5911	-0.194856	-108.345	0.000919	NaN
64	1.000000	0.922960	7.36567e+06	-41839.1	955.818	-29785.5	0.000000	0.000000	6.923137	-0.102435	NaN	0.000000	0.001541	0.001688	28.089	0.094224	0.001988	47.3955	-119.903	-165.602	-0.104937	0.921618	-0.156206	-0.157548	-0.102435	47.3955	-0.154585	-21.9334	0.004670	NaN
64	1.000000	0.962961	7.36567e+06	-41839.1	955.819	-29785.5	0.000000	0.000000	6.963139	-0.072302	NaN	0.000000	0.001583	0.001632	28.0893	0.052609	0.002059	25.5529	158.101	-168.83	-0.114236	0.961668	-0.116205	-0.117498	-0.072302	25.5529	-0.114083	-3.657292	0.019769	NaN
64	1.000000	1.002978	7.36567e+06	-41839.1	955.818	-29785.5	0.000000	0.000000	7.003157	-0.034366	NaN	0.000000	0.001596	0.001625	28.0896	0.056809	0.002181	26.0418	162.692	-164.892	-0.101274	1.001647	-0.076188	-0.077519	-0.034366	26.0418	-0.075198	-0.467346	0.073535	NaN
64	1.000000	1.042976	7.36567e+06	-41839.1	955.817	-29785.5	0.000000	0.000000	7.043153	-0.095762	NaN	0.000000	0.001547	0.001640	28.0896	0.096243	0.001941	49.5927	-88.1632	-168.313	-0.075844	1.041672	-0.036190	-0.037494	-0.095762	49.5927	-0.034742	-0.031469	3.043032	NaN
64	1.000000	1.082943	7.36567e+06	-41839.1	955.818	-29785.5	0.000000	0.000000	7.083267	3.502664	NaN	0.000000	0.001614	0.001631	28.088	4.491843	0.001767	2542.6	9.243323	-169.117	2.007227	1.081685	0.003777	0.002519	3.502664	2542.6	0.002744	0.002165	1617.57	49921.1
64	2.000000	1.095565	7.36567e+06	-41839.1	955.818	-29785.5	0.000000	0.000000	7.096463	17.4591	NaN	0.000000	0.001628	0.001688	28.0907	16.2471	0.001700	9558.33	5.965963	-176.173	16.7249	1.095264	0.016399	0.016099	17.4591	9558.33	0.015029	0.015324	1139.32	70545.1
64	2.000000	1.105530	7.36567e+06	-41839.1	955.818	-29785.5	0.000000	0.000000	7.107359	40.0965	NaN	0.000000	0.001648	0.001651	28.0908	26.3392	0.001818	14490.7	6.419626	-179.268	39.6793	1.105303	0.026365	0.026137	40.0965	14490.7	0.024289	0.029736	1348.43	76775.5
64	2.000000	1.115522	7.36567e+06	-41839.1	955.818	-29785.5	0.000000	0.000000	7.118467	67.2374	NaN	0.000000	0.001640	0.001654	28.0908	36.5949	0.001902	19242.8	6.193666	178.107	66.2512	1.115192	0.036357	0.036027	67.2374	19242.8	0.033736	0.048844	1376.58	79549.4
64	2.000000	1.125455	7.36567e+06	-41839.1	955.818	-29785.5	0.000000	0.000000	7.129818	101.762	NaN	0.000000	0.001625	0.001615	28.089	45.092	0.001875	24055.2	2.923756	179.679	97.8708	1.125133	0.046289	0.045967	101.762	24055.2	0.043117	0.072330	1406.9	81718.8
64	2.000000	1.135535	7.36567e+06	-41839.1	955.819	-29785.5	0.000000	0.000000	7.141651	144.414	NaN	0.000000	0.001621	0.001632	28.0897	54.8397	0.001870	29323	3.643977	176.614	145.126	1.135232	0.056369	0.056066	144.414	29323	0.052675	0.100862	1431.8	84356.3
64	2.000000	1.145468	7.36567e+06	-41839.1	955.819	-29785.5	0.000000	0.000000	7.153667	195.09	NaN	0.000000	0.001567	0.001625	28.0892	64.0679	0.001869	34288.2	4.327020	175.228	194.411	1.145122	0.066302	0.065956	195.09	34288.2	0.062035	0.133207	1464.56	85832.9
64	2.000000	1.155412	7.36567e+06	-41839.1	955.819	-29785.5	0.000000	0.000000	7.165889	250.529	NaN	0.000000	0.001519	0.001649	28.0915	73.2343	0.001775	41257.7	3.406497	174.86	246.835	1.155106	0.076246	0.075940	250.529	41257.7	0.071692	0.171039	1464.75	91144.5
64	2.000000	1.165463	7.36567e+06	-41839.1	955.818	-29785.5	0.000000	0.000000	7.178552	314.061	NaN	0.000000	0.001544	0.001696	28.0906	81.1971	0.001871	43387	6.314871	171.538	313.465	1.165162	0.086298	0.085997	314.061	43387	0.080869	0.211089	1487.81	86278
64	2.000000	1.175410	7.36567e+06	-41839.1	955.819	-29785.5	0.000000	0.000000	7.191450	385.884	NaN	0.000000	0.001558	0.001647	28.0919	89.863	0.001741	51611.9	0.778840	175.742	382.93	1.175126	0.096245	0.095960	385.884	51611.9	0.090637	0.258025	1495.53	92830.7
64	2.000000	1.185004	7.36567e+06	-41839.1	955.818	-29785.5	0.000000	0.000000	7.203622	448.62	NaN	0.000000	0.001539	0.001703	28.1288	99.6294	0.001761	56576.7	4.792990	-8.006796	448.855	1.184645	0.105838	0.105480	448.62	56576.7	0.099891	0.306525	1463.57	93363.7

File: 2025-07-22_16-23-58_1_65.txt
2025-07-22, 16:23:58, 1
Index	Phase	Displacement	Time	Pos X	Pos Y	Pos Z	Rot A	Rot B	Piezo Z	Force A	Force B	Gripper	Voltage A	Voltage B	Temperature	Amplitude force	Amplitude pos	Stiffness	Phase shift	Phase excitation	Force A raw	Displacement raw	HMax	HMax raw	Real Force	Real Stiffness	Contact Depth	Area	Hardness	Reduced Mod.
[#]	[#]	[um]	[s]	[um]	[um]	[um]	[m°]	[m°]	[um]	[uN]	[uN]	[V]	[V]	[V]	[°C]	[uN]	[um]	[N/m]	[°]	[°]	[uN]	[um]	[um]	[um]	[uN]	[N/m]	[um]	[um^2]	[MPa]	[MPa]
65	1.000000	0.002279	7.36568e+06	-41889.1	955.818	-29784.6	0.000000	0.000000	6.002830	0.056425	NaN	0.000000	0.001565	0.001640	28.0946	0.076122	0.000959	79.3436	160.465	-169.25	-0.001054	0.000986	-1.788162	-1.789455	0.056425	79.3436	-1.788695	-7.658124E+23	-7.367933E-26	NaN
65	1.000000	0.062233	7.36568e+06	-41889.1	955.819	-29784.6	0.000000	0.000000	6.062783	0.023546	NaN	0.000000	0.001588	0.001669	28.102	0.063011	0.002057	30.6279	-87.1681	-164.071	0.049140	0.060920	-1.728208	-1.729521	0.023546	30.6279	-1.728785	-1.226766E+23	-1.919381E-25	NaN
65	1.000000	0.122248	7.36568e+06	-41889.1	955.818	-29784.6	0.000000	0.000000	6.122796	-0.025959	NaN	0.000000	0.001613	0.001676	28.092	0.037580	0.001929	19.4769	-127.157	-163.972	0.011399	0.120945	-1.668193	-1.669496	-0.025959	19.4769	-1.667193	-1.864397E+22	1.392349E-24	NaN
65	1.000000	0.182251	7.36568e+06	-41889.1	955.818	-29784.6	0.000000	0.000000	6.182801	0.032308	NaN	0.000000	0.001593	0.001652	28.0991	0.055459	0.002123	26.1275	99.8864	-163.137	0.077426	0.180942	-1.608190	-1.609499	0.032308	26.1275	-1.609118	-3.151275E+21	-1.025227E-23	NaN
65	1.000000	0.242270	7.36568e+06	-41889.1	955.819	-29784.6	0.000000	0.000000	6.242822	0.072653	NaN	0.000000	0.001622	0.001667	28.095	0.067402	0.001963	34.3306	-50.4114	-166.767	0.129154	0.241021	-1.548170	-1.549420	0.072653	34.3306	-1.549758	-5.114117E+20	-1.420634E-22	NaN
65	1.000000	0.302287	7.36568e+06	-41889.1	955.818	-29784.6	0.000000	0.000000	6.302839	0.077682	NaN	0.000000	0.001648	0.001624	28.1007	0.126347	0.002116	59.7152	96.1775	-165.765	0.111054	0.300999	-1.488154	-1.489442	0.077682	59.7152	-1.489129	-7.971149E+19	-9.745443E-22	NaN
65	1.000000	0.362345	7.36568e+06	-41889.1	955.818	-29784.6	0.000000	0.000000	6.362893	-0.008598	NaN	0.000000	0.001665	0.001677	28.0942	0.038213	0.002077	18.3985	11.996	-163.865	0.010764	0.360995	-1.428096	-1.429446	-0.008598	18.3985	-1.427746	-1.211951E+19	7.094051E-22	NaN
65	1.000000	0.422353	7.36568e+06	-41889.1	955.818	-29784.6	0.000000	0.000000	6.422904	0.032505	NaN	0.000000	0.001575	0.001645	28.0976	0.118495	0.002017	58.7586	-22.9461	-165.884	0.031892	0.421013	-1.368087	-1.369428	0.032505	58.7586	-1.368502	-1.964285E+18	-1.654817E-20	NaN
65	1.000000	0.482376	7.36568e+06	-41889.1	955.819	-29784.6	0.000000	0.000000	6.482923	-0.043041	NaN	0.000000	0.001554	0.001707	28.0947	0.074369	0.001894	39.2572	2.657543	-163.865	-0.016112	0.481096	-1.308064	-1.309345	-0.043041	39.2572	-1.307242	-2.986528E+17	1.441160E-19	NaN
65	1.000000	0.542429	7.36568e+06	-41889.1	955.818	-29784.6	0.000000	0.000000	6.542980	0.045989	NaN	0.000000	0.001582	0.001671	28.0992	0.089673	0.001971	45.5067	-21.2684	-165.763	0.099393	0.541126	-1.248012	-1.249315	0.045989	45.5067	-1.248770	-4.937042E+16	-9.315151E-19	NaN
65	1.000000	0.602432	7.36568e+06	-41889.1	955.819	-29784.6	0.000000	0.000000	6.602984	0.063578	NaN	0.000000	0.001593	0.001649	28.0959	0.070942	0.002016	35.1854	-31.8403	-168.634	0.067029	0.601109	-1.188009	-1.189332	0.063578	35.1854	-1.189364	-7.912313E+15	-8.035327E-18	NaN
65	1.000000	0.662435	7.36568e+06	-41889.1	955.818	-29784.5	0.000000	0.000000	6.662984	0.006107	NaN	0.000000	0.001576	0.001688	28.0979	0.070357	0.002007	35.0548	44.2099	-164.231	0.007254	0.661095	-1.128006	-1.129345	0.006107	35.0548	-1.128137	-1.195714E+15	-5.107617E-18	NaN
65	1.000000	0.722488	7.36568e+06	-41889.1	955.819	-29784.5	0.000000	0.000000	6.723042	0.114881	NaN	0.000000	0.001554	0.001683	28.0959	0.034549	0.001999	17.2861	-98.5964	-160.643	0.144120	0.721158	-1.067952	-1.069282	0.114881	17.2861	-1.072937	-2.170919E+14	-5.291809E-16	NaN
65	1.000000	0.782504	7.36568e+06	-41889.1	955.818	-29784.5	0.000000	0.000000	6.783057	0.095130	NaN	0.000000	0.001518	0.001624	28.0971	0.201934	0.002136	94.5386	-111.881	-162.611	0.061259	0.781149	-1.007937	-1.009292	0.095130	94.5386	-1.008692	-2.970100E+13	-3.202914E-15	NaN
65	1.000000	0.842549	7.36568e+06	-41889.1	955.818	-29784.5	0.000000	0.000000	6.843097	-0.023969	NaN	0.000000	0.001561	0.001654	28.0971	0.021877	0.001936	11.2996	-135.64	-161.07	0.000389	0.841246	-0.947891	-0.949195	-0.023969	11.2996	-0.946300	-4.286771E+12	5.591433E-15	NaN
65	1.000000	0.902534	7.36568e+06	-41889.1	955.818	-29784.5	0.000000	0.000000	6.903084	0.028633	NaN	0.000000	0.001544	0.001687	28.0967	0.060873	0.001978	30.7809	177.648	-168.08	-0.028454	0.901270	-0.887907	-0.889171	0.028633	30.7809	-0.888604	-7.129329E+11	-4.016287E-14	NaN
65	1.000000	0.962561	7.36568e+06	-41889.1	955.817	-29784.5	0.000000	0.000000	6.963110	0.010284	NaN	0.000000	0.001501	0.001696	28.0975	0.061425	0.002069	29.6921	-68.4169	-163.316	0.085033	0.961307	-0.827880	-0.829134	0.010284	29.6921	-0.828140	-1.082858E+11	-9.497004E-14	NaN
65	1.000000	1.022580	7.36568e+06	-41889.1	955.819	-29784.5	0.000000	0.000000	7.023129	0.000298	NaN	0.000000	0.001521	0.001657	28.0963	0.078654	0.001984	39.6486	84.6436	-164.862	-0.104253	1.021298	-0.767861	-0.769143	0.000298	39.6486	-0.767867	-1.645506E+10	-1.810663E-14	NaN
65	1.000000	1.082638	7.36568e+06	-41889.1	955.819	-29784.5	0.000000	0.000000	7.083186	-0.021994	NaN	0.000000	0.001598	0.001692	28.0985	0.077192	0.001956	39.4557	150.013	-167.576	-0.034312	1.081305	-0.707802	-0.709136	-0.021994	39.4557	-0.707384	-2.468026E+9	8.911643E-12	NaN
65	1.000000	1.142626	7.36568e+06	-41889.1	955.819	-29784.5	0.000000	0.000000	7.143176	0.008112	NaN	0.000000	0.001562	0.001701	28.0966	0.021997	0.001893	11.6209	-110.316	-163.14	-0.019115	1.141365	-0.647814	-0.649076	0.008112	11.6209	-0.648338	-3.842827E+8	-2.111004E-11	NaN
65	1.000000	1.202681	7.36568e+06	-41889.1	955.82	-29784.5	0.000000	0.000000	7.203230	-0.007212	NaN	0.000000	0.001592	0.001706	28.0992	0.083220	0.001985	41.9244	-44.3315	-162.606	0.003192	1.201401	-0.587759	-0.589040	-0.007212	41.9244	-0.587630	-5.623321E+7	1.282531E-10	NaN
65	1.000000	1.262702	7.36568e+06	-41889.1	955.82	-29784.5	0.000000	0.000000	7.263252	0.027412	NaN	0.000000	0.001556	0.001711	28.0953	0.092176	0.002114	43.595	118.726	-167.313	-0.049327	1.261453	-0.527739	-0.528988	0.027412	43.595	-0.528210	-8.46671e+06	-3.237665E-9	NaN
65	1.000000	1.322708	7.36568e+06	-41889.1	955.819	-29784.5	0.000000	0.000000	7.323258	0.045943	NaN	0.000000	0.001611	0.001755	28.0979	0.071178	0.002029	35.0778	-162.621	-167.256	-0.045404	1.321432	-0.467733	-0.469008	0.045943	35.0778	-0.468716	-1.25139e+06	-3.671354E-8	NaN
65	1.000000	1.382774	7.36568e+06	-41889.1	955.82	-29784.5	0.000000	0.000000	7.383323	-0.016575	NaN	0.000000	0.001540	0.001747	28.094	0.072829	0.001925	37.837	-77.6043	-166.107	0.013641	1.381437	-0.407667	-0.409004	-0.016575	37.837	-0.407338	-170032	9.748283E-8	NaN
65	1.000000	1.442790	7.36568e+06	-41889.1	955.82	-29784.5	0.000000	0.000000	7.443339	-0.010962	NaN	0.000000	0.001583	0.001728	28.1016	0.025888	0.002087	12.4046	-15.6174	-167.282	0.016392	1.441510	-0.347651	-0.348931	-0.010962	12.4046	-0.346988	-23081	4.749481E-7	NaN
65	1.000000	1.502804	7.36568e+06	-41889.1	955.82	-29784.5	0.000000	0.000000	7.503353	0.009022	NaN	0.000000	0.001541	0.001718	28.0935	0.113429	0.002000	56.7042	-145.572	-165.077	-0.007297	1.501542	-0.287637	-0.288899	0.009022	56.7042	-0.287756	-3087.9	-2.921672E-6	NaN
65	1.000000	1.562847	7.36568e+06	-41889.1	955.82	-29784.5	0.000000	0.000000	7.563399	0.077489	NaN	0.000000	0.001538	0.001720	28.0997	0.028561	0.002035	14.032	116.671	-165.529	-0.030529	1.561498	-0.227594	-0.228943	0.077489	14.032	-0.231735	-426.474	-0.000182	NaN
65	1.000000	1.622882	7.36568e+06	-41889.1	955.819	-29784.5	0.000000	0.000000	7.623430	-0.010385	NaN	0.000000	0.001625	0.001769	28.0934	0.148058	0.002067	71.627	-175.898	-167.531	0.062988	1.621591	-0.167559	-0.168850	-0.010385	71.627	-0.167450	-37.0861	0.000280	NaN
65	1.000000	1.682902	7.36568e+06	-41889.1	955.82	-29784.5	0.000000	0.000000	7.683452	0.038557	NaN	0.000000	0.001644	0.001696	28.1023	0.033041	0.001889	17.4935	79.6225	-164.213	0.067867	1.681598	-0.107539	-0.108843	0.038557	17.4935	-0.109192	-2.889372	-0.013344	NaN
65	1.000000	1.742913	7.36569e+06	-41889.1	955.82	-29784.5	0.000000	0.000000	7.743464	0.046108	NaN	0.000000	0.001632	0.001740	28.0929	0.115102	0.002022	56.9376	173.21	-167.784	0.019109	1.741625	-0.047527	-0.048815	0.046108	56.9376	-0.048135	-0.080104	-0.575600	NaN
65	2.000000	1.800593	7.36569e+06	-41889.1	955.82	-29784.5	0.000000	0.000000	7.801465	7.852321	NaN	0.000000	0.001624	0.001753	28.1004	8.560492	0.001711	5002.6	5.296033	-169.011	7.493635	1.800299	0.010152	0.009858	7.852321	5002.6	0.008975	0.008065	973.672	50895.2
65	2.000000	1.815510	7.36569e+06	-41889.1	955.819	-29784.5	0.000000	0.000000	7.817626	38.1195	NaN	0.000000	0.001574	0.001768	28.0924	24.193	0.001732	13965.5	6.990662	-179.141	39.3507	1.815210	0.025069	0.024769	38.1195	13965.5	0.023022	0.027515	1385.39	76920.3
65	2.000000	1.830445	7.36569e+06	-41889.1	955.82	-29784.5	0.000000	0.000000	7.834413	83.1798	NaN	0.000000	0.001563	0.001729	28.1038	38.2044	0.001795	21288.1	5.277529	178.245	81.7696	1.830123	0.040005	0.039682	83.1798	21288.1	0.037074	0.056686	1467.39	81690.7
65	2.000000	1.845356	7.36569e+06	-41889.1	955.82	-29784.5	0.000000	0.000000	7.851950	147.095	NaN	0.000000	0.001536	0.001771	28.0944	49.9953	0.001771	28225.8	1.132145	-179.562	143.777	1.845162	0.054915	0.054721	147.095	28225.8	0.051007	0.095550	1539.46	83426.5
65	2.000000	1.860380	7.36569e+06	-41889.1	955.819	-29784.5	0.000000	0.000000	7.869969	219.952	NaN	0.000000	0.001666	0.001744	28.1018	64.8644	0.001799	36064.4	5.148642	174.447	217.644	1.860154	0.069939	0.069713	219.952	36064.4	0.065365	0.145747	1509.13	86308
65	2.000000	1.875455	7.36569e+06	-41889.1	955.819	-29784.5	0.000000	0.000000	7.888717	309.347	NaN	0.000000	0.001641	0.001688	28.0909	77.1872	0.001864	41407.1	4.901576	173.811	310.691	1.875087	0.085014	0.084646	309.347	41407.1	0.079411	0.204462	1512.98	83664.5
65	2.000000	1.890409	7.36569e+06	-41889.1	955.819	-29784.5	0.000000	0.000000	7.907786	409.454	NaN	0.000000	0.001646	0.001718	28.1037	91.2406	0.001838	49630.5	3.614683	173.704	411.891	1.890112	0.099969	0.099672	409.454	49630.5	0.093781	0.274064	1494.01	86615.6
65	2.000000	1.898362	7.36569e+06	-41889.1	955.82	-29784.5	0.000000	0.000000	7.918313	472.094	NaN	0.000000	0.001662	0.001746	28.1036	98.0662	0.001942	50490.8	1.743423	175.522	469.991	1.898002	0.107921	0.107561	472.094	50490.8	0.100909	0.312096	1512.66	82573.6