Folder: unikorn_login/remote_trans/data/nanoindenter/0828-1/data/Data_2025-08-06,11h17m57s (part 100)

File: 2025-07-22_16-23-58_1_217.txt
2025-07-22, 16:23:58, 1
Index	Phase	Displacement	Time	Pos X	Pos Y	Pos Z	Rot A	Rot B	Piezo Z	Force A	Force B	Gripper	Voltage A	Voltage B	Temperature	Amplitude force	Amplitude pos	Stiffness	Phase shift	Phase excitation	Force A raw	Displacement raw	HMax	HMax raw	Real Force	Real Stiffness	Contact Depth	Area	Hardness	Reduced Mod.
[#]	[#]	[um]	[s]	[um]	[um]	[um]	[m°]	[m°]	[um]	[uN]	[uN]	[V]	[V]	[V]	[°C]	[uN]	[um]	[N/m]	[°]	[°]	[uN]	[um]	[um]	[um]	[uN]	[N/m]	[um]	[um^2]	[MPa]	[MPa]
217	1.000000	0.002837	7.36717e+06	-49489.1	955.818	-29759.2	0.000000	0.000000	6.002799	0.083915	NaN	0.000000	0.001647	0.001742	28.0771	0.041638	0.000899	46.3289	-41.6423	-159.356	0.025785	0.001584	-1.051435	-1.052688	0.083915	46.3289	-1.052793	-1.164021E+14	-7.209051E-16	NaN
217	1.000000	0.042801	7.36717e+06	-49489.1	955.82	-29759.2	0.000000	0.000000	6.042757	-0.047325	NaN	0.000000	0.001696	0.001745	28.0769	0.114390	0.001827	62.6068	140.474	-165.115	-0.059040	0.041454	-1.011471	-1.012818	-0.047325	62.6068	-1.010904	-3.180909E+13	1.487791E-15	NaN
217	1.000000	0.082828	7.36717e+06	-49489.1	955.818	-29759.2	0.000000	0.000000	6.082786	-0.000534	NaN	0.000000	0.001685	0.001724	28.0769	0.038077	0.002000	19.039	65.3891	-165.732	0.084044	0.081527	-0.971444	-0.972745	-0.000534	19.039	-0.971423	-9.350513E+12	5.707759E-17	NaN
217	1.000000	0.122865	7.36717e+06	-49489.1	955.819	-29759.2	0.000000	0.000000	6.122824	0.026829	NaN	0.000000	0.001699	0.001761	28.0769	0.098190	0.001937	50.6926	44.594	-164.301	0.038430	0.121546	-0.931407	-0.932726	0.026829	50.6926	-0.931804	-2.732396E+12	-9.818758E-15	NaN
217	1.000000	0.162816	7.36717e+06	-49489.1	955.819	-29759.2	0.000000	0.000000	6.162776	0.055776	NaN	0.000000	0.001661	0.001720	28.0756	0.115405	0.002121	54.4091	-139.374	-162.524	0.000729	0.161530	-0.891456	-0.892742	0.055776	54.4091	-0.892225	-7.979706E+11	-6.989793E-14	NaN
217	1.000000	0.202863	7.36717e+06	-49489.1	955.818	-29759.2	0.000000	0.000000	6.202820	-0.037561	NaN	0.000000	0.001662	0.001686	28.0755	0.071916	0.002004	35.8818	159.166	-163.85	-0.018079	0.201518	-0.851409	-0.852755	-0.037561	35.8818	-0.850624	-2.183644E+11	1.720124E-13	NaN
217	1.000000	0.242881	7.36717e+06	-49489.1	955.818	-29759.2	0.000000	0.000000	6.242836	-0.079576	NaN	0.000000	0.001690	0.001744	28.0757	0.058392	0.002117	27.5769	115.585	-163.783	-0.007757	0.241577	-0.811391	-0.812695	-0.079576	27.5769	-0.809226	-5.998952E+10	1.326491E-12	NaN
217	1.000000	0.282894	7.36717e+06	-49489.1	955.819	-29759.2	0.000000	0.000000	6.282854	0.038246	NaN	0.000000	0.001656	0.001748	28.0774	0.070617	0.001998	35.3423	-3.409181	-164.323	0.046748	0.281579	-0.771378	-0.772693	0.038246	35.3423	-0.772189	-1.883957E+10	-2.030104E-12	NaN
217	1.000000	0.322920	7.36717e+06	-49489.1	955.818	-29759.2	0.000000	0.000000	6.322876	-0.060058	NaN	0.000000	0.001670	0.001745	28.0774	0.043520	0.001834	23.729	-13.5806	-168.069	0.027758	0.321617	-0.731352	-0.732655	-0.060058	23.729	-0.729454	-4.935847E+9	1.216774E-11	NaN
217	1.000000	0.362937	7.36717e+06	-49489.1	955.818	-29759.2	0.000000	0.000000	6.362894	-0.026443	NaN	0.000000	0.001680	0.001736	28.0768	0.053646	0.002018	26.5824	-68.7815	-167.006	-0.011123	0.361636	-0.691335	-0.692636	-0.026443	26.5824	-0.690589	-1.455334E+9	1.816978E-11	NaN
217	1.000000	0.402937	7.36717e+06	-49489.1	955.818	-29759.2	0.000000	0.000000	6.402894	-0.010056	NaN	0.000000	0.001687	0.001797	28.0757	0.016200	0.002021	8.015113	34.0323	-163.477	0.028881	0.401578	-0.651336	-0.652694	-0.010056	8.015113	-0.650395	-4.100592E+8	2.452277E-11	NaN
217	1.000000	0.442914	7.36717e+06	-49489.1	955.818	-29759.2	0.000000	0.000000	6.442869	-0.059892	NaN	0.000000	0.001679	0.001751	28.0756	0.039809	0.002002	19.8828	-72.1785	-166.798	0.010493	0.441619	-0.611359	-0.612653	-0.059892	19.8828	-0.609099	-1.111019E+8	5.390770E-10	NaN
217	1.000000	0.482982	7.36717e+06	-49489.1	955.818	-29759.2	0.000000	0.000000	6.482938	-0.049131	NaN	0.000000	0.001733	0.001795	28.0755	0.097026	0.001986	48.8483	-72.8051	-165.652	-0.027393	0.481683	-0.571290	-0.572590	-0.049131	48.8483	-0.570536	-3.266131E+7	1.504254E-9	NaN
217	1.000000	0.522984	7.36717e+06	-49489.1	955.817	-29759.2	0.000000	0.000000	6.522943	0.030913	NaN	0.000000	0.001733	0.001763	28.0754	0.028889	0.001855	15.5718	-68.2501	-162.013	0.012097	0.521685	-0.531288	-0.532587	0.030913	15.5718	-0.532777	-9.79804e+06	-3.155045E-9	NaN
217	1.000000	0.563014	7.36717e+06	-49489.1	955.819	-29759.2	0.000000	0.000000	6.562973	0.012211	NaN	0.000000	0.001673	0.001773	28.0768	0.065612	0.001912	34.317	-17.2653	-170.024	-0.021328	0.561707	-0.491258	-0.492565	0.012211	34.317	-0.491525	-2.61033e+06	-4.678007E-9	NaN
217	1.000000	0.603012	7.36717e+06	-49489.1	955.818	-29759.2	0.000000	0.000000	6.602970	0.010689	NaN	0.000000	0.001726	0.001757	28.0767	0.030429	0.002094	14.5337	103.239	-166.925	0.002605	0.601711	-0.451260	-0.452561	0.010689	14.5337	-0.451812	-724188	-1.476056E-8	NaN
217	1.000000	0.643064	7.36717e+06	-49489.1	955.819	-29759.2	0.000000	0.000000	6.643023	0.029873	NaN	0.000000	0.001678	0.001718	28.077	0.095143	0.001983	47.9867	-5.412379	-167.817	0.073665	0.641692	-0.411208	-0.412580	0.029873	47.9867	-0.411675	-195983	-1.524288E-7	NaN
217	1.000000	0.683054	7.36717e+06	-49489.1	955.819	-29759.2	0.000000	0.000000	6.683009	-0.061931	NaN	0.000000	0.001648	0.001755	28.076	0.086831	0.002134	40.6841	158.457	-162.098	-0.013123	0.681759	-0.371219	-0.372513	-0.061931	40.6841	-0.370077	-49800.7	1.243573E-6	NaN
217	1.000000	0.723065	7.36717e+06	-49489.1	955.818	-29759.2	0.000000	0.000000	6.723023	0.007982	NaN	0.000000	0.001633	0.001768	28.0759	0.092481	0.001943	47.595	62.0095	-161.905	-0.035994	0.721743	-0.331207	-0.332530	0.007982	47.595	-0.331333	-13644.8	-5.850032E-7	NaN
217	1.000000	0.763081	7.36717e+06	-49489.1	955.818	-29759.2	0.000000	0.000000	6.763037	-0.035480	NaN	0.000000	0.001638	0.001807	28.0757	0.038669	0.001902	20.3341	-166.001	-164.398	-0.057851	0.761790	-0.291192	-0.292482	-0.035480	20.3341	-0.289883	-3323.14	1.067653E-5	NaN
217	1.000000	0.803112	7.36717e+06	-49489.1	955.819	-29759.2	0.000000	0.000000	6.803070	0.009273	NaN	0.000000	0.001653	0.001787	28.0759	0.082364	0.001999	41.1942	-153.513	-164.691	0.000261	0.801784	-0.251160	-0.252488	0.009273	41.1942	-0.251329	-862.004	-1.075703E-5	NaN
217	1.000000	0.843104	7.36717e+06	-49489.1	955.818	-29759.2	0.000000	0.000000	6.843058	-0.078893	NaN	0.000000	0.001627	0.001741	28.0774	0.058387	0.002103	27.7656	101.331	-167.038	-0.064410	0.841820	-0.211168	-0.212452	-0.078893	27.7656	-0.209037	-185.019	0.000426	NaN
217	1.000000	0.883161	7.36717e+06	-49489.1	955.818	-29759.2	0.000000	0.000000	6.883117	-0.051627	NaN	0.000000	0.001622	0.001776	28.077	0.055176	0.002061	26.775	-107.419	-163.467	-0.158598	0.881895	-0.171111	-0.172377	-0.051627	26.775	-0.169665	-40.5316	0.001274	NaN
217	1.000000	0.923138	7.36717e+06	-49489.1	955.818	-29759.2	0.000000	0.000000	6.923095	-0.023632	NaN	0.000000	0.001704	0.001726	28.077	0.076209	0.002014	37.8308	89.2342	-159.113	0.030709	0.921827	-0.131134	-0.132445	-0.023632	37.8308	-0.130666	-7.851116	0.003010	NaN
217	1.000000	0.963187	7.36717e+06	-49489.1	955.818	-29759.2	0.000000	0.000000	6.963141	-0.106743	NaN	0.000000	0.001625	0.001785	28.0758	0.029280	0.001974	14.8305	70.1119	-164.097	-0.050979	0.961833	-0.091085	-0.092439	-0.106743	14.8305	-0.085687	-0.853617	0.125048	NaN
217	1.000000	1.003188	7.36717e+06	-49489.1	955.819	-29759.2	0.000000	0.000000	7.003146	-0.000400	NaN	0.000000	0.001686	0.001740	28.0757	0.064256	0.001993	32.2364	-102.425	-164.805	-0.037491	1.001927	-0.051084	-0.052345	-0.000400	32.2364	-0.051075	-0.098329	0.004066	NaN
217	1.000000	1.043207	7.36717e+06	-49489.1	955.819	-29759.2	0.000000	0.000000	7.043165	-0.001751	NaN	0.000000	0.001640	0.001734	28.0755	0.091551	0.001933	47.3715	-27.7473	-163.756	0.024511	1.041908	-0.011065	-0.012364	-0.001751	47.3715	-0.011037	-0.006979	0.250921	NaN
217	2.000000	1.067721	7.36717e+06	-49489.1	955.819	-29759.2	0.000000	0.000000	7.068447	18.6865	NaN	0.000000	0.001616	0.001759	28.0761	15.2239	0.001654	9205.41	6.267447	-174.22	17.8517	1.067397	0.013449	0.013125	18.6865	9205.41	0.011927	0.011402	1638.85	78763
217	2.000000	1.077703	7.36717e+06	-49489.1	955.818	-29759.2	0.000000	0.000000	7.079365	41.4525	NaN	0.000000	0.001666	0.001754	28.077	25.4139	0.001777	14300.5	3.098540	-175.86	39.9685	1.077322	0.023431	0.023050	41.4525	14300.5	0.021257	0.024556	1688.07	83376.8
217	2.000000	1.087595	7.36717e+06	-49489.1	955.819	-29759.2	0.000000	0.000000	7.090389	68.9825	NaN	0.000000	0.001643	0.001687	28.0772	35.6697	0.001847	19314.7	4.347737	-178.439	67.1597	1.087339	0.033323	0.033067	68.9825	19314.7	0.030644	0.042090	1638.93	86014.4
217	2.000000	1.097614	7.36717e+06	-49489.1	955.82	-29759.2	0.000000	0.000000	7.102023	108.253	NaN	0.000000	0.001683	0.001762	28.0772	45.2262	0.001811	24977.8	1.636753	-178.354	107.48	1.097328	0.043342	0.043056	108.253	24977.8	0.040092	0.064266	1684.46	90019.5
217	2.000000	1.107615	7.36717e+06	-49489.1	955.819	-29759.2	0.000000	0.000000	7.114127	159.403	NaN	0.000000	0.001681	0.001720	28.0762	55.7167	0.001848	30153.8	3.610215	178.126	158.094	1.107232	0.053343	0.052960	159.403	30153.8	0.049378	0.090500	1761.36	91578.2
217	2.000000	1.117581	7.36717e+06	-49489.1	955.82	-29759.2	0.000000	0.000000	7.126075	207.599	NaN	0.000000	0.001684	0.001712	28.0761	64.827	0.001720	37697.4	6.991225	172.266	205.122	1.117296	0.063309	0.063023	207.599	37697.4	0.059179	0.122879	1689.46	98253
217	2.000000	1.127492	7.36717e+06	-49489.1	955.82	-29759.2	0.000000	0.000000	7.138691	273.392	NaN	0.000000	0.001653	0.001780	28.0762	74.3911	0.001654	44982.7	2.203267	175.547	267.982	1.127228	0.073220	0.072956	273.392	44982.7	0.068662	0.158687	1722.84	103169
217	2.000000	1.137548	7.36717e+06	-49489.1	955.82	-29759.2	0.000000	0.000000	7.151446	339.012	NaN	0.000000	0.001656	0.001768	28.0774	84.4971	0.001911	44215.2	5.409294	173.311	335.313	1.137212	0.083276	0.082940	339.012	44215.2	0.077526	0.196042	1729.28	91236.8
217	2.000000	1.147546	7.36717e+06	-49489.1	955.82	-29759.2	0.000000	0.000000	7.163817	396.716	NaN	0.000000	0.001751	0.001770	28.0771	91.5903	0.001813	50512.4	3.830292	173.397	394.986	1.147376	0.093274	0.093104	396.716	50512.4	0.087384	0.241905	1639.97	93831.5
217	2.000000	1.157478	7.36717e+06	-49489.1	955.821	-29759.2	0.000000	0.000000	7.176740	469.477	NaN	0.000000	0.001698	0.001732	28.0772	100.871	0.001893	53300	4.880327	172.171	464.022	1.157270	0.103206	0.102998	469.477	53300	0.096600	0.288826	1625.46	90611.2
217	2.000000	1.161082	7.36717e+06	-49489.1	955.821	-29759.2	0.000000	0.000000	7.180783	480.14	NaN	0.000000	0.001728	0.001732	28.0771	103.643	0.001963	52810.8	2.588044	-5.723543	478.235	1.160842	0.106810	0.106570	480.14	52810.8	0.099991	0.307072	1563.61	87071.4

File: 2025-07-22_16-23-58_1_218.txt
2025-07-22, 16:23:58, 1
Index	Phase	Displacement	Time	Pos X	Pos Y	Pos Z	Rot A	Rot B	Piezo Z	Force A	Force B	Gripper	Voltage A	Voltage B	Temperature	Amplitude force	Amplitude pos	Stiffness	Phase shift	Phase excitation	Force A raw	Displacement raw	HMax	HMax raw	Real Force	Real Stiffness	Contact Depth	Area	Hardness	Reduced Mod.
[#]	[#]	[um]	[s]	[um]	[um]	[um]	[m°]	[m°]	[um]	[uN]	[uN]	[V]	[V]	[V]	[°C]	[uN]	[um]	[N/m]	[°]	[°]	[uN]	[um]	[um]	[um]	[uN]	[N/m]	[um]	[um^2]	[MPa]	[MPa]
218	1.000000	0.002537	7.36718e+06	-49539.1	955.818	-29759	0.000000	0.000000	6.002815	-0.080819	NaN	0.000000	0.001654	0.001794	28.0784	0.056884	0.000971	58.5707	13.5539	-161.985	-0.093715	0.001242	-1.011788	-1.013083	-0.080819	58.5707	-1.010753	-3.166006E+13	2.552698E-15	NaN
218	1.000000	0.042455	7.36718e+06	-49539.1	955.819	-29759	0.000000	0.000000	6.042737	0.017768	NaN	0.000000	0.001643	0.001773	28.0801	0.114520	0.001943	58.9467	-162.794	-169.148	-0.027557	0.041192	-0.971870	-0.973133	0.017768	58.9467	-0.972096	-9.547921E+12	-1.860951E-15	NaN
218	1.000000	0.082465	7.36718e+06	-49539.1	955.818	-29759.1	0.000000	0.000000	6.082742	-0.088454	NaN	0.000000	0.001713	0.001803	28.0798	0.049610	0.001940	25.5667	59.39	-165.248	-0.053793	0.081170	-0.931860	-0.933155	-0.088454	25.5667	-0.929265	-2.525125E+12	3.502949E-14	NaN
218	1.000000	0.122491	7.36718e+06	-49539.1	955.819	-29759.1	0.000000	0.000000	6.122773	0.020847	NaN	0.000000	0.001740	0.001787	28.0797	0.068916	0.001996	34.5227	81.3075	-166.9	-0.055921	0.121130	-0.891834	-0.893195	0.020847	34.5227	-0.892287	-7.995101E+11	-2.607494E-14	NaN
218	1.000000	0.162538	7.36718e+06	-49539.1	955.818	-29759.1	0.000000	0.000000	6.162819	0.007180	NaN	0.000000	0.001784	0.001810	28.0795	0.080538	0.001986	40.5436	94.0912	-164.183	0.009872	0.161230	-0.851787	-0.853095	0.007180	40.5436	-0.851920	-2.273714E+11	-3.157879E-14	NaN
218	1.000000	0.202519	7.36718e+06	-49539.1	955.819	-29759.1	0.000000	0.000000	6.202799	-0.029513	NaN	0.000000	0.001750	0.001830	28.0779	0.064678	0.002143	30.1867	-27.766	-163.919	-0.070147	0.201185	-0.811805	-0.813140	-0.029513	30.1867	-0.811072	-6.355040E+10	4.644026E-13	NaN
218	1.000000	0.242553	7.36718e+06	-49539.1	955.818	-29759.1	0.000000	0.000000	6.242832	-0.032901	NaN	0.000000	0.001760	0.001814	28.0779	0.043680	0.002046	21.3531	15.6414	-162.688	-0.060885	0.241260	-0.771772	-0.773065	-0.032901	21.3531	-0.770617	-1.793459E+10	1.834483E-12	NaN
218	1.000000	0.282555	7.36718e+06	-49539.1	955.819	-29759.1	0.000000	0.000000	6.282835	-0.025277	NaN	0.000000	0.001703	0.001806	28.0783	0.039265	0.002138	18.3675	27.7371	-161.869	-0.096168	0.281258	-0.731770	-0.733067	-0.025277	18.3675	-0.730738	-5.138868E+9	4.918861E-12	NaN
218	1.000000	0.322619	7.36718e+06	-49539.1	955.818	-29759.1	0.000000	0.000000	6.322901	0.028369	NaN	0.000000	0.001691	0.001716	28.0794	0.119748	0.002021	59.2442	-111.663	-164.994	0.010066	0.321220	-0.691706	-0.693105	0.028369	59.2442	-0.692065	-1.524552E+9	-1.860817E-11	NaN
218	1.000000	0.362626	7.36718e+06	-49539.1	955.819	-29759.1	0.000000	0.000000	6.362909	0.028248	NaN	0.000000	0.001695	0.001742	28.0794	0.119057	0.001919	62.0542	76.0233	-166.288	0.019414	0.361243	-0.651699	-0.653082	0.028248	62.0542	-0.652040	-4.319165E+8	-6.540042E-11	NaN
218	1.000000	0.402636	7.36718e+06	-49539.1	955.819	-29759.1	0.000000	0.000000	6.402916	-0.019906	NaN	0.000000	0.001693	0.001738	28.0796	0.071962	0.001958	36.7561	-1.968980	-163.891	-0.025077	0.401319	-0.611689	-0.613006	-0.019906	36.7561	-0.611283	-1.190587E+8	1.671942E-10	NaN
218	1.000000	0.442623	7.36718e+06	-49539.1	955.819	-29759.1	0.000000	0.000000	6.442905	0.019211	NaN	0.000000	0.001644	0.001768	28.0795	0.125182	0.002073	60.3901	-100.449	-167.227	-0.041154	0.441312	-0.571701	-0.573013	0.019211	60.3901	-0.571940	-3.415350E+7	-5.624880E-10	NaN
218	1.000000	0.482663	7.36718e+06	-49539.1	955.818	-29759.1	0.000000	0.000000	6.482943	-0.021265	NaN	0.000000	0.001700	0.001757	28.0785	0.079422	0.001944	40.8478	136.192	-166.25	-0.152070	0.481325	-0.531662	-0.533000	-0.021265	40.8478	-0.531272	-9.33757e+06	2.277384E-9	NaN
218	1.000000	0.522673	7.36718e+06	-49539.1	955.818	-29759.1	0.000000	0.000000	6.522953	-0.034796	NaN	0.000000	0.001690	0.001755	28.0782	0.125265	0.002000	62.6266	166.558	-162.983	-0.031589	0.521391	-0.491652	-0.492934	-0.034796	62.6266	-0.491235	-2.58616e+06	1.345472E-8	NaN
218	1.000000	0.562668	7.36718e+06	-49539.1	955.819	-29759.1	0.000000	0.000000	6.562947	-0.062361	NaN	0.000000	0.001710	0.001772	28.0786	0.093623	0.001915	48.8912	151.363	-164.58	-0.031871	0.561385	-0.451657	-0.452940	-0.062361	48.8912	-0.450700	-698556	8.927110E-8	NaN
218	1.000000	0.602705	7.36718e+06	-49539.1	955.818	-29759.1	0.000000	0.000000	6.602986	0.011365	NaN	0.000000	0.001657	0.001796	28.081	0.039214	0.002024	19.3784	83.8271	-166.198	-0.003842	0.601385	-0.411620	-0.412940	0.011365	19.3784	-0.412060	-198468	-5.726480E-8	NaN
218	1.000000	0.642717	7.36718e+06	-49539.1	955.819	-29759.1	0.000000	0.000000	6.642993	-0.107842	NaN	0.000000	0.001682	0.001758	28.0801	0.051562	0.002061	25.0138	-51.1694	-166.671	-0.060802	0.641449	-0.371608	-0.372876	-0.107842	25.0138	-0.368375	-47066.8	2.291261E-6	NaN
218	1.000000	0.682734	7.36718e+06	-49539.1	955.817	-29759.1	0.000000	0.000000	6.683015	-0.001996	NaN	0.000000	0.001720	0.001767	28.0803	0.048598	0.001884	25.7972	67.9504	-163.56	0.061186	0.681409	-0.331591	-0.332916	-0.001996	25.7972	-0.331533	-13737.1	1.452705E-7	NaN
218	1.000000	0.722758	7.36718e+06	-49539.1	955.817	-29759.1	0.000000	0.000000	6.723039	-0.021964	NaN	0.000000	0.001745	0.001743	28.0789	0.086134	0.002051	41.9959	-43.3915	-167.759	-0.061275	0.721426	-0.291567	-0.292899	-0.021964	41.9959	-0.291174	-3474.48	6.321473E-6	NaN
218	1.000000	0.762789	7.36718e+06	-49539.1	955.818	-29759.1	0.000000	0.000000	6.763070	-0.015206	NaN	0.000000	0.001727	0.001768	28.0788	0.091895	0.002094	43.8766	120.391	-165.657	-0.035185	0.761481	-0.251536	-0.252844	-0.015206	43.8766	-0.251276	-860.38	1.767338E-5	NaN
218	1.000000	0.802787	7.36718e+06	-49539.1	955.819	-29759.1	0.000000	0.000000	6.803067	-0.024770	NaN	0.000000	0.001702	0.001721	28.0789	0.107416	0.002048	52.4498	120.557	-161.41	-0.028662	0.801501	-0.211538	-0.212823	-0.024770	52.4498	-0.211184	-200.435	0.000124	NaN
218	1.000000	0.842814	7.36718e+06	-49539.1	955.819	-29759.1	0.000000	0.000000	6.843095	-0.002418	NaN	0.000000	0.001729	0.001743	28.0784	0.056820	0.001919	29.6101	142.933	-164.269	0.024358	0.841497	-0.171511	-0.172828	-0.002418	29.6101	-0.171450	-43.5268	5.555422E-5	NaN
218	1.000000	0.882830	7.36718e+06	-49539.1	955.819	-29759.1	0.000000	0.000000	6.883110	-0.046339	NaN	0.000000	0.001746	0.001799	28.0795	0.011873	0.001938	6.126970	124.828	-165.279	-0.025932	0.881561	-0.131495	-0.132764	-0.046339	6.126970	-0.125822	-6.313009	0.007340	NaN
218	1.000000	0.922833	7.36718e+06	-49539.1	955.819	-29759.1	0.000000	0.000000	6.923115	0.017716	NaN	0.000000	0.001759	0.001771	28.0795	0.032692	0.002044	15.9905	24.4616	-163.325	0.037147	0.921518	-0.091492	-0.092807	0.017716	15.9905	-0.092322	-1.224429	-0.014469	NaN
218	1.000000	0.962825	7.36718e+06	-49539.1	955.818	-29759.1	0.000000	0.000000	6.963105	-0.022554	NaN	0.000000	0.001725	0.001777	28.0797	0.058944	0.001982	29.7379	-91.7272	-165.804	-0.051152	0.961542	-0.051500	-0.052783	-0.022554	29.7379	-0.050931	-0.097353	0.231670	NaN
218	1.000000	1.002864	7.36718e+06	-49539.1	955.817	-29759.1	0.000000	0.000000	7.003142	-0.076902	NaN	0.000000	0.001648	0.001771	28.0787	0.058976	0.001979	29.8049	30.7772	-167.149	-0.090874	1.001532	-0.011461	-0.012793	-0.076902	29.8049	-0.009526	-0.006116	12.5747	NaN
218	2.000000	1.029414	7.36718e+06	-49539.1	955.817	-29759.1	0.000000	0.000000	7.030328	15.4053	NaN	0.000000	0.001637	0.001790	28.0794	13.8792	0.001758	7893.73	8.335983	-177.437	15.0165	1.029149	0.015089	0.014825	15.4053	7893.73	0.013625	0.013496	1141.52	62081.3
218	2.000000	1.039355	7.36718e+06	-49539.1	955.817	-29759.1	0.000000	0.000000	7.041124	36.1959	NaN	0.000000	0.001691	0.001758	28.0794	23.9836	0.001946	12327.3	3.821452	-175.511	34.6899	1.039006	0.025030	0.024682	36.1959	12327.3	0.022828	0.027182	1331.63	68313.1
218	2.000000	1.049392	7.36718e+06	-49539.1	955.818	-29759.1	0.000000	0.000000	7.052501	68.7737	NaN	0.000000	0.001669	0.001726	28.0797	34.3518	0.001808	18997.7	8.277812	177.29	69.9815	1.049028	0.035067	0.034703	68.7737	18997.7	0.032352	0.045759	1502.94	81139.8
218	2.000000	1.059305	7.36718e+06	-49539.1	955.818	-29759.1	0.000000	0.000000	7.064044	108.404	NaN	0.000000	0.001692	0.001764	28.0812	45.4115	0.001777	25549.2	3.054707	178.385	108.323	1.059103	0.044980	0.044779	108.404	25549.2	0.041798	0.068758	1576.6	89020.1
218	2.000000	1.069271	7.36718e+06	-49539.1	955.818	-29759.1	0.000000	0.000000	7.076488	168.698	NaN	0.000000	0.001713	0.001781	28.0806	56.4218	0.001775	31780	3.719032	176.196	165.166	1.068999	0.054946	0.054674	168.698	31780	0.050965	0.095418	1767.99	93996.8
218	2.000000	1.079321	7.36718e+06	-49539.1	955.818	-29759.1	0.000000	0.000000	7.089081	230.513	NaN	0.000000	0.001741	0.001690	28.0801	67.4152	0.001906	35374.6	9.001496	170.079	228.958	1.078954	0.064996	0.064630	230.513	35374.6	0.060109	0.126200	1826.57	90977.8
218	2.000000	1.089278	7.36718e+06	-49539.1	955.819	-29759.1	0.000000	0.000000	7.101875	299.522	NaN	0.000000	0.001713	0.001791	28.0788	74.9857	0.001730	43339.3	3.903089	174.033	297.271	1.088941	0.074953	0.074616	299.522	43339.3	0.069770	0.163152	1835.84	98030
218	2.000000	1.099333	7.36718e+06	-49539.1	955.819	-29759.1	0.000000	0.000000	7.114945	372.841	NaN	0.000000	0.001723	0.001814	28.0788	84.9087	0.001796	47279.6	4.247681	173.206	373.984	1.098885	0.085008	0.084560	372.841	47279.6	0.079094	0.203034	1836.35	95865.4
218	2.000000	1.109185	7.36718e+06	-49539.1	955.819	-29759.1	0.000000	0.000000	7.128421	460.975	NaN	0.000000	0.001677	0.001783	28.0787	93.2321	0.001733	53805.4	5.852958	170.601	455.409	1.108934	0.094860	0.094609	460.975	53805.4	0.088434	0.247056	1865.88	98901.3
218	2.000000	1.119291	7.36718e+06	-49539.1	955.818	-29759.1	0.000000	0.000000	7.142107	548.036	NaN	0.000000	0.001742	0.001773	28.0808	102.803	0.001810	56782.9	2.760917	172.981	548.559	1.118996	0.104966	0.104671	548.036	56782.9	0.097728	0.294837	1858.77	95543.2
218	2.000000	1.123189	7.36718e+06	-49539.1	955.819	-29759.1	0.000000	0.000000	7.147821	592.215	NaN	0.000000	0.001635	0.001746	28.08	107.011	0.001858	57593.6	4.509514	171.734	588.617	1.122919	0.108864	0.108594	592.215	57593.6	0.101152	0.313434	1889.44	93988.5