Folder: unikorn_login/remote_trans/data/nanoindenter/0828-1/data/Data_2025-08-06,11h17m57s (part 16)

File: 2025-07-22_16-23-58_1_30.txt
2025-07-22, 16:23:58, 1
Index	Phase	Displacement	Time	Pos X	Pos Y	Pos Z	Rot A	Rot B	Piezo Z	Force A	Force B	Gripper	Voltage A	Voltage B	Temperature	Amplitude force	Amplitude pos	Stiffness	Phase shift	Phase excitation	Force A raw	Displacement raw	HMax	HMax raw	Real Force	Real Stiffness	Contact Depth	Area	Hardness	Reduced Mod.
[#]	[#]	[um]	[s]	[um]	[um]	[um]	[m°]	[m°]	[um]	[uN]	[uN]	[V]	[V]	[V]	[°C]	[uN]	[um]	[N/m]	[°]	[°]	[uN]	[um]	[um]	[um]	[uN]	[N/m]	[um]	[um^2]	[MPa]	[MPa]
30	1.000000	0.002443	7.36533e+06	-40139.1	955.819	-29791.8	0.000000	0.000000	6.002825	0.014075	NaN	0.000000	0.001694	0.001581	28.1098	0.115558	0.000903	128.036	73.9304	-168.187	-0.059005	0.001148	-1.009671	-1.010965	0.014075	128.036	-1.009753	-3.069437E+13	-4.585481E-16	NaN
30	1.000000	0.040388	7.36533e+06	-40139.1	955.818	-29791.8	0.000000	0.000000	6.040769	-0.034165	NaN	0.000000	0.001656	0.001598	28.0817	0.050970	0.001990	25.6099	-68.3681	15.9915	-0.054873	0.039064	-0.971725	-0.973049	-0.034165	25.6099	-0.970724	-9.150055E+12	3.733835E-15	NaN
30	1.000000	0.078371	7.36533e+06	-40139.1	955.817	-29791.8	0.000000	0.000000	6.078756	0.085568	NaN	0.000000	0.001708	0.001580	28.0916	0.080110	0.001922	41.6882	159.742	-163.767	0.054769	0.077132	-0.933742	-0.934981	0.085568	41.6882	-0.935282	-3.044217E+12	-2.810826E-14	NaN
30	1.000000	0.116425	7.36533e+06	-40139.1	955.819	-29791.8	0.000000	0.000000	6.116807	0.000783	NaN	0.000000	0.001702	0.001605	28.1305	0.086425	0.002030	42.574	140.429	15.3454	-0.049640	0.115020	-0.895688	-0.897093	0.000783	42.574	-0.895702	-8.891596E+11	-8.801399E-16	NaN
30	1.000000	0.154408	7.36533e+06	-40139.1	955.819	-29791.8	0.000000	0.000000	6.154790	-0.011770	NaN	0.000000	0.001648	0.001587	28.1109	0.085428	0.001926	44.3666	88.0671	-166.062	0.008520	0.153138	-0.857705	-0.858975	-0.011770	44.3666	-0.857506	-2.706203E+11	4.349415E-14	NaN
30	1.000000	0.192427	7.36533e+06	-40139.1	955.818	-29791.8	0.000000	0.000000	6.192810	0.022764	NaN	0.000000	0.001683	0.001589	28.0826	0.046724	0.001985	23.5424	-76.2333	17.9968	-0.049640	0.191093	-0.819686	-0.821020	0.022764	23.5424	-0.820411	-8.507219E+10	-2.675813E-13	NaN
30	1.000000	0.230437	7.36533e+06	-40139.1	955.818	-29791.8	0.000000	0.000000	6.230816	-0.067994	NaN	0.000000	0.001638	0.001558	28.0928	0.031413	0.001974	15.9149	-102.545	-163.141	-0.044283	0.229175	-0.781676	-0.782938	-0.067994	15.9149	-0.778472	-2.293351E+10	2.964829E-12	NaN
30	1.000000	0.268484	7.36533e+06	-40139.1	955.817	-29791.8	0.000000	0.000000	6.268867	0.051842	NaN	0.000000	0.001650	0.001611	28.1309	0.033826	0.002109	16.0355	88.004	16.4179	-0.002104	0.267101	-0.743630	-0.745012	0.051842	16.0355	-0.746054	-8.308150E+9	-6.239860E-12	NaN
30	1.000000	0.306460	7.36533e+06	-40139.1	955.819	-29791.8	0.000000	0.000000	6.306843	0.049859	NaN	0.000000	0.001663	0.001628	28.1088	0.051618	0.001912	26.9952	166.405	-161.87	0.027794	0.305142	-0.705654	-0.706971	0.049859	26.9952	-0.707039	-2.441376E+9	-2.042262E-11	NaN
30	1.000000	0.344517	7.36533e+06	-40139.1	955.818	-29791.8	0.000000	0.000000	6.344899	-0.001075	NaN	0.000000	0.001648	0.001632	28.0817	0.044120	0.001894	23.2942	159.655	13.2535	-0.059299	0.343134	-0.667596	-0.668980	-0.001075	23.2942	-0.667561	-7.047051E+8	1.525064E-12	NaN
30	1.000000	0.382495	7.36533e+06	-40139.1	955.818	-29791.8	0.000000	0.000000	6.382874	-0.058523	NaN	0.000000	0.001637	0.001622	28.0924	0.029065	0.001933	15.0396	-172.669	-167.232	0.039313	0.381192	-0.629618	-0.630922	-0.058523	15.0396	-0.626700	-1.939517E+8	3.017401E-10	NaN
30	1.000000	0.420542	7.36533e+06	-40139.1	955.819	-29791.8	0.000000	0.000000	6.420925	0.029127	NaN	0.000000	0.001635	0.001593	28.1316	0.054974	0.002050	26.8223	-63.4818	18.6122	-0.039448	0.419151	-0.591571	-0.592962	0.029127	26.8223	-0.592386	-6.539630E+7	-4.453912E-10	NaN
30	1.000000	0.458543	7.36533e+06	-40139.1	955.818	-29791.8	0.000000	0.000000	6.458925	0.020666	NaN	0.000000	0.001628	0.001594	28.1088	0.114620	0.002139	53.5976	-125.136	-168.003	0.023177	0.457202	-0.553571	-0.554911	0.020666	53.5976	-0.553860	-1.920450E+7	-1.076077E-9	NaN
30	1.000000	0.496601	7.36533e+06	-40139.1	955.818	-29791.8	0.000000	0.000000	6.496981	-0.039810	NaN	0.000000	0.001652	0.001601	28.0817	0.050861	0.001891	26.8894	149.924	15.7639	-0.023432	0.495156	-0.515513	-0.516957	-0.039810	26.8894	-0.514402	-5.44141e+06	7.316067E-9	NaN
30	1.000000	0.534605	7.36533e+06	-40139.1	955.818	-29791.8	0.000000	0.000000	6.534984	-0.051152	NaN	0.000000	0.001622	0.001608	28.0921	0.105159	0.002017	52.1331	86.6744	-162.824	0.005754	0.533188	-0.477508	-0.478925	-0.051152	52.1331	-0.476773	-1.62306e+06	3.151600E-8	NaN
30	1.000000	0.572577	7.36533e+06	-40139.1	955.819	-29791.9	0.000000	0.000000	6.572959	-0.007547	NaN	0.000000	0.001728	0.001622	28.1296	0.051811	0.001972	26.2744	-127.676	13.8224	0.071422	0.571188	-0.439536	-0.440925	-0.007547	26.2744	-0.439320	-482804	1.563117E-8	NaN
30	1.000000	0.610614	7.36533e+06	-40139.1	955.818	-29791.9	0.000000	0.000000	6.610998	0.051571	NaN	0.000000	0.001727	0.001616	28.1054	0.069775	0.002044	34.1376	-98.8701	-166.989	0.069135	0.609323	-0.401499	-0.402790	0.051571	34.1376	-0.402632	-145719	-3.539044E-7	NaN
30	1.000000	0.648615	7.36533e+06	-40139.1	955.819	-29791.9	0.000000	0.000000	6.648997	0.002378	NaN	0.000000	0.001702	0.001613	28.0818	0.027642	0.001930	14.3202	67.8595	12.5349	0.047473	0.647279	-0.363498	-0.364834	0.002378	14.3202	-0.363623	-40195.5	-5.916281E-8	NaN
30	1.000000	0.686636	7.36534e+06	-40139.1	955.819	-29791.9	0.000000	0.000000	6.687017	-0.010799	NaN	0.000000	0.001720	0.001601	28.0926	0.052213	0.001966	26.5586	76.7604	-162.492	0.019409	0.685316	-0.325477	-0.326797	-0.010799	26.5586	-0.325172	-11083.1	9.743208E-7	NaN
30	1.000000	0.724651	7.36534e+06	-40139.1	955.818	-29791.9	0.000000	0.000000	6.725033	0.014215	NaN	0.000000	0.001673	0.001575	28.1329	0.074434	0.001963	37.924	146.751	16.4177	0.035794	0.723284	-0.287462	-0.288829	0.014215	37.924	-0.287743	-3086.52	-4.605647E-6	NaN
30	1.000000	0.762664	7.36534e+06	-40139.1	955.819	-29791.9	0.000000	0.000000	6.763041	-0.110203	NaN	0.000000	0.001645	0.001614	28.1059	0.051754	0.001910	27.0938	-169.772	-164.117	-0.107541	0.761367	-0.249449	-0.250746	-0.110203	27.0938	-0.246399	-723.061	0.000152	NaN
30	1.000000	0.800708	7.36534e+06	-40139.1	955.819	-29791.9	0.000000	0.000000	6.801090	-0.004270	NaN	0.000000	0.001666	0.001625	28.0835	0.090944	0.001865	48.751	74.3382	15.2678	-0.056529	0.799311	-0.211405	-0.212803	-0.004270	48.751	-0.211339	-201.6	2.118226E-5	NaN
30	1.000000	0.838710	7.36534e+06	-40139.1	955.818	-29791.9	0.000000	0.000000	6.839089	-0.054286	NaN	0.000000	0.001660	0.001655	28.092	0.019522	0.002002	9.748952	20.1445	-166.048	0.009810	0.837404	-0.173403	-0.174709	-0.054286	9.748952	-0.169227	-39.8269	0.001363	NaN
30	1.000000	0.876701	7.36534e+06	-40139.1	955.817	-29791.9	0.000000	0.000000	6.877084	0.043132	NaN	0.000000	0.001622	0.001646	28.1316	0.053157	0.001867	28.4666	-62.688	11.9173	-0.038255	0.875428	-0.135412	-0.136685	0.043132	28.4666	-0.136549	-10.1808	-0.004237	NaN
30	1.000000	0.914734	7.36534e+06	-40139.1	955.819	-29791.9	0.000000	0.000000	6.915116	0.010975	NaN	0.000000	0.001635	0.001704	28.1031	0.070056	0.002004	34.966	95.7294	-167.18	-0.000500	0.913496	-0.097379	-0.098618	0.010975	34.966	-0.097614	-1.616392	-0.006790	NaN
30	1.000000	0.952770	7.36534e+06	-40139.1	955.818	-29791.9	0.000000	0.000000	6.953150	-0.022057	NaN	0.000000	0.001666	0.001682	28.0819	0.011185	0.001989	5.623085	-155.145	17.7068	-0.095752	0.951446	-0.059344	-0.060667	-0.022057	5.623085	-0.056402	-0.141616	0.155749	NaN
30	1.000000	0.990785	7.36534e+06	-40139.1	955.819	-29791.9	0.000000	0.000000	6.991167	0.012277	NaN	0.000000	0.001651	0.001668	28.0941	0.064558	0.002010	32.116	161.467	-166.822	-0.051359	0.989448	-0.021328	-0.022665	0.012277	32.116	-0.021615	-0.013806	-0.889266	NaN
30	2.000000	1.022900	7.36534e+06	-40139.1	955.817	-29791.9	0.000000	0.000000	7.023779	12.1016	NaN	0.000000	0.001663	0.001637	28.1332	10.7264	0.001677	6396.22	3.635034	8.601745	11.159	1.022592	0.010786	0.010479	12.1016	6396.22	0.009368	0.008487	1425.89	63433.5
30	2.000000	1.032378	7.36534e+06	-40139.1	955.818	-29791.9	0.000000	0.000000	7.034095	32.5101	NaN	0.000000	0.001643	0.001649	28.1037	21.5986	0.001798	12010.8	8.175467	-178.676	32.5186	1.032101	0.020264	0.019988	32.5101	12010.8	0.018234	0.019843	1638.33	77899.6
30	2.000000	1.041801	7.36534e+06	-40139.1	955.818	-29791.9	0.000000	0.000000	7.044788	63.4003	NaN	0.000000	0.001676	0.001669	28.081	29.7232	0.001699	17493.3	6.078761	-0.564403	61.4298	1.041400	0.029688	0.029286	63.4003	17493.3	0.026970	0.034697	1827.26	85802.2
30	2.000000	1.051344	7.36534e+06	-40139.1	955.818	-29791.9	0.000000	0.000000	7.055573	93.63	NaN	0.000000	0.001646	0.001681	28.0938	38.6454	0.001740	22213.8	11.0112	172.124	95.1531	1.050978	0.039230	0.038865	93.63	22213.8	0.036069	0.054265	1725.43	87123.9
30	2.000000	1.060727	7.36534e+06	-40139.1	955.818	-29791.9	0.000000	0.000000	7.066680	135.589	NaN	0.000000	0.001655	0.001653	28.1322	48.7965	0.001815	26879.6	6.861949	-4.828341	131.329	1.060390	0.048613	0.048277	135.589	26879.6	0.044830	0.077106	1758.47	88440.6
30	2.000000	1.070268	7.36534e+06	-40139.1	955.818	-29791.9	0.000000	0.000000	7.078084	180.912	NaN	0.000000	0.001637	0.001629	28.1027	57.2585	0.001742	32862.7	3.834083	176.535	182.454	1.069949	0.058155	0.057835	180.912	32862.7	0.054026	0.105262	1718.68	92542.3
30	2.000000	1.079747	7.36534e+06	-40139.1	955.819	-29791.9	0.000000	0.000000	7.090090	242.394	NaN	0.000000	0.001658	0.001723	28.0816	66.4612	0.001853	35862.2	3.353591	-2.811441	238.881	1.079349	0.067634	0.067236	242.394	35862.2	0.062565	0.135165	1793.31	89120.6
30	2.000000	1.089284	7.36534e+06	-40139.1	955.819	-29791.9	0.000000	0.000000	7.102372	309.18	NaN	0.000000	0.001639	0.001673	28.0953	77.2093	0.001753	44054.6	5.599291	172.293	310.829	1.088993	0.077171	0.076880	309.18	44054.6	0.071908	0.171934	1798.25	97069.7
30	2.000000	1.098660	7.36534e+06	-40139.1	955.819	-29791.9	0.000000	0.000000	7.114837	384.361	NaN	0.000000	0.001726	0.001685	28.1341	85.7095	0.001849	46342.2	4.565787	-6.182753	378.225	1.098327	0.086547	0.086214	384.361	46342.2	0.080326	0.208612	1842.46	92700.1
30	2.000000	1.108189	7.36534e+06	-40139.1	955.819	-29791.9	0.000000	0.000000	7.127692	465.301	NaN	0.000000	0.001727	0.001649	28.1013	93.5225	0.001786	52353.8	4.622730	172.394	462.051	1.107809	0.096075	0.095696	465.301	52353.8	0.089410	0.251886	1847.27	95305.9
30	2.000000	1.117841	7.36534e+06	-40139.1	955.819	-29791.9	0.000000	0.000000	7.140652	545.801	NaN	0.000000	0.001725	0.001668	28.0807	103.266	0.001747	59119.8	9.513351	-12.4164	552.141	1.117164	0.105728	0.105051	545.801	59119.8	0.098804	0.300625	1815.56	98513
30	2.000000	1.119097	7.36534e+06	-40139.1	955.821	-29791.9	0.000000	0.000000	7.142459	559.2	NaN	0.000000	0.001694	0.001604	28.0954	105.603	0.001816	58163.9	8.703231	167.438	553.162	1.118795	0.106983	0.106681	559.2	58163.9	0.099773	0.305881	1828.16	96084

File: 2025-07-22_16-23-58_1_31.txt
2025-07-22, 16:23:58, 1
Index	Phase	Displacement	Time	Pos X	Pos Y	Pos Z	Rot A	Rot B	Piezo Z	Force A	Force B	Gripper	Voltage A	Voltage B	Temperature	Amplitude force	Amplitude pos	Stiffness	Phase shift	Phase excitation	Force A raw	Displacement raw	HMax	HMax raw	Real Force	Real Stiffness	Contact Depth	Area	Hardness	Reduced Mod.
[#]	[#]	[um]	[s]	[um]	[um]	[um]	[m°]	[m°]	[um]	[uN]	[uN]	[V]	[V]	[V]	[°C]	[uN]	[um]	[N/m]	[°]	[°]	[uN]	[um]	[um]	[um]	[uN]	[N/m]	[um]	[um^2]	[MPa]	[MPa]
31	1.000000	0.001929	7.36534e+06	-40189.1	955.818	-29791.6	0.000000	0.000000	6.002842	-0.096337	NaN	0.000000	0.001610	0.001658	28.0812	0.079252	0.001042	76.0397	8.523877	-161.548	-0.065651	0.000683	-1.103171	-1.104418	-0.096337	76.0397	-1.102221	-5.368862E+14	1.794357E-16	NaN
31	1.000000	0.043839	7.36534e+06	-40189.1	955.819	-29791.6	0.000000	0.000000	6.044752	-0.078328	NaN	0.000000	0.001643	0.001662	28.0979	0.086219	0.001898	45.4218	52.0795	15.0157	-0.107938	0.042481	-1.061262	-1.062619	-0.078328	45.4218	-1.059969	-1.453443E+14	5.389157E-16	NaN
31	1.000000	0.085857	7.36534e+06	-40189.1	955.818	-29791.6	0.000000	0.000000	6.086774	-0.014941	NaN	0.000000	0.001651	0.001660	28.1322	0.099613	0.002192	45.4404	138.332	-169.654	0.039859	0.084550	-1.019243	-1.020551	-0.014941	45.4404	-1.018997	-4.087433E+13	3.655255E-16	NaN
31	1.000000	0.127836	7.36534e+06	-40189.1	955.819	-29791.6	0.000000	0.000000	6.128753	-0.004990	NaN	0.000000	0.001627	0.001639	28.0983	0.102855	0.002020	50.9079	-165.449	16.7415	-0.016002	0.126489	-0.977264	-0.978611	-0.004990	50.9079	-0.977190	-1.118297E+13	4.461860E-16	NaN
31	1.000000	0.169860	7.36534e+06	-40189.1	955.818	-29791.6	0.000000	0.000000	6.170773	-0.079337	NaN	0.000000	0.001644	0.001650	28.0809	0.128779	0.001819	70.783	168.157	-165.037	-0.067116	0.168580	-0.935241	-0.936521	-0.079337	70.783	-0.934400	-2.961942E+12	2.678550E-14	NaN
31	1.000000	0.211901	7.36534e+06	-40189.1	955.818	-29791.6	0.000000	0.000000	6.212817	-0.033766	NaN	0.000000	0.001649	0.001644	28.0975	0.024528	0.002030	12.0855	-137.949	19.9709	-0.062245	0.210494	-0.893199	-0.894607	-0.033766	12.0855	-0.891104	-7.706085E+11	4.381711E-14	NaN
31	1.000000	0.253918	7.36534e+06	-40189.1	955.819	-29791.6	0.000000	0.000000	6.254833	-0.035436	NaN	0.000000	0.001640	0.001651	28.131	0.062108	0.001999	31.0769	-144.299	-164.968	-0.074896	0.252622	-0.851183	-0.852478	-0.035436	31.0769	-0.850328	-2.163586E+11	1.637830E-13	NaN
31	1.000000	0.295936	7.36534e+06	-40189.1	955.819	-29791.6	0.000000	0.000000	6.296850	-0.087578	NaN	0.000000	0.001598	0.001661	28.1004	0.134241	0.002143	62.6439	-133.095	13.1497	-0.047589	0.294535	-0.809164	-0.810566	-0.087578	62.6439	-0.808115	-5.794313E+10	1.511449E-12	NaN
31	1.000000	0.337949	7.36534e+06	-40189.1	955.819	-29791.6	0.000000	0.000000	6.338863	-0.076346	NaN	0.000000	0.001622	0.001602	28.08	0.097992	0.001968	49.7852	-5.850962	-165.591	0.019026	0.336635	-0.767151	-0.768465	-0.076346	49.7852	-0.766001	-1.552129E+10	4.918811E-12	NaN
31	1.000000	0.379964	7.36534e+06	-40189.1	955.818	-29791.6	0.000000	0.000000	6.380880	-0.027906	NaN	0.000000	0.001630	0.001636	28.095	0.013303	0.001929	6.896559	1.657557	13.1078	-0.024550	0.378645	-0.725136	-0.726456	-0.027906	6.896559	-0.722102	-3.918630E+9	7.121263E-12	NaN
31	1.000000	0.421988	7.36534e+06	-40189.1	955.818	-29791.6	0.000000	0.000000	6.422903	-0.053827	NaN	0.000000	0.001634	0.001624	28.1298	0.044380	0.002026	21.9044	-89.7794	-161.947	-0.012712	0.420655	-0.683112	-0.684445	-0.053827	21.9044	-0.681269	-1.085326E+9	4.959505E-11	NaN
31	1.000000	0.464010	7.36534e+06	-40189.1	955.818	-29791.6	0.000000	0.000000	6.464925	-0.023468	NaN	0.000000	0.001657	0.001666	28.1014	0.092325	0.002051	45.0053	15.9642	15.069	0.007128	0.462622	-0.641091	-0.642479	-0.023468	45.0053	-0.640700	-3.019195E+8	7.773020E-11	NaN
31	1.000000	0.506022	7.36534e+06	-40189.1	955.818	-29791.6	0.000000	0.000000	6.506933	-0.136700	NaN	0.000000	0.001663	0.001639	28.0805	0.060638	0.002040	29.7178	146.572	-166.47	-0.127228	0.504696	-0.599078	-0.600405	-0.136700	29.7178	-0.595628	-7.248381E+7	1.885938E-9	NaN
31	1.000000	0.548042	7.36534e+06	-40189.1	955.818	-29791.6	0.000000	0.000000	6.548958	-0.032119	NaN	0.000000	0.001678	0.001626	28.095	0.103227	0.002042	50.5622	111.465	14.8761	0.007521	0.546678	-0.557058	-0.558423	-0.032119	50.5622	-0.556582	-2.094505E+7	1.533470E-9	NaN
31	1.000000	0.590099	7.36534e+06	-40189.1	955.818	-29791.6	0.000000	0.000000	6.591014	-0.049556	NaN	0.000000	0.001681	0.001600	28.1314	0.032920	0.002034	16.1869	-94.0645	-167.516	0.064329	0.588751	-0.515002	-0.516349	-0.049556	16.1869	-0.512706	-5.15338e+06	9.616254E-9	NaN
31	1.000000	0.632085	7.36534e+06	-40189.1	955.817	-29791.6	0.000000	0.000000	6.632998	-0.107128	NaN	0.000000	0.001716	0.001593	28.1007	0.109496	0.001830	59.842	75.39	13.5088	-0.054876	0.630718	-0.473015	-0.474382	-0.107128	59.842	-0.471672	-1.37677e+06	7.781119E-8	NaN
31	1.000000	0.674118	7.36534e+06	-40189.1	955.818	-29791.6	0.000000	0.000000	6.675030	-0.104727	NaN	0.000000	0.001676	0.001627	28.0792	0.021820	0.001974	11.0554	121.144	-166.136	-0.173096	0.672776	-0.430983	-0.432325	-0.104727	11.0554	-0.423878	-292005	3.586494E-7	NaN
31	1.000000	0.716129	7.36534e+06	-40189.1	955.818	-29791.6	0.000000	0.000000	6.717042	-0.102405	NaN	0.000000	0.001698	0.001623	28.0946	0.144932	0.001914	75.7248	119.472	17.6932	-0.094977	0.714747	-0.388971	-0.390353	-0.102405	75.7248	-0.387957	-89936.2	1.138642E-6	NaN
31	1.000000	0.758117	7.36534e+06	-40189.1	955.818	-29791.6	0.000000	0.000000	6.759032	-0.034367	NaN	0.000000	0.001682	0.001627	28.1315	0.067957	0.001973	34.4429	55.212	-167.187	-0.018293	0.756870	-0.346984	-0.348231	-0.034367	34.4429	-0.346235	-22507.2	1.526918E-6	NaN
31	1.000000	0.800156	7.36534e+06	-40189.1	955.818	-29791.6	0.000000	0.000000	6.801069	-0.093523	NaN	0.000000	0.001660	0.001590	28.1051	0.020488	0.002075	9.874846	134.565	12.9469	-0.109354	0.798772	-0.304945	-0.306328	-0.093523	9.874846	-0.297842	-4370.04	2.140094E-5	NaN
31	1.000000	0.842166	7.36535e+06	-40189.1	955.818	-29791.6	0.000000	0.000000	6.843082	-0.041124	NaN	0.000000	0.001671	0.001586	28.0809	0.034587	0.001867	18.5258	-173.19	-165.26	0.026743	0.840815	-0.262934	-0.264285	-0.041124	18.5258	-0.261269	-1225.63	3.355366E-5	NaN
31	1.000000	0.884179	7.36535e+06	-40189.1	955.818	-29791.6	0.000000	0.000000	6.885098	0.036953	NaN	0.000000	0.001711	0.001667	28.0935	0.090968	0.001962	46.3583	63.811	14.4086	-0.042162	0.882799	-0.220921	-0.222301	0.036953	46.3583	-0.221519	-293.718	-0.000126	NaN
31	1.000000	0.926188	7.36535e+06	-40189.1	955.818	-29791.6	0.000000	0.000000	6.927105	-0.011712	NaN	0.000000	0.001729	0.001605	28.1303	0.032999	0.002190	15.0653	85.3401	-166.358	-0.052048	0.924901	-0.178912	-0.180200	-0.011712	15.0653	-0.178329	-57.1466	0.000205	NaN
31	1.000000	0.968212	7.36535e+06	-40189.1	955.818	-29791.6	0.000000	0.000000	6.969124	-0.105728	NaN	0.000000	0.001742	0.001634	28.1043	0.018447	0.002068	8.919801	-71.5534	14.0595	-0.136705	0.966853	-0.136889	-0.138247	-0.105728	8.919801	-0.127999	-6.966293	0.015177	NaN
31	1.000000	1.010269	7.36535e+06	-40189.1	955.819	-29791.6	0.000000	0.000000	7.011184	-0.036928	NaN	0.000000	0.001671	0.001624	28.0787	0.071925	0.002239	32.1186	-14.0894	-166.008	0.007974	1.008955	-0.094832	-0.096145	-0.036928	32.1186	-0.093970	-1.336185	0.027637	NaN
31	1.000000	1.052261	7.36535e+06	-40189.1	955.818	-29791.6	0.000000	0.000000	7.053176	-0.042259	NaN	0.000000	0.001661	0.001620	28.0929	0.104564	0.002032	51.4539	33.8944	14.8583	-0.029316	1.050922	-0.052839	-0.054179	-0.042259	51.4539	-0.052223	-0.106459	0.396952	NaN
31	1.000000	1.094288	7.36535e+06	-40189.1	955.819	-29791.6	0.000000	0.000000	7.095206	0.031021	NaN	0.000000	0.001679	0.001642	28.1329	0.149812	0.002080	72.0082	133.397	-164.388	-0.031790	1.092944	-0.010813	-0.012156	0.031021	72.0082	-0.011136	-0.007036	-4.409134	NaN
31	2.000000	1.117434	7.36535e+06	-40189.1	955.818	-29791.6	0.000000	0.000000	7.119064	17.3436	NaN	0.000000	0.001756	0.001642	28.1044	13.7966	0.001848	7465.2	9.637935	2.218263	17.1834	1.117020	0.012334	0.011920	17.3436	7465.2	0.010592	0.009846	1761.43	68735
31	2.000000	1.127855	7.36535e+06	-40189.1	955.82	-29791.6	0.000000	0.000000	7.130120	32.8035	NaN	0.000000	0.001724	0.001646	28.0802	21.5832	0.001804	11961.8	2.798375	-175.658	31.226	1.127613	0.022755	0.022512	32.8035	11961.8	0.020698	0.023651	1386.98	71063.2
31	2.000000	1.138355	7.36535e+06	-40189.1	955.819	-29791.6	0.000000	0.000000	7.141790	61.2877	NaN	0.000000	0.001755	0.001641	28.0896	31.4495	0.001812	17360.8	6.186211	-1.104127	60.7725	1.137992	0.033254	0.032891	61.2877	17360.8	0.030607	0.042010	1458.88	77386.8
31	2.000000	1.148844	7.36535e+06	-40189.1	955.82	-29791.6	0.000000	0.000000	7.153947	101.852	NaN	0.000000	0.001632	0.001644	28.1306	40.2993	0.001711	23551.3	4.515382	177.278	100.836	1.148456	0.043744	0.043355	101.852	23551.3	0.040500	0.065327	1559.1	84186.2
31	2.000000	1.159319	7.36535e+06	-40189.1	955.819	-29791.6	0.000000	0.000000	7.166200	145.129	NaN	0.000000	0.001687	0.001667	28.1056	49.7373	0.001783	27903.1	2.700143	-2.618177	143.287	1.159045	0.054219	0.053945	145.129	27903.1	0.050318	0.093398	1553.87	83417.2
31	2.000000	1.169822	7.36535e+06	-40189.1	955.819	-29791.6	0.000000	0.000000	7.179242	206.919	NaN	0.000000	0.001718	0.001650	28.0806	61.2308	0.001768	34627.3	4.835960	174.979	203.546	1.169447	0.064721	0.064346	206.919	34627.3	0.060240	0.126669	1633.54	88891
31	2.000000	1.180425	7.36535e+06	-40189.1	955.82	-29791.6	0.000000	0.000000	7.192534	272.346	NaN	0.000000	0.001677	0.001626	28.0908	72.3477	0.001824	39671.8	8.370152	-10.1112	277.231	1.179739	0.075325	0.074638	272.346	39671.8	0.070176	0.164806	1652.53	89283.1
31	2.000000	1.190793	7.36535e+06	-40189.1	955.821	-29791.6	0.000000	0.000000	7.206133	350.982	NaN	0.000000	0.001656	0.001634	28.129	80.4419	0.001897	42410.5	5.049695	172.417	351.464	1.190503	0.085692	0.085403	350.982	42410.5	0.079486	0.204800	1713.78	85621.3
31	2.000000	1.201272	7.36535e+06	-40189.1	955.82	-29791.6	0.000000	0.000000	7.219987	433.098	NaN	0.000000	0.001690	0.001638	28.1035	89.7943	0.001821	49302.9	3.798069	-7.528518	429.443	1.200921	0.096171	0.095821	433.098	49302.9	0.089583	0.252748	1713.56	89598.8
31	2.000000	1.209756	7.36535e+06	-40189.1	955.82	-29791.6	0.000000	0.000000	7.231355	503.271	NaN	0.000000	0.001678	0.001653	28.0797	97.6596	0.001807	54052.9	5.084239	171.513	500.718	1.209360	0.104656	0.104260	503.271	54052.9	0.097673	0.294542	1708.66	90995.2