Folder: unikorn_login/remote_trans/data/nanoindenter/0828-1/data/Data_2025-08-06,11h17m57s (part 175)

File: 2025-07-22_16-23-58_1_367.txt
2025-07-22, 16:23:58, 1
Index	Phase	Displacement	Time	Pos X	Pos Y	Pos Z	Rot A	Rot B	Piezo Z	Force A	Force B	Gripper	Voltage A	Voltage B	Temperature	Amplitude force	Amplitude pos	Stiffness	Phase shift	Phase excitation	Force A raw	Displacement raw	HMax	HMax raw	Real Force	Real Stiffness	Contact Depth	Area	Hardness	Reduced Mod.
[#]	[#]	[um]	[s]	[um]	[um]	[um]	[m°]	[m°]	[um]	[uN]	[uN]	[V]	[V]	[V]	[°C]	[uN]	[um]	[N/m]	[°]	[°]	[uN]	[um]	[um]	[um]	[uN]	[N/m]	[um]	[um^2]	[MPa]	[MPa]
367	1.000000	0.002443	7.36865e+06	-56989.1	955.819	-29738	0.000000	0.000000	6.002793	0.043078	NaN	0.000000	0.001708	0.001768	28.0825	0.034880	0.000831	41.9711	65.0338	-163.851	0.022625	0.001210	-1.085965	-1.087198	0.043078	41.9711	-1.086734	-3.326309E+14	-1.295062E-16	NaN
367	1.000000	0.044421	7.36865e+06	-56989.1	955.818	-29738	0.000000	0.000000	6.044769	-0.008344	NaN	0.000000	0.001617	0.001759	28.0811	0.018346	0.001897	9.673291	-31.1533	19.8342	0.030455	0.043058	-1.043987	-1.045350	-0.008344	9.673291	-1.043340	-8.687272E+13	9.604641E-17	NaN
367	1.000000	0.086418	7.36865e+06	-56989.1	955.82	-29738	0.000000	0.000000	6.086768	0.062645	NaN	0.000000	0.001632	0.001753	28.0809	0.043205	0.002163	19.9708	-112.362	-166.21	0.078148	0.085085	-1.001990	-1.003324	0.062645	19.9708	-1.004343	-2.595595E+13	-2.413492E-15	NaN
367	1.000000	0.128432	7.36865e+06	-56989.1	955.819	-29738	0.000000	0.000000	6.128782	0.053652	NaN	0.000000	0.001657	0.001807	28.081	0.061811	0.001976	31.2756	135.525	16.8126	0.095260	0.127108	-0.959977	-0.961300	0.053652	31.2756	-0.961263	-6.821812E+12	-7.864792E-15	NaN
367	1.000000	0.170432	7.36865e+06	-56989.1	955.818	-29738	0.000000	0.000000	6.170782	0.045181	NaN	0.000000	0.001729	0.001847	28.0808	0.106243	0.001993	53.3079	149.909	-164.262	0.038529	0.169137	-0.917976	-0.919271	0.045181	53.3079	-0.918612	-1.813257E+12	-2.491693E-14	NaN
367	1.000000	0.212483	7.36865e+06	-56989.1	955.819	-29737.9	0.000000	0.000000	6.212832	0.017325	NaN	0.000000	0.001718	0.001814	28.082	0.029039	0.002177	13.3367	-91.8223	15.0969	0.006550	0.211127	-0.875925	-0.877282	0.017325	13.3367	-0.876899	-4.951932E+11	-3.498711E-14	NaN
367	1.000000	0.254492	7.36865e+06	-56989.1	955.818	-29737.9	0.000000	0.000000	6.254840	-0.014230	NaN	0.000000	0.001764	0.001777	28.0823	0.039998	0.002129	18.7878	173.842	-164.881	-0.025358	0.253189	-0.833916	-0.835219	-0.014230	18.7878	-0.833348	-1.273979E+11	1.116939E-13	NaN
367	1.000000	0.296520	7.36865e+06	-56989.1	955.817	-29737.9	0.000000	0.000000	6.296870	0.031474	NaN	0.000000	0.001699	0.001715	28.0822	0.083750	0.001989	42.1096	-162.004	18.1753	0.020615	0.295131	-0.791888	-0.793278	0.031474	42.1096	-0.792448	-3.550854E+10	-8.863804E-13	NaN
367	1.000000	0.338557	7.36865e+06	-56989.1	955.818	-29737.9	0.000000	0.000000	6.338906	0.033508	NaN	0.000000	0.001713	0.001752	28.0807	0.085939	0.002088	41.1598	71.6863	-163.195	-0.073351	0.337185	-0.749851	-0.751223	0.033508	41.1598	-0.750462	-9.539073E+9	-3.512690E-12	NaN
367	1.000000	0.380540	7.36865e+06	-56989.1	955.818	-29737.9	0.000000	0.000000	6.380892	0.105672	NaN	0.000000	0.001708	0.001745	28.0809	0.051934	0.001928	26.9436	-110.402	16.2425	0.108721	0.379164	-0.707868	-0.709244	0.105672	26.9436	-0.710810	-2.748533E+9	-3.844672E-11	NaN
367	1.000000	0.422522	7.36865e+06	-56989.1	955.818	-29737.9	0.000000	0.000000	6.422873	0.071189	NaN	0.000000	0.001687	0.001710	28.0811	0.143869	0.001999	71.9597	151.601	-165.793	0.045439	0.421276	-0.665886	-0.667132	0.071189	71.9597	-0.666628	-6.842726E+8	-1.040361E-10	NaN
367	1.000000	0.464561	7.36865e+06	-56989.1	955.818	-29737.9	0.000000	0.000000	6.464909	-0.009881	NaN	0.000000	0.001701	0.001726	28.0825	0.131523	0.001983	66.319	-38.7012	16.3624	0.102520	0.463223	-0.623847	-0.625185	-0.009881	66.319	-0.623735	-1.765890E+8	5.595762E-11	NaN
367	1.000000	0.506641	7.36865e+06	-56989.1	955.818	-29737.9	0.000000	0.000000	6.506992	0.080494	NaN	0.000000	0.001676	0.001730	28.0825	0.039294	0.002058	19.0976	112.799	-168.625	-0.036792	0.505268	-0.581767	-0.583141	0.080494	19.0976	-0.584929	-5.160948E+7	-1.559670E-9	NaN
367	1.000000	0.548614	7.36865e+06	-56989.1	955.817	-29737.9	0.000000	0.000000	6.548963	0.006030	NaN	0.000000	0.001691	0.001761	28.0822	0.017568	0.001964	8.942729	-61.4849	18.2208	0.067447	0.547257	-0.539794	-0.541151	0.006030	8.942729	-0.540299	-1.245980E+7	-4.839376E-10	NaN
367	1.000000	0.590600	7.36865e+06	-56989.1	955.818	-29737.9	0.000000	0.000000	6.590949	0.032431	NaN	0.000000	0.001686	0.001733	28.0812	0.024674	0.001859	13.2698	139.746	-163.853	0.074241	0.589358	-0.497808	-0.499050	0.032431	13.2698	-0.499641	-3.38855e+06	-9.570827E-9	NaN
367	1.000000	0.632646	7.36865e+06	-56989.1	955.817	-29737.9	0.000000	0.000000	6.632996	0.042283	NaN	0.000000	0.001724	0.001750	28.0811	0.072247	0.002091	34.5466	-153.643	12.259	0.040690	0.631276	-0.455762	-0.457132	0.042283	34.5466	-0.456680	-847896	-4.986841E-8	NaN
367	1.000000	0.674661	7.36865e+06	-56989.1	955.819	-29737.9	0.000000	0.000000	6.675012	0.057063	NaN	0.000000	0.001702	0.001740	28.0812	0.018068	0.002038	8.864813	-61.6495	-166.313	-0.012747	0.673359	-0.413747	-0.415049	0.057063	8.864813	-0.418575	-245582	-2.323591E-7	NaN
367	1.000000	0.716674	7.36865e+06	-56989.1	955.818	-29737.9	0.000000	0.000000	6.717025	0.074541	NaN	0.000000	0.001741	0.001811	28.0814	0.062172	0.002034	30.5601	177.574	17.281	0.103976	0.715289	-0.371735	-0.373119	0.074541	30.5601	-0.373564	-55901.3	-1.333439E-6	NaN
367	1.000000	0.758697	7.36865e+06	-56989.1	955.817	-29737.9	0.000000	0.000000	6.759050	0.110304	NaN	0.000000	0.001730	0.001721	28.0821	0.036781	0.001923	19.128	-112.166	-165.733	0.084525	0.757430	-0.329711	-0.330978	0.110304	19.128	-0.334036	-14945.2	-7.380602E-6	NaN
367	1.000000	0.800689	7.36865e+06	-56989.1	955.819	-29737.9	0.000000	0.000000	6.801039	0.040594	NaN	0.000000	0.001706	0.001746	28.0819	0.106511	0.001866	57.07	-111.503	14.3856	0.110001	0.799369	-0.287719	-0.289039	0.040594	57.07	-0.288252	-3141.25	-1.292298E-5	NaN
367	1.000000	0.842726	7.36865e+06	-56989.1	955.819	-29737.9	0.000000	0.000000	6.843079	0.115130	NaN	0.000000	0.001685	0.001758	28.082	0.012062	0.001973	6.114189	-118.807	-166.435	0.106229	0.841376	-0.245682	-0.247032	0.115130	6.114189	-0.259805	-1163.91	-9.891590E-5	NaN
367	1.000000	0.884758	7.36865e+06	-56989.1	955.818	-29737.9	0.000000	0.000000	6.885105	-0.021921	NaN	0.000000	0.001757	0.001725	28.0811	0.103786	0.001892	54.8493	-14.754	19.7153	0.008876	0.883379	-0.203650	-0.205030	-0.021921	54.8493	-0.203350	-149.493	0.000147	NaN
367	1.000000	0.926783	7.36866e+06	-56989.1	955.819	-29737.9	0.000000	0.000000	6.927133	0.039699	NaN	0.000000	0.001759	0.001727	28.0808	0.047249	0.002006	23.5567	152.692	-162.202	0.009577	0.925463	-0.161625	-0.162946	0.039699	23.5567	-0.162889	-30.8417	-0.001287	NaN
367	1.000000	0.968800	7.36866e+06	-56989.1	955.818	-29737.9	0.000000	0.000000	6.969149	0.026080	NaN	0.000000	0.001769	0.001754	28.0809	0.032344	0.002028	15.9487	-26.0302	15.7982	0.032246	0.967408	-0.119608	-0.121000	0.026080	15.9487	-0.120835	-5.022304	-0.005193	NaN
367	1.000000	1.010821	7.36866e+06	-56989.1	955.819	-29737.9	0.000000	0.000000	7.011169	-0.004376	NaN	0.000000	0.001760	0.001774	28.0822	0.060877	0.002027	30.0388	-106.832	-168.162	0.025423	1.009497	-0.077587	-0.078911	-0.004376	30.0388	-0.077478	-0.534660	0.008185	NaN
367	1.000000	1.052816	7.36866e+06	-56989.1	955.818	-29737.9	0.000000	0.000000	7.053168	0.097012	NaN	0.000000	0.001772	0.001791	28.0821	0.078183	0.002078	37.6319	100.394	13.6922	0.117196	1.051493	-0.035592	-0.036916	0.097012	37.6319	-0.037526	-0.038072	-2.548119	NaN
367	1.000000	1.094797	7.36866e+06	-56989.1	955.819	-29737.9	0.000000	0.000000	7.095378	5.647753	NaN	0.000000	0.001749	0.001758	28.082	5.427858	0.001701	3191.13	9.888288	-170.567	4.346585	1.093480	0.006389	0.005072	5.647753	3191.13	0.005062	0.004190	1347.99	45042.7
367	2.000000	1.107781	7.36866e+06	-56989.1	955.818	-29737.9	0.000000	0.000000	7.108869	17.9884	NaN	0.000000	0.001661	0.001794	28.0811	18.7162	0.001974	9482.63	9.510019	3.204888	16.3212	1.107485	0.019373	0.019077	17.9884	9482.63	0.017950	0.019423	926.149	62165
367	2.000000	1.118238	7.36866e+06	-56989.1	955.819	-29737.9	0.000000	0.000000	7.120312	41.9667	NaN	0.000000	0.001657	0.001779	28.0808	29.0267	0.001772	16376.9	3.505070	-176.562	40.9124	1.117941	0.029829	0.029533	41.9667	16376.9	0.027907	0.036518	1149.2	78298.1
367	2.000000	1.128824	7.36866e+06	-56989.1	955.819	-29737.9	0.000000	0.000000	7.132569	82.5587	NaN	0.000000	0.001618	0.001758	28.0812	39.9245	0.001851	21574.6	7.139433	-2.324035	84.0365	1.128369	0.040416	0.039960	82.5587	21574.6	0.037546	0.057841	1427.34	81959.3
367	2.000000	1.139214	7.36866e+06	-56989.1	955.818	-29737.9	0.000000	0.000000	7.145020	132.645	NaN	0.000000	0.001670	0.001721	28.081	50.652	0.001765	28697.5	6.977334	173.771	129.987	1.138952	0.050806	0.050544	132.645	28697.5	0.047339	0.084367	1572.23	90267.2
367	2.000000	1.149645	7.36866e+06	-56989.1	955.817	-29737.9	0.000000	0.000000	7.158655	210.538	NaN	0.000000	0.001648	0.001714	28.082	60.3951	0.001685	35847.6	3.935067	-4.407380	204.489	1.149328	0.061237	0.060920	210.538	35847.6	0.056832	0.114693	1835.66	96708.4
367	2.000000	1.160201	7.36866e+06	-56989.1	955.817	-29737.9	0.000000	0.000000	7.172359	287.037	NaN	0.000000	0.001587	0.001711	28.0818	71.4467	0.001820	39246.1	2.248478	176.821	283.839	1.159994	0.071793	0.071586	287.037	39246.1	0.066308	0.149393	1921.36	92769.6
367	2.000000	1.170771	7.36866e+06	-56989.1	955.819	-29737.9	0.000000	0.000000	7.186732	379.48	NaN	0.000000	0.001619	0.001754	28.082	81.5707	0.001765	46216.9	5.085186	-7.526780	380.839	1.170610	0.082363	0.082202	379.48	46216.9	0.076205	0.190239	1994.75	96810.8
367	2.000000	1.181239	7.36866e+06	-56989.1	955.817	-29737.9	0.000000	0.000000	7.201638	487.322	NaN	0.000000	0.001616	0.001680	28.0808	91.7494	0.001820	50417.1	6.045437	170.842	487.597	1.180865	0.092831	0.092457	487.322	50417.1	0.085582	0.233186	2089.85	95389.5
367	2.000000	1.191588	7.36866e+06	-56989.1	955.818	-29737.9	0.000000	0.000000	7.216712	602.176	NaN	0.000000	0.001600	0.001673	28.081	100.85	0.001859	54253.8	5.186141	-8.653918	592.965	1.191255	0.103180	0.102847	602.176	54253.8	0.094855	0.279648	2153.33	93734
367	2.000000	1.196608	7.36866e+06	-56989.1	955.818	-29737.9	0.000000	0.000000	7.222968	632.246	NaN	0.000000	0.001612	0.001720	28.0811	104.545	0.001887	55407.1	2.018243	-5.453136	623.946	1.196189	0.108200	0.107780	632.246	55407.1	0.099641	0.305165	2071.82	91637.2

File: 2025-07-22_16-23-58_1_368.txt
2025-07-22, 16:23:58, 1
Index	Phase	Displacement	Time	Pos X	Pos Y	Pos Z	Rot A	Rot B	Piezo Z	Force A	Force B	Gripper	Voltage A	Voltage B	Temperature	Amplitude force	Amplitude pos	Stiffness	Phase shift	Phase excitation	Force A raw	Displacement raw	HMax	HMax raw	Real Force	Real Stiffness	Contact Depth	Area	Hardness	Reduced Mod.
[#]	[#]	[um]	[s]	[um]	[um]	[um]	[m°]	[m°]	[um]	[uN]	[uN]	[V]	[V]	[V]	[°C]	[uN]	[um]	[N/m]	[°]	[°]	[uN]	[um]	[um]	[um]	[uN]	[N/m]	[um]	[um^2]	[MPa]	[MPa]
368	1.000000	0.002616	7.36866e+06	-57039.1	955.818	-29737.8	0.000000	0.000000	6.002836	0.127522	NaN	0.000000	0.001642	0.001712	28.0804	0.028653	0.000946	30.3012	-20.7217	-172.479	0.129175	0.001406	-1.107669	-1.108879	0.127522	30.3012	-1.110825	-7.004278E+14	-1.820627E-16	NaN
368	1.000000	0.044567	7.36866e+06	-57039.1	955.819	-29737.8	0.000000	0.000000	6.044783	0.041412	NaN	0.000000	0.001629	0.001778	28.0805	0.045742	0.001995	22.9314	109.482	14.1338	-0.010522	0.043190	-1.065718	-1.067095	0.041412	22.9314	-1.067073	-1.810745E+14	-2.287008E-16	NaN
368	1.000000	0.086553	7.36866e+06	-57039.1	955.818	-29737.8	0.000000	0.000000	6.086770	0.058925	NaN	0.000000	0.001665	0.001716	28.0816	0.098371	0.001959	50.2061	92.1903	-162.805	0.071195	0.085243	-1.023732	-1.025042	0.058925	50.2061	-1.024612	-4.864062E+13	-1.211435E-15	NaN
368	1.000000	0.128599	7.36866e+06	-57039.1	955.819	-29737.8	0.000000	0.000000	6.128812	-0.014051	NaN	0.000000	0.001652	0.001741	28.0815	0.107886	0.001935	55.7416	131.027	14.6505	-0.017575	0.127244	-0.981687	-0.983041	-0.014051	55.7416	-0.981497	-1.278157E+13	1.099291E-15	NaN
368	1.000000	0.170602	7.36866e+06	-57039.1	955.818	-29737.8	0.000000	0.000000	6.170817	0.020604	NaN	0.000000	0.001676	0.001800	28.082	0.056857	0.002180	26.0816	151.716	-168.157	0.034805	0.169297	-0.939684	-0.940988	0.020604	26.0816	-0.940276	-3.555173E+12	-5.795476E-15	NaN
368	1.000000	0.212615	7.36866e+06	-57039.1	955.819	-29737.8	0.000000	0.000000	6.212827	-0.049937	NaN	0.000000	0.001602	0.001737	28.0819	0.059837	0.001999	29.927	107.694	15.4154	-0.048083	0.211242	-0.897670	-0.899043	-0.049937	29.927	-0.896419	-9.092276E+11	5.492278E-14	NaN
368	1.000000	0.254611	7.36866e+06	-57039.1	955.818	-29737.8	0.000000	0.000000	6.254826	0.039130	NaN	0.000000	0.001592	0.001764	28.0803	0.066526	0.002104	31.6124	-140.219	-165.768	0.066336	0.253300	-0.855675	-0.856985	0.039130	31.6124	-0.856603	-2.631095E+11	-1.487208E-13	NaN
368	1.000000	0.296658	7.36866e+06	-57039.1	955.818	-29737.8	0.000000	0.000000	6.296874	0.037414	NaN	0.000000	0.001625	0.001742	28.0803	0.049337	0.001977	24.9604	-46.4475	14.6271	0.114125	0.295278	-0.813627	-0.815007	0.037414	24.9604	-0.814751	-7.128901E+10	-5.248173E-13	NaN
368	1.000000	0.338682	7.36866e+06	-57039.1	955.818	-29737.8	0.000000	0.000000	6.338897	0.034630	NaN	0.000000	0.001630	0.001753	28.0803	0.074422	0.001968	37.811	167.544	-163.752	-0.084569	0.337348	-0.771603	-0.772937	0.034630	37.811	-0.772290	-1.889923E+10	-1.832348E-12	NaN
368	1.000000	0.380672	7.36866e+06	-57039.1	955.818	-29737.8	0.000000	0.000000	6.380887	0.009065	NaN	0.000000	0.001591	0.001739	28.0816	0.027547	0.001920	14.3455	179.29	17.3847	-0.030046	0.379334	-0.729613	-0.730951	0.009065	14.3455	-0.730087	-5.034951E+9	-1.800481E-12	NaN
368	1.000000	0.422716	7.36866e+06	-57039.1	955.818	-29737.8	0.000000	0.000000	6.422931	-0.000255	NaN	0.000000	0.001608	0.001733	28.0816	0.137321	0.001990	68.9889	-62.4589	-164.851	0.044039	0.421363	-0.687569	-0.688922	-0.000255	68.9889	-0.687566	-1.323280E+9	1.925541E-13	NaN
368	1.000000	0.464701	7.36866e+06	-57039.1	955.818	-29737.8	0.000000	0.000000	6.464916	0.024826	NaN	0.000000	0.001620	0.001753	28.0819	0.041378	0.002001	20.6804	25.9232	12.2594	0.087948	0.463318	-0.645584	-0.646967	0.024826	20.6804	-0.646484	-3.624393E+8	-6.849773E-11	NaN
368	1.000000	0.506729	7.36866e+06	-57039.1	955.819	-29737.8	0.000000	0.000000	6.506946	0.055070	NaN	0.000000	0.001630	0.001749	28.08	0.072199	0.001987	36.3439	125.626	-164.56	-0.065488	0.505412	-0.603556	-0.604873	0.055070	36.3439	-0.604692	-9.662065E+7	-5.699659E-10	NaN
368	1.000000	0.548733	7.36866e+06	-57039.1	955.819	-29737.8	0.000000	0.000000	6.548948	0.015228	NaN	0.000000	0.001639	0.001717	28.0801	0.072919	0.001967	37.0739	-19.4684	13.1269	0.008890	0.547377	-0.561552	-0.562908	0.015228	37.0739	-0.561860	-2.478011E+7	-6.145251E-10	NaN
368	1.000000	0.590767	7.36866e+06	-57039.1	955.818	-29737.8	0.000000	0.000000	6.590983	0.031532	NaN	0.000000	0.001672	0.001772	28.0799	0.084095	0.001911	43.9977	113.894	-163.536	0.106489	0.589467	-0.519518	-0.520818	0.031532	43.9977	-0.520055	-6.52182e+06	-4.834915E-9	NaN
368	1.000000	0.632769	7.36866e+06	-57039.1	955.818	-29737.8	0.000000	0.000000	6.632982	-0.031264	NaN	0.000000	0.001656	0.001725	28.0817	0.043945	0.002089	21.0331	29.9379	13.231	-0.097049	0.631463	-0.477516	-0.478822	-0.031264	21.0331	-0.476402	-1.60375e+06	1.949409E-8	NaN
368	1.000000	0.674784	7.36866e+06	-57039.1	955.819	-29737.8	0.000000	0.000000	6.674996	-0.045192	NaN	0.000000	0.001639	0.001761	28.0819	0.122366	0.002067	59.2089	-0.351958	-163.987	-0.088293	0.673501	-0.435502	-0.436784	-0.045192	59.2089	-0.434929	-418555	1.079709E-7	NaN
368	1.000000	0.716820	7.36866e+06	-57039.1	955.819	-29737.8	0.000000	0.000000	6.717033	-0.029075	NaN	0.000000	0.001635	0.001783	28.0817	0.130160	0.001967	66.1615	41.1551	13.5139	0.014626	0.715446	-0.393465	-0.394839	-0.029075	66.1615	-0.393135	-106659	2.725996E-7	NaN
368	1.000000	0.758833	7.36866e+06	-57039.1	955.819	-29737.8	0.000000	0.000000	6.759049	0.056872	NaN	0.000000	0.001673	0.001705	28.0817	0.015047	0.001961	7.674400	-170.83	-164.106	0.070265	0.757445	-0.351452	-0.352840	0.056872	7.674400	-0.357010	-32255.4	-1.763166E-6	NaN
368	1.000000	0.800865	7.36866e+06	-57039.1	955.818	-29737.8	0.000000	0.000000	6.801080	0.021029	NaN	0.000000	0.001601	0.001791	28.0804	0.182776	0.001963	93.1131	4.970845	13.5844	-0.031408	0.799486	-0.309420	-0.310799	0.021029	93.1131	-0.309590	-6531.07	-3.219867E-6	NaN
368	1.000000	0.842859	7.36866e+06	-57039.1	955.819	-29737.8	0.000000	0.000000	6.843071	-0.053938	NaN	0.000000	0.001632	0.001768	28.0807	0.066238	0.001869	35.4326	27.5351	-168.553	-0.058548	0.841634	-0.267426	-0.268651	-0.053938	35.4326	-0.266284	-1462.11	3.689024E-5	NaN
368	1.000000	0.884911	7.36867e+06	-57039.1	955.819	-29737.8	0.000000	0.000000	6.885124	-0.023741	NaN	0.000000	0.001607	0.001754	28.0802	0.051579	0.002015	25.5939	72.3342	12.6835	0.027594	0.883536	-0.225374	-0.226749	-0.023741	25.5939	-0.224679	-329.785	7.198924E-5	NaN
368	1.000000	0.926898	7.36867e+06	-57039.1	955.82	-29737.8	0.000000	0.000000	6.927109	-0.082335	NaN	0.000000	0.001615	0.001760	28.0814	0.153806	0.002114	72.7445	83.7364	-166.063	-0.113776	0.925599	-0.183387	-0.184686	-0.082335	72.7445	-0.182538	-67.383	0.001222	NaN
368	1.000000	0.968919	7.36867e+06	-57039.1	955.819	-29737.8	0.000000	0.000000	6.969133	-0.017706	NaN	0.000000	0.001663	0.001747	28.0814	0.095377	0.002192	43.5121	69.9882	16.0639	0.014218	0.967563	-0.141366	-0.142722	-0.017706	43.5121	-0.141061	-12.3839	0.001430	NaN
368	1.000000	1.010946	7.36867e+06	-57039.1	955.819	-29737.8	0.000000	0.000000	7.011159	-0.047724	NaN	0.000000	0.001629	0.001742	28.0812	0.028038	0.002064	13.5841	-109.047	-165.836	-0.012277	1.009633	-0.099339	-0.100652	-0.047724	13.5841	-0.096704	-1.541894	0.030951	NaN
368	1.000000	1.052951	7.36867e+06	-57039.1	955.819	-29737.8	0.000000	0.000000	7.053166	0.020170	NaN	0.000000	0.001646	0.001742	28.0801	0.028220	0.001878	15.0248	-34.3971	12.3662	0.005577	1.051605	-0.057334	-0.058680	0.020170	15.0248	-0.058341	-0.161311	-0.125038	NaN
368	1.000000	1.094960	7.36867e+06	-57039.1	955.818	-29737.8	0.000000	0.000000	7.095173	-0.021779	NaN	0.000000	0.001653	0.001775	28.0804	0.092298	0.001985	46.4908	-109.023	-163.742	-0.120370	1.093649	-0.015325	-0.016636	-0.021779	46.4908	-0.014974	-0.009260	2.352027	NaN
368	2.000000	1.123048	7.36867e+06	-57039.1	955.819	-29737.8	0.000000	0.000000	7.123786	12.7122	NaN	0.000000	0.001606	0.001792	28.0803	13.6279	0.001869	7290.59	7.224503	5.940653	11.7551	1.122680	0.012763	0.012395	12.7122	7290.59	0.011456	0.010845	1172.22	63963.2
368	2.000000	1.133459	7.36867e+06	-57039.1	955.819	-29737.8	0.000000	0.000000	7.135025	32.8386	NaN	0.000000	0.001637	0.001776	28.0815	24.5723	0.001778	13819.4	7.362457	-179.794	31.7345	1.133121	0.023174	0.022836	32.8386	13819.4	0.021392	0.024777	1325.36	80211.6
368	2.000000	1.143974	7.36867e+06	-57039.1	955.82	-29737.8	0.000000	0.000000	7.146660	60.0846	NaN	0.000000	0.001596	0.001730	28.0813	34.611	0.001848	18725.3	6.191192	-0.384361	60.9148	1.143530	0.033689	0.033244	60.0846	18725.3	0.031282	0.043443	1383.06	82080.5
368	2.000000	1.154490	7.36867e+06	-57039.1	955.82	-29737.8	0.000000	0.000000	7.158403	89.8918	NaN	0.000000	0.001603	0.001735	28.0815	42.6579	0.001750	24369	4.720509	178.299	93.2412	1.154122	0.044205	0.043837	89.8918	24369	0.041439	0.067799	1325.85	85506.4
368	2.000000	1.164917	7.36867e+06	-57039.1	955.82	-29737.8	0.000000	0.000000	7.170362	127.135	NaN	0.000000	0.001631	0.001759	28.0815	53.4376	0.001886	28336.1	5.747999	-4.643221	124.625	1.164539	0.054632	0.054254	127.135	28336.1	0.051267	0.096369	1319.26	83396
368	2.000000	1.175418	7.36867e+06	-57039.1	955.82	-29737.8	0.000000	0.000000	7.182889	176.388	NaN	0.000000	0.001621	0.001753	28.0803	62.5852	0.001761	35533.1	6.391795	173.18	174.878	1.175063	0.065133	0.064778	176.388	35533.1	0.061410	0.130911	1347.38	89725.8
368	2.000000	1.186056	7.36867e+06	-57039.1	955.82	-29737.8	0.000000	0.000000	7.195807	231.798	NaN	0.000000	0.001694	0.001732	28.0803	75.2526	0.001907	39458.8	6.064224	-6.965068	237.411	1.185543	0.075771	0.075258	231.798	39458.8	0.071365	0.169684	1366.05	87517.8
368	2.000000	1.196410	7.36867e+06	-57039.1	955.82	-29737.8	0.000000	0.000000	7.209016	301.169	NaN	0.000000	0.001630	0.001757	28.0803	83.5615	0.001821	45895.3	6.420334	171.062	303.031	1.196099	0.086125	0.085814	301.169	45895.3	0.081204	0.212626	1416.43	90935.6
368	2.000000	1.206860	7.36867e+06	-57039.1	955.819	-29737.8	0.000000	0.000000	7.222525	375.528	NaN	0.000000	0.001638	0.001742	28.0814	91.3557	0.001728	52878.1	2.268234	-5.562871	371.131	1.206529	0.096575	0.096243	375.528	52878.1	0.091249	0.261109	1438.2	94545
368	2.000000	1.216851	7.36867e+06	-57039.1	955.82	-29737.8	0.000000	0.000000	7.236315	467.853	NaN	0.000000	0.001713	0.001708	28.0812	101.497	0.001781	56999.6	5.110663	-8.555222	462.99	1.216254	0.106566	0.105969	467.853	56999.6	0.100410	0.309362	1512.31	93629.2