Folder: unikorn_login/remote_trans/data/nanoindenter/0828-1/data/Data_2025-08-06,11h17m57s (part 56)

File: 2025-07-22_16-23-58_1_129.txt
2025-07-22, 16:23:58, 1
Index	Phase	Displacement	Time	Pos X	Pos Y	Pos Z	Rot A	Rot B	Piezo Z	Force A	Force B	Gripper	Voltage A	Voltage B	Temperature	Amplitude force	Amplitude pos	Stiffness	Phase shift	Phase excitation	Force A raw	Displacement raw	HMax	HMax raw	Real Force	Real Stiffness	Contact Depth	Area	Hardness	Reduced Mod.
[#]	[#]	[um]	[s]	[um]	[um]	[um]	[m°]	[m°]	[um]	[uN]	[uN]	[V]	[V]	[V]	[°C]	[uN]	[um]	[N/m]	[°]	[°]	[uN]	[um]	[um]	[um]	[uN]	[N/m]	[um]	[um^2]	[MPa]	[MPa]
129	1.000000	0.002434	7.3663e+06	-45089.1	955.818	-29773.5	0.000000	0.000000	6.002793	-0.030615	NaN	0.000000	0.001615	0.001704	28.1165	0.050831	0.000792	64.2178	99.3432	-163.222	-0.033889	0.001166	-1.756658	-1.757927	-0.030615	64.2178	-1.756300	-2.845229E+23	1.076018E-25	NaN
129	1.000000	0.062400	7.3663e+06	-45089.1	955.819	-29773.5	0.000000	0.000000	6.062759	-0.008494	NaN	0.000000	0.001667	0.001681	28.0808	0.080901	0.002095	38.6167	141.473	-164.611	-0.065645	0.061100	-1.696693	-1.697992	-0.008494	38.6167	-1.696528	-4.574159E+22	1.856999E-25	NaN
129	1.000000	0.122404	7.3663e+06	-45089.1	955.818	-29773.5	0.000000	0.000000	6.122764	0.011556	NaN	0.000000	0.001634	0.001653	28.1184	0.039228	0.002074	18.9109	-87.6722	-166.317	0.013206	0.121115	-1.636688	-1.637978	0.011556	18.9109	-1.637146	-7.433065E+21	-1.554736E-24	NaN
129	1.000000	0.182435	7.3663e+06	-45089.1	955.818	-29773.5	0.000000	0.000000	6.182793	-0.039850	NaN	0.000000	0.001648	0.001698	28.0822	0.031607	0.002073	15.2481	-149.166	-163.441	-0.010303	0.181170	-1.576658	-1.577922	-0.039850	15.2481	-1.574698	-1.098098E+21	3.629046E-23	NaN
129	1.000000	0.242467	7.3663e+06	-45089.1	955.819	-29773.5	0.000000	0.000000	6.242828	0.025761	NaN	0.000000	0.001645	0.001702	28.1168	0.140775	0.002058	68.3966	-30.5783	-164.783	0.002824	0.241189	-1.516625	-1.517904	0.025761	68.3966	-1.516908	-1.868393E+20	-1.378790E-22	NaN
129	1.000000	0.302503	7.3663e+06	-45089.1	955.818	-29773.4	0.000000	0.000000	6.302862	0.000153	NaN	0.000000	0.001581	0.001740	28.0795	0.142236	0.002072	68.6334	-99.8427	-161.438	0.109621	0.301202	-1.456590	-1.457890	0.000153	68.6334	-1.456591	-2.937609E+19	-5.195581E-24	NaN
129	1.000000	0.362500	7.3663e+06	-45089.1	955.818	-29773.4	0.000000	0.000000	6.362860	0.030492	NaN	0.000000	0.001583	0.001669	28.1182	0.044585	0.001975	22.5765	-3.844992	-164.699	0.007992	0.361235	-1.396593	-1.397858	0.030492	22.5765	-1.397606	-4.803190E+18	-6.348208E-21	NaN
129	1.000000	0.422538	7.3663e+06	-45089.1	955.818	-29773.4	0.000000	0.000000	6.422896	-0.027391	NaN	0.000000	0.001561	0.001692	28.0824	0.076380	0.001959	38.982	49.1782	-166.808	-0.027214	0.421280	-1.336555	-1.337812	-0.027391	38.982	-1.336028	-7.238859E+17	3.783819E-20	NaN
129	1.000000	0.482564	7.3663e+06	-45089.1	955.818	-29773.4	0.000000	0.000000	6.482921	-0.053132	NaN	0.000000	0.001541	0.001652	28.119	0.043061	0.001889	22.7992	-71.431	-165.544	-0.105876	0.481270	-1.276529	-1.277823	-0.053132	22.7992	-1.274781	-1.099791E+17	4.831088E-19	NaN
129	1.000000	0.542627	7.3663e+06	-45089.1	955.819	-29773.4	0.000000	0.000000	6.542986	-0.013255	NaN	0.000000	0.001578	0.001656	28.0788	0.059926	0.001902	31.5005	-2.191984	-166.958	-0.121013	0.541290	-1.216465	-1.217803	-0.013255	31.5005	-1.216150	-1.807027E+16	7.335352E-19	NaN
129	1.000000	0.602617	7.3663e+06	-45089.1	955.818	-29773.4	0.000000	0.000000	6.602977	0.004332	NaN	0.000000	0.001561	0.001684	28.1195	0.065677	0.001940	33.8474	-143.201	-166.482	0.007197	0.601334	-1.156475	-1.157759	0.004332	33.8474	-1.156571	-2.876793E+15	-1.505978E-18	NaN
129	1.000000	0.662637	7.3663e+06	-45089.1	955.818	-29773.4	0.000000	0.000000	6.662997	0.009869	NaN	0.000000	0.001511	0.001638	28.0821	0.054654	0.001957	27.9345	-171.713	-166.747	0.070492	0.661348	-1.096456	-1.097745	0.009869	27.9345	-1.096721	-4.529432E+14	-2.178912E-17	NaN
129	1.000000	0.722698	7.3663e+06	-45089.1	955.818	-29773.4	0.000000	0.000000	6.723059	0.046768	NaN	0.000000	0.001495	0.001720	28.1204	0.094179	0.001972	47.7677	-86.2881	-164.693	0.000263	0.721312	-1.036395	-1.037780	0.046768	47.7677	-1.037129	-7.167426E+13	-6.525038E-16	NaN
129	1.000000	0.782721	7.3663e+06	-45089.1	955.818	-29773.4	0.000000	0.000000	6.783080	-0.004327	NaN	0.000000	0.001519	0.001676	28.0796	0.100511	0.002101	47.8479	134.077	-164.706	0.026710	0.781394	-0.976372	-0.977699	-0.004327	47.8479	-0.976304	-1.087955E+13	3.976989E-16	NaN
129	1.000000	0.842743	7.3663e+06	-45089.1	955.819	-29773.4	0.000000	0.000000	6.843101	-0.023000	NaN	0.000000	0.001599	0.001680	28.12	0.059464	0.002010	29.5905	60.4372	-162.926	-0.023749	0.841470	-0.916350	-0.917623	-0.023000	29.5905	-0.915767	-1.659766E+12	1.385764E-14	NaN
129	1.000000	0.902749	7.3663e+06	-45089.1	955.818	-29773.4	0.000000	0.000000	6.903110	0.051299	NaN	0.000000	0.001602	0.001756	28.0799	0.010708	0.001961	5.461438	-6.294413	-163.412	0.025184	0.901473	-0.856344	-0.857620	0.051299	5.461438	-0.863388	-3.250727E+11	-1.578075E-13	NaN
129	1.000000	0.962787	7.3663e+06	-45089.1	955.819	-29773.4	0.000000	0.000000	6.963147	0.020013	NaN	0.000000	0.001565	0.001739	28.1207	0.029623	0.002087	14.1923	-13.928	-167.625	-0.102245	0.961458	-0.796306	-0.797634	0.020013	14.1923	-0.797363	-4.140657E+10	-4.833219E-13	NaN
129	1.000000	1.022783	7.3663e+06	-45089.1	955.819	-29773.4	0.000000	0.000000	7.023145	0.075492	NaN	0.000000	0.001618	0.001711	28.0798	0.066769	0.001981	33.7023	173.641	-166.111	0.024420	1.021508	-0.736310	-0.737585	0.075492	33.7023	-0.737990	-6.451676E+9	-1.170114E-11	NaN
129	1.000000	1.082799	7.3663e+06	-45089.1	955.818	-29773.4	0.000000	0.000000	7.083158	0.014573	NaN	0.000000	0.001638	0.001769	28.1225	0.092693	0.002192	42.2905	-78.1561	-167.716	0.074006	1.081507	-0.676294	-0.677586	0.014573	42.2905	-0.676552	-9.355103E+8	-1.557743E-11	NaN
129	1.000000	1.142858	7.3663e+06	-45089.1	955.819	-29773.4	0.000000	0.000000	7.143217	-0.019050	NaN	0.000000	0.001565	0.001773	28.0804	0.031146	0.001997	15.5946	20.8437	-165.367	0.088179	1.141545	-0.616234	-0.617547	-0.019050	15.5946	-0.615318	-1.352893E+8	1.408085E-10	NaN
129	1.000000	1.202861	7.3663e+06	-45089.1	955.819	-29773.4	0.000000	0.000000	7.203219	-0.013163	NaN	0.000000	0.001606	0.001792	28.1223	0.048353	0.002000	24.174	-83.3201	-165.484	-0.054248	1.201542	-0.556232	-0.557551	-0.013163	24.174	-0.555823	-2.044496E+7	6.438164E-10	NaN
129	1.000000	1.262915	7.3663e+06	-45089.1	955.818	-29773.4	0.000000	0.000000	7.263276	0.051845	NaN	0.000000	0.001601	0.001715	28.0782	0.075803	0.002149	35.2662	-132.504	-167.115	0.012518	1.261574	-0.496178	-0.497518	0.051845	35.2662	-0.497281	-3.14102e+06	-1.650570E-8	NaN
129	1.000000	1.322932	7.3663e+06	-45089.1	955.819	-29773.4	0.000000	0.000000	7.323290	-0.019486	NaN	0.000000	0.001585	0.001753	28.123	0.042388	0.001974	21.4757	-97.8345	-163.625	-0.006091	1.321638	-0.436160	-0.437454	-0.019486	21.4757	-0.435480	-426124	4.572827E-8	NaN
129	1.000000	1.382964	7.3663e+06	-45089.1	955.819	-29773.4	0.000000	0.000000	7.383321	-0.051915	NaN	0.000000	0.001536	0.001782	28.0786	0.066885	0.002156	31.0201	-106.437	-169.475	0.014820	1.381630	-0.376129	-0.377462	-0.051915	31.0201	-0.374873	-58378.3	8.892914E-7	NaN
129	1.000000	1.442942	7.3663e+06	-45089.1	955.819	-29773.4	0.000000	0.000000	7.443301	-0.007934	NaN	0.000000	0.001545	0.001729	28.1222	0.090063	0.002039	44.16	-149.15	-166.438	0.002769	1.441697	-0.316150	-0.317395	-0.007934	44.16	-0.316016	-8127.02	9.762485E-7	NaN
129	1.000000	1.503000	7.3663e+06	-45089.1	955.82	-29773.4	0.000000	0.000000	7.503358	-0.024283	NaN	0.000000	0.001563	0.001738	28.0785	0.068227	0.001889	36.1202	66.0888	-164.435	-0.046292	1.501667	-0.256093	-0.257425	-0.024283	36.1202	-0.255589	-1002.71	2.421780E-5	NaN
129	1.000000	1.563052	7.3663e+06	-45089.1	955.82	-29773.4	0.000000	0.000000	7.563407	-0.114669	NaN	0.000000	0.001576	0.001776	28.1247	0.107714	0.002062	52.2269	-152.59	-162.789	0.001263	1.561722	-0.196040	-0.197370	-0.114669	52.2269	-0.194394	-106.452	0.001077	NaN
129	1.000000	1.623051	7.36631e+06	-45089.1	955.821	-29773.4	0.000000	0.000000	7.623408	-0.051272	NaN	0.000000	0.001598	0.001734	28.0789	0.069837	0.002053	34.0139	113.914	-168.266	-0.049057	1.621758	-0.136042	-0.137334	-0.051272	34.0139	-0.134911	-9.475385	0.005411	NaN
129	1.000000	1.683093	7.36631e+06	-45089.1	955.82	-29773.4	0.000000	0.000000	7.683452	0.002497	NaN	0.000000	0.001588	0.001746	28.1224	0.065004	0.002048	31.7463	-64.7616	-166.872	-0.048140	1.681760	-0.076000	-0.077332	0.002497	31.7463	-0.076059	-0.491819	-0.005077	NaN
129	1.000000	1.743121	7.36631e+06	-45089.1	955.82	-29773.4	0.000000	0.000000	7.743483	0.062402	NaN	0.000000	0.001575	0.001752	28.0782	0.018573	0.002040	9.102475	60.8904	-165.794	-0.011214	1.741791	-0.015972	-0.017302	0.062402	9.102475	-0.021113	-0.013406	-4.654597	NaN
129	2.000000	1.777598	7.36631e+06	-45089.1	955.821	-29773.4	0.000000	0.000000	7.778885	22.562	NaN	0.000000	0.001581	0.001759	28.1254	17.623	0.001722	10232.3	7.421303	-178.666	21.219	1.777278	0.018506	0.018186	22.562	10232.3	0.016852	0.017835	1265.02	70001.2
129	2.000000	1.792548	7.36631e+06	-45089.1	955.821	-29773.4	0.000000	0.000000	7.795217	56.2058	NaN	0.000000	0.001549	0.001765	28.0801	30.869	0.001665	18536.6	2.798390	-178.573	56.4288	1.792164	0.033455	0.033071	56.2058	18536.6	0.031181	0.043227	1300.24	81456.4
129	2.000000	1.807439	7.36631e+06	-45089.1	955.82	-29773.4	0.000000	0.000000	7.811992	102.042	NaN	0.000000	0.001571	0.001798	28.1233	45.1767	0.001743	25919	6.917898	173.147	98.2758	1.807195	0.048346	0.048103	102.042	25919	0.045393	0.078708	1296.46	84407.5
129	2.000000	1.822425	7.36631e+06	-45089.1	955.821	-29773.4	0.000000	0.000000	7.829781	170.207	NaN	0.000000	0.001609	0.001734	28.0768	57.6838	0.001757	32824.8	2.727077	175.907	166.579	1.822061	0.063333	0.062969	170.207	32824.8	0.059444	0.123822	1374.62	85226.9
129	2.000000	1.837454	7.36631e+06	-45089.1	955.822	-29773.4	0.000000	0.000000	7.847796	242.844	NaN	0.000000	0.001589	0.001818	28.1258	71.8033	0.001799	39916.9	1.945507	175.402	240.179	1.837266	0.078362	0.078174	242.844	39916.9	0.073799	0.179883	1350.01	85987.3
129	2.000000	1.852469	7.36631e+06	-45089.1	955.823	-29773.4	0.000000	0.000000	7.866928	342.996	NaN	0.000000	0.001537	0.001770	28.0799	83.742	0.001663	50348.7	3.261551	172.783	341.038	1.852061	0.093377	0.092968	342.996	50348.7	0.088267	0.246234	1392.97	92701.7
129	2.000000	1.867415	7.36631e+06	-45089.1	955.822	-29773.4	0.000000	0.000000	7.885778	437.991	NaN	0.000000	0.001556	0.001747	28.124	96.7452	0.001780	54341.1	6.994574	168.808	435.781	1.867082	0.108322	0.107990	437.991	54341.1	0.102277	0.319663	1370.16	87812.4
129	2.000000	1.867964	7.36631e+06	-45089.1	955.822	-29773.4	0.000000	0.000000	7.886429	440.452	NaN	0.000000	0.001559	0.001756	28.0843	96.0903	0.001817	52895	1.458803	-5.697241	437.942	1.867634	0.108872	0.108542	440.452	52895	0.102626	0.321608	1369.53	85216.6

File: 2025-07-22_16-23-58_1_130.txt
2025-07-22, 16:23:58, 1
Index	Phase	Displacement	Time	Pos X	Pos Y	Pos Z	Rot A	Rot B	Piezo Z	Force A	Force B	Gripper	Voltage A	Voltage B	Temperature	Amplitude force	Amplitude pos	Stiffness	Phase shift	Phase excitation	Force A raw	Displacement raw	HMax	HMax raw	Real Force	Real Stiffness	Contact Depth	Area	Hardness	Reduced Mod.
[#]	[#]	[um]	[s]	[um]	[um]	[um]	[m°]	[m°]	[um]	[uN]	[uN]	[V]	[V]	[V]	[°C]	[uN]	[um]	[N/m]	[°]	[°]	[uN]	[um]	[um]	[um]	[uN]	[N/m]	[um]	[um^2]	[MPa]	[MPa]
130	1.000000	0.002429	7.36631e+06	-45139.1	955.818	-29773.9	0.000000	0.000000	6.002808	-0.064070	NaN	0.000000	0.001629	0.001690	28.1305	0.038216	0.001091	35.0276	116.36	-160.886	-0.112231	0.001229	-1.075754	-1.076954	-0.064070	35.0276	-1.074382	-2.270188E+14	2.822245E-16	NaN
130	1.000000	0.042388	7.36631e+06	-45139.1	955.819	-29773.9	0.000000	0.000000	6.042775	0.117292	NaN	0.000000	0.001538	0.001748	28.1291	0.030507	0.001937	15.7481	-155.029	-165.275	0.006866	0.041026	-1.035795	-1.037157	0.117292	15.7481	-1.041381	-8.175850E+13	-1.434621E-15	NaN
130	1.000000	0.082400	7.36631e+06	-45139.1	955.818	-29773.9	0.000000	0.000000	6.082780	-0.035204	NaN	0.000000	0.001519	0.001743	28.1308	0.115779	0.001968	58.8291	65.5782	-167.131	-0.045392	0.081061	-0.995783	-0.997122	-0.035204	58.8291	-0.995334	-1.963131E+13	1.793274E-15	NaN
130	1.000000	0.122437	7.36631e+06	-45139.1	955.818	-29773.9	0.000000	0.000000	6.122818	-0.006531	NaN	0.000000	0.001510	0.001696	28.128	0.004196	0.001801	2.329210	-104.541	-167.871	-0.031765	0.121084	-0.955746	-0.957099	-0.006531	2.329210	-0.953643	-5.384656E+12	1.212885E-15	NaN
130	1.000000	0.162413	7.36631e+06	-45139.1	955.819	-29774	0.000000	0.000000	6.162793	-0.034575	NaN	0.000000	0.001528	0.001703	28.1293	0.040143	0.001887	21.2734	-101.718	-166.77	-0.052449	0.161114	-0.915770	-0.917069	-0.034575	21.2734	-0.914551	-1.598185E+12	2.163421E-14	NaN
130	1.000000	0.202454	7.36631e+06	-45139.1	955.819	-29774	0.000000	0.000000	6.202837	0.032209	NaN	0.000000	0.001539	0.001698	28.1288	0.045525	0.001989	22.8859	-70.8154	-163.733	0.036041	0.201142	-0.875729	-0.877041	0.032209	22.8859	-0.876784	-4.934197E+11	-6.527745E-14	NaN
130	1.000000	0.242428	7.36631e+06	-45139.1	955.818	-29774	0.000000	0.000000	6.242812	0.043936	NaN	0.000000	0.001569	0.001701	28.1317	0.158256	0.002030	77.9731	-139.443	-161.292	-0.027781	0.241160	-0.835754	-0.837023	0.043936	77.9731	-0.836177	-1.391540E+11	-3.157341E-13	NaN
130	1.000000	0.282458	7.36631e+06	-45139.1	955.818	-29774	0.000000	0.000000	6.282837	-0.065222	NaN	0.000000	0.001535	0.001748	28.13	0.073901	0.001917	38.5569	-85.8941	-166.774	-0.117647	0.281157	-0.795725	-0.797025	-0.065222	38.5569	-0.794456	-3.780949E+10	1.725012E-12	NaN
130	1.000000	0.322493	7.36631e+06	-45139.1	955.819	-29774	0.000000	0.000000	6.322876	0.036639	NaN	0.000000	0.001550	0.001703	28.1309	0.119250	0.001978	60.2944	72.9081	-166.457	0.003474	0.321215	-0.755690	-0.756968	0.036639	60.2944	-0.756145	-1.139878E+10	-3.214278E-12	NaN
130	1.000000	0.362501	7.36631e+06	-45139.1	955.818	-29774	0.000000	0.000000	6.362882	-0.000124	NaN	0.000000	0.001515	0.001688	28.1299	0.117517	0.001909	61.5726	134.426	-165.895	-0.000451	0.361210	-0.715682	-0.716973	-0.000124	61.5726	-0.715680	-3.202982E+9	3.864915E-14	NaN
130	1.000000	0.402484	7.36631e+06	-45139.1	955.818	-29774	0.000000	0.000000	6.402867	0.015709	NaN	0.000000	0.001514	0.001737	28.1297	0.067596	0.002061	32.8008	68.022	-165.692	0.032049	0.401208	-0.675699	-0.676974	0.015709	32.8008	-0.676058	-9.210467E+8	-1.705602E-11	NaN
130	1.000000	0.442547	7.36631e+06	-45139.1	955.819	-29774	0.000000	0.000000	6.442929	0.002260	NaN	0.000000	0.001521	0.001743	28.1285	0.037783	0.001987	19.0164	-88.664	-168.655	-0.012671	0.441230	-0.635635	-0.636953	0.002260	19.0164	-0.635724	-2.579978E+8	-8.761462E-12	NaN
130	1.000000	0.482544	7.36631e+06	-45139.1	955.818	-29774	0.000000	0.000000	6.482930	0.093075	NaN	0.000000	0.001512	0.001695	28.1297	0.126784	0.002076	61.0596	-101.168	-163.62	0.059697	0.481286	-0.595639	-0.596897	0.093075	61.0596	-0.596782	-7.518537E+7	-1.237940E-9	NaN
130	1.000000	0.522567	7.36631e+06	-45139.1	955.819	-29774	0.000000	0.000000	6.522949	0.009270	NaN	0.000000	0.001541	0.001700	28.1303	0.081089	0.001946	41.6727	-38.6467	-166.841	0.014365	0.521241	-0.555616	-0.556942	0.009270	41.6727	-0.555783	-2.041859E+7	-4.539988E-10	NaN
130	1.000000	0.562575	7.36631e+06	-45139.1	955.818	-29774	0.000000	0.000000	6.562957	0.001336	NaN	0.000000	0.001520	0.001742	28.131	0.030541	0.001871	16.3202	52.2634	-165.246	-0.055435	0.561324	-0.515607	-0.516859	0.001336	16.3202	-0.515669	-5.66686e+06	-2.358074E-10	NaN
130	1.000000	0.602620	7.36631e+06	-45139.1	955.819	-29774	0.000000	0.000000	6.603002	-0.010197	NaN	0.000000	0.001611	0.001696	28.1301	0.037965	0.001962	19.3544	87.7934	-168.04	0.011283	0.601289	-0.475562	-0.476894	-0.010197	19.3544	-0.475167	-1.54114e+06	6.616715E-9	NaN
130	1.000000	0.642607	7.36631e+06	-45139.1	955.819	-29774	0.000000	0.000000	6.642989	0.004457	NaN	0.000000	0.001622	0.001683	28.1314	0.097725	0.002080	46.9781	-64.3468	-166.262	-0.003048	0.641315	-0.435575	-0.436868	0.004457	46.9781	-0.435647	-428439	-1.040306E-8	NaN
130	1.000000	0.682655	7.36631e+06	-45139.1	955.818	-29774	0.000000	0.000000	6.683036	-0.024210	NaN	0.000000	0.001656	0.001700	28.1293	0.148101	0.002034	72.7951	3.285375	-164.037	0.047200	0.681300	-0.395528	-0.396883	-0.024210	72.7951	-0.395278	-114449	2.115354E-7	NaN
130	1.000000	0.722656	7.36631e+06	-45139.1	955.818	-29774	0.000000	0.000000	6.723038	0.000196	NaN	0.000000	0.001545	0.001693	28.1303	0.107346	0.002018	53.1834	-27.8491	-165.771	0.065677	0.721330	-0.355526	-0.356852	0.000196	53.1834	-0.355529	-30701.5	-6.384182E-9	NaN
130	1.000000	0.762659	7.36631e+06	-45139.1	955.819	-29774	0.000000	0.000000	6.763041	0.028340	NaN	0.000000	0.001523	0.001711	28.1293	0.083983	0.002030	41.3641	142.667	-165.155	-0.062978	0.761395	-0.315524	-0.316787	0.028340	41.3641	-0.316038	-8133.23	-3.484427E-6	NaN
130	1.000000	0.802694	7.36631e+06	-45139.1	955.818	-29774	0.000000	0.000000	6.803074	-0.045772	NaN	0.000000	0.001541	0.001757	28.132	0.066443	0.001997	33.2643	26.2617	-165.712	-0.035375	0.801395	-0.275489	-0.276788	-0.045772	33.2643	-0.274457	-1946.14	2.351934E-5	NaN
130	1.000000	0.842689	7.36631e+06	-45139.1	955.819	-29774	0.000000	0.000000	6.843071	0.015667	NaN	0.000000	0.001568	0.001750	28.1311	0.143479	0.002019	71.0539	157.072	-167.34	-0.033807	0.841383	-0.235494	-0.236800	0.015667	71.0539	-0.235659	-491.581	-3.186996E-5	NaN
130	1.000000	0.882698	7.36631e+06	-45139.1	955.818	-29774	0.000000	0.000000	6.883080	0.024929	NaN	0.000000	0.001567	0.001777	28.1322	0.078391	0.002073	37.8213	140.286	-165.045	-0.072346	0.881404	-0.195485	-0.196779	0.024929	37.8213	-0.195979	-113.088	-0.000220	NaN
130	1.000000	0.922737	7.36631e+06	-45139.1	955.819	-29774	0.000000	0.000000	6.923116	-0.073741	NaN	0.000000	0.001557	0.001751	28.1303	0.041357	0.001948	21.2271	79.6714	-166.732	-0.034910	0.921418	-0.155446	-0.156765	-0.073741	21.2271	-0.152840	-20.3989	0.003615	NaN
130	1.000000	0.962759	7.36631e+06	-45139.1	955.819	-29774	0.000000	0.000000	6.963140	-0.002823	NaN	0.000000	0.001559	0.001730	28.1309	0.068060	0.002045	33.2885	-100.515	-164.625	-0.001156	0.961425	-0.115424	-0.116757	-0.002823	33.2885	-0.115360	-3.886246	0.000726	NaN
130	1.000000	1.002788	7.36632e+06	-45139.1	955.819	-29774	0.000000	0.000000	7.003167	-0.049886	NaN	0.000000	0.001567	0.001719	28.1301	0.084688	0.001898	44.616	-58.7944	-166.125	-0.069196	1.001492	-0.075395	-0.076691	-0.049886	44.616	-0.074556	-0.449809	0.110905	NaN
130	1.000000	1.042795	7.36632e+06	-45139.1	955.82	-29774	0.000000	0.000000	7.043173	-0.080200	NaN	0.000000	0.001572	0.001755	28.1309	0.075399	0.002110	35.7395	-168.405	-166.045	-0.054467	1.041432	-0.035388	-0.036751	-0.080200	35.7395	-0.033705	-0.029348	2.732744	NaN
130	1.000000	1.082770	7.36632e+06	-45139.1	955.819	-29774	0.000000	0.000000	7.083232	1.963719	NaN	0.000000	0.001554	0.001720	28.1311	2.836164	0.001883	1506.39	7.021932	-164.815	0.695900	1.081517	0.004587	0.003334	1.963719	1506.39	0.003609	0.002899	677.306	25560.1
130	2.000000	1.096394	7.36632e+06	-45139.1	955.819	-29774	0.000000	0.000000	7.097713	22.8059	NaN	0.000000	0.001538	0.001758	28.1323	19.2338	0.001851	10390.9	5.668230	-175.851	25.0342	1.096032	0.018211	0.017849	22.8059	10390.9	0.016565	0.017430	1308.44	71908.8
130	2.000000	1.106282	7.36632e+06	-45139.1	955.819	-29774	0.000000	0.000000	7.108747	50.6767	NaN	0.000000	0.001555	0.001723	28.1312	30.7955	0.001801	17101.4	4.823770	179.146	49.3264	1.106009	0.028099	0.027827	50.6767	17101.4	0.025877	0.032630	1553.07	86496.4
130	2.000000	1.116250	7.36632e+06	-45139.1	955.819	-29774	0.000000	0.000000	7.119835	77.9369	NaN	0.000000	0.001557	0.001753	28.1318	39.8265	0.001800	22127.1	3.940922	178.688	75.5993	1.116052	0.038067	0.037870	77.9369	22127.1	0.035426	0.052742	1477.71	88028.1
130	2.000000	1.126334	7.36632e+06	-45139.1	955.819	-29774	0.000000	0.000000	7.131734	122.09	NaN	0.000000	0.001607	0.001740	28.1303	50.0964	0.001981	25286.6	6.027484	177.404	125.577	1.125946	0.048151	0.047764	122.09	25286.6	0.044530	0.076259	1600.99	83660
130	2.000000	1.136195	7.36632e+06	-45139.1	955.819	-29774	0.000000	0.000000	7.143496	168.318	NaN	0.000000	0.001609	0.001738	28.1312	59.1493	0.001678	35249.9	0.472858	178.546	164.081	1.135896	0.058013	0.057714	168.318	35249.9	0.054431	0.106601	1578.96	98639.5
130	2.000000	1.146143	7.36632e+06	-45139.1	955.82	-29774	0.000000	0.000000	7.156112	233.226	NaN	0.000000	0.001570	0.001717	28.1305	70.102	0.001789	39194.3	6.430898	171.789	228.55	1.145812	0.067960	0.067629	233.226	39194.3	0.063497	0.138647	1682.15	96170.2
130	2.000000	1.156201	7.36632e+06	-45139.1	955.82	-29774	0.000000	0.000000	7.168467	289.123	NaN	0.000000	0.001559	0.001692	28.1326	79.0579	0.001813	43597.4	5.205166	171.935	286.326	1.155978	0.078018	0.077795	289.123	43597.4	0.073044	0.176691	1636.31	94760.1
130	2.000000	1.166201	7.36632e+06	-45139.1	955.821	-29774	0.000000	0.000000	7.182025	375.679	NaN	0.000000	0.001562	0.001702	28.1315	89.5859	0.001731	51765.8	6.307460	169.807	374.381	1.165837	0.088018	0.087654	375.679	51765.8	0.082575	0.218971	1715.66	101070
130	2.000000	1.176193	7.36632e+06	-45139.1	955.821	-29774	0.000000	0.000000	7.195288	455.24	NaN	0.000000	0.001535	0.001728	28.1325	97.0582	0.001759	55178.3	-0.442861	176.896	453.744	1.175870	0.098010	0.097687	455.24	55178.3	0.091823	0.264019	1724.27	98112.3
130	2.000000	1.186293	7.36632e+06	-45139.1	955.821	-29774	0.000000	0.000000	7.208589	533.124	NaN	0.000000	0.001576	0.001771	28.1304	109.144	0.001606	67978.5	6.768019	167.862	538.638	1.185904	0.108110	0.107721	533.124	67978.5	0.102228	0.319390	1669.19	109896