Folder: unikorn_login/remote_trans/data/nanoindenter/0828-1/data/Data_2025-08-06,11h17m57s (part 92)

File: 2025-07-22_16-23-58_1_201.txt
2025-07-22, 16:23:58, 1
Index	Phase	Displacement	Time	Pos X	Pos Y	Pos Z	Rot A	Rot B	Piezo Z	Force A	Force B	Gripper	Voltage A	Voltage B	Temperature	Amplitude force	Amplitude pos	Stiffness	Phase shift	Phase excitation	Force A raw	Displacement raw	HMax	HMax raw	Real Force	Real Stiffness	Contact Depth	Area	Hardness	Reduced Mod.
[#]	[#]	[um]	[s]	[um]	[um]	[um]	[m°]	[m°]	[um]	[uN]	[uN]	[V]	[V]	[V]	[°C]	[uN]	[um]	[N/m]	[°]	[°]	[uN]	[um]	[um]	[um]	[uN]	[N/m]	[um]	[um^2]	[MPa]	[MPa]
201	1.000000	0.002682	7.36701e+06	-48689.1	955.819	-29761.7	0.000000	0.000000	6.002797	0.029718	NaN	0.000000	0.001592	0.001682	28.0801	0.067418	0.000855	78.8482	-36.5605	-167.093	0.020117	0.001445	-1.203190	-1.204427	0.029718	78.8482	-1.203473	-1.222513E+16	-2.430904E-18	NaN
201	1.000000	0.046632	7.36701e+06	-48689.1	955.819	-29761.7	0.000000	0.000000	6.046744	-0.032624	NaN	0.000000	0.001575	0.001698	28.0801	0.009540	0.002026	4.709140	-35.4831	-166.832	-0.035093	0.045318	-1.159240	-1.160554	-0.032624	4.709140	-1.154044	-2.660953E+15	1.226025E-17	NaN
201	1.000000	0.090661	7.36701e+06	-48689.1	955.819	-29761.7	0.000000	0.000000	6.090775	0.006660	NaN	0.000000	0.001583	0.001705	28.0781	0.048778	0.002053	23.7616	-78.6818	-167.587	0.089524	0.089291	-1.115211	-1.116581	0.006660	23.7616	-1.115422	-8.073121E+14	-8.249907E-18	NaN
201	1.000000	0.134676	7.36701e+06	-48689.1	955.818	-29761.7	0.000000	0.000000	6.134790	-0.001919	NaN	0.000000	0.001629	0.001681	28.0782	0.148633	0.001973	75.3514	-122.602	-167.391	-0.056006	0.133328	-1.071196	-1.072544	-0.001919	75.3514	-1.071177	-2.055909E+14	9.332852E-18	NaN
201	1.000000	0.178688	7.36701e+06	-48689.1	955.819	-29761.8	0.000000	0.000000	6.178804	0.034741	NaN	0.000000	0.001571	0.001707	28.0787	0.068385	0.002004	34.1238	-93.5353	-165.86	0.030442	0.177340	-1.027183	-1.028531	0.034741	34.1238	-1.027947	-5.393444E+13	-6.441425E-16	NaN
201	1.000000	0.222689	7.36701e+06	-48689.1	955.82	-29761.8	0.000000	0.000000	6.222806	0.052768	NaN	0.000000	0.001589	0.001653	28.0801	0.086422	0.002006	43.0767	163.215	-166.763	0.035864	0.221411	-0.983182	-0.984461	0.052768	43.0767	-0.984101	-1.385669E+13	-3.808158E-15	NaN
201	1.000000	0.266706	7.36701e+06	-48689.1	955.818	-29761.8	0.000000	0.000000	6.266823	0.059512	NaN	0.000000	0.001640	0.001694	28.0798	0.052061	0.001984	26.2399	170.921	-167.273	0.025394	0.265408	-0.939166	-0.940464	0.059512	26.2399	-0.940867	-3.621008E+12	-1.643531E-14	NaN
201	1.000000	0.310743	7.36701e+06	-48689.1	955.818	-29761.8	0.000000	0.000000	6.310857	0.011694	NaN	0.000000	0.001570	0.001684	28.0799	0.055651	0.001967	28.2875	132.716	-167.037	0.057809	0.309450	-0.895129	-0.896422	0.011694	28.2875	-0.895439	-8.819337E+11	-1.326003E-14	NaN
201	1.000000	0.354771	7.36701e+06	-48689.1	955.82	-29761.8	0.000000	0.000000	6.354886	0.025199	NaN	0.000000	0.001599	0.001691	28.0786	0.090842	0.001945	46.7152	137.374	-167.737	-0.024965	0.353463	-0.851101	-0.852409	0.025199	46.7152	-0.851506	-2.244545E+11	-1.122678E-13	NaN
201	1.000000	0.398763	7.36701e+06	-48689.1	955.817	-29761.8	0.000000	0.000000	6.398875	-0.061175	NaN	0.000000	0.001607	0.001689	28.0788	0.049670	0.001943	25.563	79.279	-170.866	-0.055090	0.397477	-0.807109	-0.808395	-0.061175	25.563	-0.805314	-5.308648E+10	1.152374E-12	NaN
201	1.000000	0.442787	7.36701e+06	-48689.1	955.818	-29761.8	0.000000	0.000000	6.442898	-0.075929	NaN	0.000000	0.001615	0.001663	28.0783	0.113774	0.001949	58.3809	90.8326	-166.451	-0.037113	0.441500	-0.763085	-0.764372	-0.075929	58.3809	-0.762109	-1.374036E+10	5.525973E-12	NaN
201	1.000000	0.486823	7.36701e+06	-48689.1	955.819	-29761.8	0.000000	0.000000	6.486938	0.029800	NaN	0.000000	0.001601	0.001702	28.0783	0.033653	0.002009	16.7493	6.544833	-168.006	-0.008927	0.485548	-0.719049	-0.720324	0.029800	16.7493	-0.720384	-3.712843E+9	-8.026242E-12	NaN
201	1.000000	0.530850	7.36701e+06	-48689.1	955.818	-29761.8	0.000000	0.000000	6.530963	-0.019753	NaN	0.000000	0.001630	0.001652	28.0795	0.053283	0.002039	26.1294	53.7059	-167.281	0.073303	0.529527	-0.675022	-0.676345	-0.019753	26.1294	-0.674455	-8.757068E+8	2.255720E-11	NaN
201	1.000000	0.574874	7.36701e+06	-48689.1	955.818	-29761.8	0.000000	0.000000	6.574989	0.009151	NaN	0.000000	0.001598	0.001716	28.0793	0.075493	0.001943	38.8592	-28.7296	-163.419	-0.041138	0.573516	-0.630998	-0.632356	0.009151	38.8592	-0.631174	-2.234328E+8	-4.095832E-11	NaN
201	1.000000	0.618865	7.36701e+06	-48689.1	955.818	-29761.8	0.000000	0.000000	6.618978	-0.022249	NaN	0.000000	0.001577	0.001716	28.0802	0.131933	0.002120	62.2235	129.302	-167.027	0.106574	0.617578	-0.587007	-0.588294	-0.022249	62.2235	-0.586739	-5.466358E+7	4.070120E-10	NaN
201	1.000000	0.662873	7.36701e+06	-48689.1	955.818	-29761.8	0.000000	0.000000	6.662983	-0.115626	NaN	0.000000	0.001658	0.001668	28.0784	0.100606	0.001939	51.8966	67.689	-166.841	-0.103333	0.661602	-0.542998	-0.544270	-0.115626	51.8966	-0.541327	-1.287558E+7	8.980234E-9	NaN
201	1.000000	0.706908	7.36701e+06	-48689.1	955.819	-29761.8	0.000000	0.000000	6.707022	-0.014315	NaN	0.000000	0.001657	0.001671	28.0783	0.049022	0.001912	25.6372	-176.529	-165.732	-0.028523	0.705605	-0.498963	-0.500267	-0.014315	25.6372	-0.498545	-3.27124e+06	4.376062E-9	NaN
201	1.000000	0.750902	7.36701e+06	-48689.1	955.818	-29761.8	0.000000	0.000000	6.751015	-0.011856	NaN	0.000000	0.001662	0.001686	28.0785	0.038895	0.001804	21.5555	6.989180	-165.211	0.021364	0.749664	-0.454970	-0.456208	-0.011856	21.5555	-0.454557	-791575	1.497800E-8	NaN
201	1.000000	0.794943	7.36701e+06	-48689.1	955.818	-29761.8	0.000000	0.000000	6.795057	0.004550	NaN	0.000000	0.001678	0.001680	28.0803	0.066390	0.001994	33.2938	-147.749	-166.271	-0.015799	0.793625	-0.410929	-0.412247	0.004550	33.2938	-0.411031	-191894	-2.371328E-8	NaN
201	1.000000	0.838979	7.36701e+06	-48689.1	955.819	-29761.8	0.000000	0.000000	6.839092	-0.011912	NaN	0.000000	0.001698	0.001644	28.0797	0.071959	0.002019	35.6411	-105.276	-163.876	0.052412	0.837623	-0.366893	-0.368249	-0.011912	35.6411	-0.366642	-44436.7	2.680701E-7	NaN
201	1.000000	0.883015	7.36701e+06	-48689.1	955.819	-29761.8	0.000000	0.000000	6.883128	-0.021929	NaN	0.000000	0.001670	0.001671	28.0796	0.079604	0.001863	42.7393	133.962	-164.206	-0.005464	0.881649	-0.322857	-0.324223	-0.021929	42.7393	-0.322473	-10116	2.167750E-6	NaN
201	1.000000	0.927042	7.36701e+06	-48689.1	955.819	-29761.8	0.000000	0.000000	6.927158	0.038001	NaN	0.000000	0.001695	0.001645	28.0784	0.080783	0.001984	40.7126	102.469	-165.822	-0.036807	0.925686	-0.278829	-0.280186	0.038001	40.7126	-0.279530	-2322.05	-1.636551E-5	NaN
201	1.000000	0.970984	7.36701e+06	-48689.1	955.819	-29761.8	0.000000	0.000000	6.971101	0.065416	NaN	0.000000	0.001652	0.001689	28.0784	0.073238	0.001948	37.6007	27.9596	-169.006	0.004120	0.969707	-0.234887	-0.236164	0.065416	37.6007	-0.236192	-501.14	-0.000131	NaN
201	1.000000	1.015038	7.36701e+06	-48689.1	955.819	-29761.8	0.000000	0.000000	7.015152	0.006494	NaN	0.000000	0.001605	0.001704	28.0782	0.063289	0.001951	32.437	-60.3543	-166.661	-0.032175	1.013720	-0.190834	-0.192152	0.006494	32.437	-0.190984	-93.4235	-6.951108E-5	NaN
201	1.000000	1.059047	7.36701e+06	-48689.1	955.82	-29761.8	0.000000	0.000000	7.059160	-0.003777	NaN	0.000000	0.001635	0.001698	28.0794	0.003695	0.001925	1.919357	59.2366	-165.12	-0.069733	1.057708	-0.146825	-0.148164	-0.003777	1.919357	-0.145349	-14.8807	0.000254	NaN
201	1.000000	1.103079	7.36701e+06	-48689.1	955.82	-29761.8	0.000000	0.000000	7.103192	-0.032693	NaN	0.000000	0.001621	0.001703	28.0796	0.057969	0.001968	29.4528	68.9623	-165.999	0.088952	1.101728	-0.102793	-0.104144	-0.032693	29.4528	-0.101960	-2.018382	0.016197	NaN
201	1.000000	1.147083	7.36701e+06	-48689.1	955.82	-29761.8	0.000000	0.000000	7.147195	-0.026532	NaN	0.000000	0.001602	0.001740	28.0795	0.058137	0.001983	29.323	-35.575	-164.726	-0.102285	1.145726	-0.058789	-0.060146	-0.026532	29.323	-0.058111	-0.158846	0.167030	NaN
201	1.000000	1.191119	7.36701e+06	-48689.1	955.82	-29761.8	0.000000	0.000000	7.191233	0.009003	NaN	0.000000	0.001581	0.001734	28.0785	0.018239	0.001932	9.438953	-103.209	-166.35	-0.065186	1.189805	-0.014753	-0.016067	0.009003	9.438953	-0.015468	-0.009558	-0.942005	NaN
201	2.000000	1.220697	7.36701e+06	-48689.1	955.819	-29761.8	0.000000	0.000000	7.221449	15.5269	NaN	0.000000	0.001578	0.001707	28.0785	13.9974	0.001589	8808.73	7.875497	-178.175	15.7068	1.220329	0.014825	0.014457	15.5269	8808.73	0.013503	0.013341	1163.88	69678.6
201	2.000000	1.231590	7.36701e+06	-48689.1	955.82	-29761.8	0.000000	0.000000	7.233270	38.093	NaN	0.000000	0.001614	0.001708	28.0785	25.1924	0.001790	14071.5	2.145029	-175.733	37.2999	1.231245	0.025718	0.025373	38.093	14071.5	0.023688	0.028671	1328.61	75925.9
201	2.000000	1.242587	7.36701e+06	-48689.1	955.819	-29761.8	0.000000	0.000000	7.245589	70.2552	NaN	0.000000	0.001561	0.001745	28.0801	37.286	0.001719	21685.7	1.916832	179.869	67.7125	1.242289	0.036715	0.036417	70.2552	21685.7	0.034285	0.050095	1402.45	88522.2
201	2.000000	1.253534	7.36701e+06	-48689.1	955.82	-29761.8	0.000000	0.000000	7.258364	114.694	NaN	0.000000	0.001601	0.001704	28.0795	47.9954	0.001742	27554.4	2.913913	177.035	112.242	1.253255	0.047662	0.047383	114.694	27554.4	0.044540	0.076288	1503.44	91145.9
201	2.000000	1.264568	7.36701e+06	-48689.1	955.819	-29761.8	0.000000	0.000000	7.271315	161.33	NaN	0.000000	0.001593	0.001684	28.08	58.4451	0.001779	32853.9	3.412383	175.34	159.755	1.264216	0.058696	0.058345	161.33	32853.9	0.055013	0.108535	1486.43	91112.2
201	2.000000	1.275622	7.36702e+06	-48689.1	955.821	-29761.8	0.000000	0.000000	7.284773	219.783	NaN	0.000000	0.001553	0.001720	28.0782	71.0474	0.001718	41342.8	6.320941	170.94	224.859	1.275273	0.069750	0.069402	219.783	41342.8	0.065763	0.147281	1492.27	98423.8
201	2.000000	1.286542	7.36702e+06	-48689.1	955.82	-29761.8	0.000000	0.000000	7.298684	292.541	NaN	0.000000	0.001614	0.001732	28.0783	81.3702	0.001814	44852.2	5.446770	170.993	293.507	1.286205	0.080670	0.080333	292.541	44852.2	0.075779	0.188386	1552.88	94413.2
201	2.000000	1.297576	7.36702e+06	-48689.1	955.82	-29761.8	0.000000	0.000000	7.312835	368.34	NaN	0.000000	0.001602	0.001678	28.0782	90.9872	0.001780	51111	7.475438	168.406	369.991	1.297186	0.091704	0.091314	368.34	51111	0.086299	0.236639	1556.55	95994.2
201	2.000000	1.308510	7.36702e+06	-48689.1	955.82	-29761.8	0.000000	0.000000	7.327523	459.633	NaN	0.000000	0.001547	0.001669	28.0793	99.1676	0.001715	57819.7	4.070911	171.115	457.921	1.308131	0.102638	0.102259	459.633	57819.7	0.096676	0.289234	1589.14	98225.5
201	2.000000	1.314469	7.36702e+06	-48689.1	955.82	-29761.8	0.000000	0.000000	7.335792	515.854	NaN	0.000000	0.001599	0.001701	28.0794	104.218	0.001748	59621.6	3.204243	171.757	512.257	1.314175	0.108597	0.108303	515.854	59621.6	0.102108	0.318720	1618.52	96487.7

File: 2025-07-22_16-23-58_1_202.txt
2025-07-22, 16:23:58, 1
Index	Phase	Displacement	Time	Pos X	Pos Y	Pos Z	Rot A	Rot B	Piezo Z	Force A	Force B	Gripper	Voltage A	Voltage B	Temperature	Amplitude force	Amplitude pos	Stiffness	Phase shift	Phase excitation	Force A raw	Displacement raw	HMax	HMax raw	Real Force	Real Stiffness	Contact Depth	Area	Hardness	Reduced Mod.
[#]	[#]	[um]	[s]	[um]	[um]	[um]	[m°]	[m°]	[um]	[uN]	[uN]	[V]	[V]	[V]	[°C]	[uN]	[um]	[N/m]	[°]	[°]	[uN]	[um]	[um]	[um]	[uN]	[N/m]	[um]	[um^2]	[MPa]	[MPa]
202	1.000000	0.003083	7.36702e+06	-48739.1	955.819	-29761.7	0.000000	0.000000	6.002798	0.050755	NaN	0.000000	0.001625	0.001677	28.0781	0.037640	0.001005	37.4458	-30.8607	-166.522	-0.024759	0.001825	-1.068552	-1.069810	0.050755	37.4458	-1.069569	-1.956114E+14	-2.594679E-16	NaN
202	1.000000	0.043035	7.36702e+06	-48739.1	955.819	-29761.7	0.000000	0.000000	6.042743	-0.098656	NaN	0.000000	0.001638	0.001691	28.0783	0.080300	0.001959	40.9934	62.4506	-166.332	-0.056063	0.041692	-1.028601	-1.029943	-0.098656	40.9934	-1.026796	-5.204491E+13	1.895592E-15	NaN
202	1.000000	0.083054	7.36702e+06	-48739.1	955.819	-29761.7	0.000000	0.000000	6.082765	-0.035408	NaN	0.000000	0.001573	0.001715	28.0798	0.088002	0.001982	44.3984	-98.6042	-167.686	-0.096246	0.081718	-0.988582	-0.989917	-0.035408	44.3984	-0.987983	-1.562973E+13	2.265436E-15	NaN
202	1.000000	0.123060	7.36702e+06	-48739.1	955.819	-29761.7	0.000000	0.000000	6.122771	-0.024609	NaN	0.000000	0.001585	0.001698	28.0799	0.041734	0.002084	20.0295	64.8214	-166.837	0.020561	0.121807	-0.948575	-0.949828	-0.024609	20.0295	-0.947654	-4.470796E+12	5.504351E-15	NaN
202	1.000000	0.163081	7.36702e+06	-48739.1	955.819	-29761.7	0.000000	0.000000	6.162793	-0.012861	NaN	0.000000	0.001616	0.001725	28.0796	0.070821	0.001943	36.4583	-83.0392	-166.785	0.036426	0.161785	-0.908554	-0.909850	-0.012861	36.4583	-0.908289	-1.315392E+12	9.777561E-15	NaN
202	1.000000	0.203108	7.36702e+06	-48739.1	955.817	-29761.7	0.000000	0.000000	6.202818	-0.053287	NaN	0.000000	0.001595	0.001716	28.0796	0.082532	0.001974	41.8012	109.774	-165.308	0.014968	0.201816	-0.868527	-0.869820	-0.053287	41.8012	-0.867571	-3.703232E+11	1.438923E-13	NaN
202	1.000000	0.243125	7.36702e+06	-48739.1	955.818	-29761.7	0.000000	0.000000	6.242840	0.064914	NaN	0.000000	0.001630	0.001698	28.078	0.065084	0.001970	33.0392	-1.613197	-167.905	0.023418	0.241791	-0.828510	-0.829844	0.064914	33.0392	-0.829984	-1.147002E+11	-5.659428E-13	NaN
202	1.000000	0.283121	7.36702e+06	-48739.1	955.819	-29761.7	0.000000	0.000000	6.282833	-0.020849	NaN	0.000000	0.001647	0.001701	28.0784	0.081544	0.002000	40.7651	-18.6742	-165.277	-0.023218	0.281842	-0.788514	-0.789793	-0.020849	40.7651	-0.788130	-3.102349E+10	6.720364E-13	NaN
202	1.000000	0.323162	7.36702e+06	-48739.1	955.819	-29761.7	0.000000	0.000000	6.322873	-0.029210	NaN	0.000000	0.001652	0.001669	28.0779	0.093645	0.001940	48.2632	68.4795	-168.419	0.038215	0.321863	-0.748474	-0.749772	-0.029210	48.2632	-0.748020	-8.836165E+9	3.305719E-12	NaN
202	1.000000	0.363160	7.36702e+06	-48739.1	955.819	-29761.7	0.000000	0.000000	6.362873	-0.007080	NaN	0.000000	0.001657	0.001712	28.0792	0.078896	0.002011	39.2399	-149.827	-165.955	0.031638	0.361834	-0.708475	-0.709801	-0.007080	39.2399	-0.708340	-2.543238E+9	2.783983E-12	NaN
202	1.000000	0.403167	7.36702e+06	-48739.1	955.819	-29761.7	0.000000	0.000000	6.402879	-0.014315	NaN	0.000000	0.001562	0.001714	28.0791	0.115120	0.001879	61.2658	175.008	-164.831	-0.041529	0.401874	-0.668468	-0.669761	-0.014315	61.2658	-0.668293	-7.211501E+8	1.984956E-11	NaN
202	1.000000	0.443208	7.36702e+06	-48739.1	955.818	-29761.7	0.000000	0.000000	6.442922	0.047910	NaN	0.000000	0.001616	0.001674	28.0791	0.041537	0.002057	20.1924	-88.5307	-169.589	0.080677	0.441912	-0.628428	-0.629723	0.047910	20.1924	-0.630207	-2.167051E+8	-2.210817E-10	NaN
202	1.000000	0.483238	7.36702e+06	-48739.1	955.819	-29761.7	0.000000	0.000000	6.482950	-0.012358	NaN	0.000000	0.001606	0.001686	28.0795	0.047946	0.002027	23.6547	97.2651	-168.424	0.012321	0.481909	-0.588397	-0.589727	-0.012358	23.6547	-0.588005	-5.690680E+7	2.171663E-10	NaN
202	1.000000	0.523236	7.36702e+06	-48739.1	955.819	-29761.7	0.000000	0.000000	6.522947	-0.032127	NaN	0.000000	0.001607	0.001723	28.0784	0.077400	0.002061	37.5544	47.4916	-165.217	0.008535	0.521948	-0.548399	-0.549687	-0.032127	37.5544	-0.547758	-1.580852E+7	2.032238E-9	NaN
202	1.000000	0.563281	7.36702e+06	-48739.1	955.819	-29761.7	0.000000	0.000000	6.562994	0.016316	NaN	0.000000	0.001599	0.001693	28.0786	0.091758	0.001983	46.2838	-96.9487	-166.386	0.052457	0.561988	-0.508354	-0.509648	0.016316	46.2838	-0.508618	-4.52032e+06	-3.609423E-9	NaN
202	1.000000	0.603279	7.36702e+06	-48739.1	955.818	-29761.7	0.000000	0.000000	6.602991	-0.006596	NaN	0.000000	0.001645	0.001737	28.0786	0.070951	0.001823	38.9237	119.249	-162.757	-0.060197	0.601967	-0.468356	-0.469669	-0.006596	38.9237	-0.468229	-1.23187e+06	5.354189E-9	NaN
202	1.000000	0.643259	7.36702e+06	-48739.1	955.818	-29761.7	0.000000	0.000000	6.642970	-0.041117	NaN	0.000000	0.001578	0.001672	28.0797	0.081140	0.001987	40.8433	40.5192	-169.224	-0.056662	0.641975	-0.428376	-0.429660	-0.041117	40.8433	-0.427621	-329909	1.246326E-7	NaN
202	1.000000	0.683291	7.36702e+06	-48739.1	955.819	-29761.7	0.000000	0.000000	6.683005	0.015354	NaN	0.000000	0.001591	0.001701	28.0798	0.098230	0.001964	50.0056	54.1921	-164.282	0.047834	0.681984	-0.388344	-0.389651	0.015354	50.0056	-0.388574	-91783.7	-1.672828E-7	NaN
202	1.000000	0.723322	7.36702e+06	-48739.1	955.819	-29761.7	0.000000	0.000000	6.723036	0.030741	NaN	0.000000	0.001584	0.001685	28.0796	0.041424	0.002076	19.9554	48.9453	-169.521	-0.020004	0.722058	-0.348313	-0.349577	0.030741	19.9554	-0.349468	-25077.5	-1.225843E-6	NaN
202	1.000000	0.763345	7.36702e+06	-48739.1	955.817	-29761.7	0.000000	0.000000	6.763059	0.046494	NaN	0.000000	0.001591	0.001681	28.0783	0.098886	0.001989	49.7194	-139.599	-167.187	0.057241	0.761973	-0.308290	-0.309662	0.046494	49.7194	-0.308992	-6399.26	-7.265485E-6	NaN
202	1.000000	0.803349	7.36702e+06	-48739.1	955.818	-29761.7	0.000000	0.000000	6.803061	0.004301	NaN	0.000000	0.001671	0.001697	28.0784	0.007189	0.001950	3.686353	86.1012	-167.405	0.041769	0.801986	-0.268287	-0.269649	0.004301	3.686353	-0.269162	-1617.32	-2.659098E-6	NaN
202	1.000000	0.843371	7.36702e+06	-48739.1	955.818	-29761.7	0.000000	0.000000	6.843082	-0.037499	NaN	0.000000	0.001619	0.001697	28.0793	0.121890	0.002033	59.968	-11.118	-167.915	-0.010050	0.842057	-0.228264	-0.229579	-0.037499	59.968	-0.227795	-369.54	0.000101	NaN
202	1.000000	0.883378	7.36702e+06	-48739.1	955.818	-29761.7	0.000000	0.000000	6.883090	-0.011741	NaN	0.000000	0.001578	0.001706	28.0784	0.054895	0.002050	26.7758	-6.241269	-166.439	-0.047392	0.882067	-0.188257	-0.189568	-0.011741	26.7758	-0.187928	-83.0522	0.000141	NaN
202	1.000000	0.923404	7.36702e+06	-48739.1	955.818	-29761.7	0.000000	0.000000	6.923115	-0.052465	NaN	0.000000	0.001625	0.001688	28.0796	0.063399	0.001885	33.6351	148.518	-164.623	0.067400	0.922050	-0.148231	-0.149585	-0.052465	33.6351	-0.147061	-16.0024	0.003279	NaN
202	1.000000	0.963420	7.36702e+06	-48739.1	955.818	-29761.7	0.000000	0.000000	6.963130	-0.049997	NaN	0.000000	0.001584	0.001665	28.0797	0.071421	0.001964	36.3621	-144.039	-166.092	-0.076584	0.962165	-0.108216	-0.109470	-0.049997	36.3621	-0.107184	-2.618829	0.019091	NaN
202	1.000000	1.003448	7.36702e+06	-48739.1	955.818	-29761.7	0.000000	0.000000	7.003161	0.000223	NaN	0.000000	0.001530	0.001663	28.08	0.036277	0.001933	18.7703	169.91	-166.033	-0.043785	1.002113	-0.068187	-0.069522	0.000223	18.7703	-0.068196	-0.304971	-0.000731	NaN
202	1.000000	1.043441	7.36702e+06	-48739.1	955.819	-29761.7	0.000000	0.000000	7.043152	-0.041498	NaN	0.000000	0.001568	0.001738	28.0783	0.092063	0.001995	46.1485	-63.6205	-170.971	0.025615	1.042198	-0.028194	-0.029437	-0.041498	46.1485	-0.027519	-0.019677	2.108906	NaN
202	2.000000	1.082880	7.36702e+06	-48739.1	955.818	-29761.7	0.000000	0.000000	7.082977	9.345610	NaN	0.000000	0.001570	0.001702	28.0782	8.921302	0.001595	5594.65	8.983820	-173.051	8.766530	1.082035	0.011245	0.010400	9.345610	5594.65	0.009992	0.009173	1018.85	53370.1
202	2.000000	1.092931	7.36702e+06	-48739.1	955.819	-29761.7	0.000000	0.000000	7.093843	29.1633	NaN	0.000000	0.001587	0.001671	28.0781	21.0756	0.001785	11804.2	7.932267	179.656	28.4193	1.092654	0.021296	0.021019	29.1633	11804.2	0.019443	0.021675	1345.49	73253.7
202	2.000000	1.102925	7.36702e+06	-48739.1	955.819	-29761.7	0.000000	0.000000	7.104948	56.2086	NaN	0.000000	0.001627	0.001700	28.0779	32.3907	0.001866	17360.1	7.880741	176.272	56.3722	1.102668	0.031290	0.031033	56.2086	17360.1	0.028861	0.038417	1463.13	80921.9
202	2.000000	1.112890	7.36702e+06	-48739.1	955.818	-29761.7	0.000000	0.000000	7.116100	85.0523	NaN	0.000000	0.001578	0.001634	28.0793	40.3734	0.001786	22609.7	4.647955	177.46	83.7206	1.112638	0.041255	0.041003	85.0523	22609.7	0.038434	0.060044	1416.51	84301.5
202	2.000000	1.122869	7.36702e+06	-48739.1	955.819	-29761.7	0.000000	0.000000	7.127872	128.663	NaN	0.000000	0.001620	0.001661	28.0794	51.5016	0.001817	28340.5	3.505440	175.895	126.655	1.122579	0.051234	0.050943	128.663	28340.5	0.047829	0.085820	1499.22	88386.4
202	2.000000	1.132916	7.36702e+06	-48739.1	955.819	-29761.7	0.000000	0.000000	7.139732	172.769	NaN	0.000000	0.001599	0.001661	28.0794	61.677	0.001829	33716	3.670789	174.909	176.034	1.132705	0.061280	0.061070	172.769	33716	0.057437	0.116780	1479.44	90141.7
202	2.000000	1.142840	7.36702e+06	-48739.1	955.818	-29761.7	0.000000	0.000000	7.152270	236.361	NaN	0.000000	0.001619	0.001692	28.0781	71.5688	0.001824	39247.2	3.225968	174.225	235.316	1.142592	0.071204	0.070957	236.361	39247.2	0.066688	0.150875	1566.6	92315.2
202	2.000000	1.152756	7.36702e+06	-48739.1	955.818	-29761.7	0.000000	0.000000	7.165102	307.263	NaN	0.000000	0.001565	0.001638	28.078	81.3292	0.001883	43194.3	2.873875	173.71	300.716	1.152440	0.081121	0.080805	307.263	43194.3	0.075785	0.188416	1630.77	90916.3
202	2.000000	1.162919	7.36703e+06	-48739.1	955.818	-29761.7	0.000000	0.000000	7.177640	365.036	NaN	0.000000	0.001579	0.001639	28.078	90.3523	0.001840	49115.4	4.046896	171.266	368.593	1.162778	0.091284	0.091142	365.036	49115.4	0.085710	0.233798	1561.33	92804.9
202	2.000000	1.172860	7.36703e+06	-48739.1	955.818	-29761.7	0.000000	0.000000	7.191480	459.848	NaN	0.000000	0.001574	0.001645	28.079	100.698	0.001932	52133	6.412385	168.777	463.39	1.172541	0.101225	0.100906	459.848	52133	0.094610	0.278366	1651.96	90277.1
202	2.000000	1.181236	7.36703e+06	-48739.1	955.819	-29761.7	0.000000	0.000000	7.203110	538.987	NaN	0.000000	0.001568	0.001694	28.0791	106.211	0.001740	61042.3	5.748251	-11.5618	530.734	1.180819	0.109601	0.109184	538.987	61042.3	0.102978	0.323573	1665.74	98043.3