Folder: unikorn_login/remote_trans/data/nanoindenter/0828-1/data/Data_2025-08-06,11h17m57s (part 60)

File: 2025-07-22_16-23-58_1_137.txt
2025-07-22, 16:23:58, 1
Index	Phase	Displacement	Time	Pos X	Pos Y	Pos Z	Rot A	Rot B	Piezo Z	Force A	Force B	Gripper	Voltage A	Voltage B	Temperature	Amplitude force	Amplitude pos	Stiffness	Phase shift	Phase excitation	Force A raw	Displacement raw	HMax	HMax raw	Real Force	Real Stiffness	Contact Depth	Area	Hardness	Reduced Mod.
[#]	[#]	[um]	[s]	[um]	[um]	[um]	[m°]	[m°]	[um]	[uN]	[uN]	[V]	[V]	[V]	[°C]	[uN]	[um]	[N/m]	[°]	[°]	[uN]	[um]	[um]	[um]	[uN]	[N/m]	[um]	[um^2]	[MPa]	[MPa]
137	1.000000	0.002469	7.36638e+06	-45489.1	955.818	-29772.8	0.000000	0.000000	6.002792	-0.050085	NaN	0.000000	0.001652	0.001676	28.0841	0.084033	0.001016	82.7005	-65.2704	-162.866	-0.030547	0.001276	-1.078708	-1.079900	-0.050085	82.7005	-1.078254	-2.558953E+14	1.957250E-16	NaN
137	1.000000	0.042446	7.36638e+06	-45489.1	955.819	-29772.8	0.000000	0.000000	6.042768	-0.096188	NaN	0.000000	0.001648	0.001692	28.0826	0.043788	0.002064	21.2153	96.1441	-167.124	-0.039633	0.041125	-1.038731	-1.040051	-0.096188	21.2153	-1.035330	-6.779071E+13	1.418896E-15	NaN
137	1.000000	0.082419	7.36638e+06	-45489.1	955.818	-29772.8	0.000000	0.000000	6.082743	-0.039835	NaN	0.000000	0.001669	0.001691	28.0833	0.079322	0.001922	41.2647	-103.984	-165.998	0.021774	0.081126	-0.998758	-1.000050	-0.039835	41.2647	-0.998034	-2.134482E+13	1.866242E-15	NaN
137	1.000000	0.122443	7.36638e+06	-45489.1	955.818	-29772.8	0.000000	0.000000	6.122768	-0.024591	NaN	0.000000	0.001647	0.001712	28.0824	0.053239	0.001996	26.6748	-64.4776	-166.965	-0.028690	0.121116	-0.958733	-0.960061	-0.024591	26.6748	-0.958042	-6.172653E+12	3.983873E-15	NaN
137	1.000000	0.162469	7.36638e+06	-45489.1	955.818	-29772.8	0.000000	0.000000	6.162791	-0.078807	NaN	0.000000	0.001700	0.001698	28.0832	0.048955	0.001990	24.597	139.582	-167.167	-0.077911	0.161217	-0.918708	-0.919960	-0.078807	24.597	-0.916305	-1.687765E+12	4.669301E-14	NaN
137	1.000000	0.202475	7.36638e+06	-45489.1	955.818	-29772.8	0.000000	0.000000	6.202799	-0.043475	NaN	0.000000	0.001703	0.001713	28.0852	0.052233	0.001862	28.0523	-49.9845	-165.839	-0.039788	0.201157	-0.878702	-0.880019	-0.043475	28.0523	-0.877539	-5.051630E+11	8.606055E-14	NaN
137	1.000000	0.242488	7.36638e+06	-45489.1	955.819	-29772.8	0.000000	0.000000	6.242811	-0.071040	NaN	0.000000	0.001670	0.001704	28.0824	0.026285	0.002062	12.7484	-153.726	-164.92	-0.054531	0.241213	-0.838689	-0.839963	-0.071040	12.7484	-0.834509	-1.320984E+11	5.377845E-13	NaN
137	1.000000	0.282538	7.36638e+06	-45489.1	955.819	-29772.8	0.000000	0.000000	6.282861	-0.067999	NaN	0.000000	0.001681	0.001714	28.0844	0.132530	0.002043	64.87	26.2479	-166.232	-0.021269	0.281231	-0.798638	-0.799945	-0.067999	64.87	-0.797852	-4.204421E+10	1.617321E-12	NaN
137	1.000000	0.322529	7.36638e+06	-45489.1	955.817	-29772.8	0.000000	0.000000	6.322852	-0.071100	NaN	0.000000	0.001632	0.001679	28.0816	0.027536	0.002038	13.5128	143.734	-170.653	-0.009380	0.321255	-0.758648	-0.759921	-0.071100	13.5128	-0.754701	-1.089449E+10	6.526266E-12	NaN
137	1.000000	0.362538	7.36638e+06	-45489.1	955.819	-29772.8	0.000000	0.000000	6.362860	-0.104800	NaN	0.000000	0.001663	0.001693	28.0834	0.045058	0.002004	22.4823	129.437	-167.639	-0.120562	0.361237	-0.718638	-0.719939	-0.104800	22.4823	-0.715142	-3.149261E+9	3.327774E-11	NaN
137	1.000000	0.402570	7.36638e+06	-45489.1	955.818	-29772.8	0.000000	0.000000	6.402894	-0.048710	NaN	0.000000	0.001669	0.001688	28.0828	0.161401	0.001897	85.0956	77.4495	-164.26	-0.010921	0.401243	-0.678606	-0.679933	-0.048710	85.0956	-0.678177	-9.846221E+8	4.947050E-11	NaN
137	1.000000	0.442568	7.36638e+06	-45489.1	955.819	-29772.8	0.000000	0.000000	6.442892	-0.038957	NaN	0.000000	0.001701	0.001700	28.0851	0.116701	0.002002	58.2821	-121.073	-166.184	-0.070784	0.441227	-0.638608	-0.639949	-0.038957	58.2821	-0.638107	-2.781728E+8	1.400444E-10	NaN
137	1.000000	0.482626	7.36638e+06	-45489.1	955.817	-29772.8	0.000000	0.000000	6.482949	-0.061322	NaN	0.000000	0.001746	0.001739	28.0831	0.039477	0.001928	20.472	-92.9372	-168.056	-0.084492	0.481330	-0.598551	-0.599846	-0.061322	20.472	-0.596304	-7.405443E+7	8.280669E-10	NaN
137	1.000000	0.522642	7.36638e+06	-45489.1	955.817	-29772.8	0.000000	0.000000	6.522966	-0.033832	NaN	0.000000	0.001739	0.001703	28.085	0.016817	0.002014	8.349877	-128.373	-166.673	0.056441	0.521277	-0.558535	-0.559900	-0.033832	8.349877	-0.555496	-2.023250E+7	1.672185E-9	NaN
137	1.000000	0.562672	7.36638e+06	-45489.1	955.818	-29772.8	0.000000	0.000000	6.562994	-0.108172	NaN	0.000000	0.001734	0.001711	28.0821	0.055307	0.001982	27.8979	-123.726	-166.941	-0.146900	0.561347	-0.518504	-0.519830	-0.108172	27.8979	-0.515596	-5.65367e+06	1.913298E-8	NaN
137	1.000000	0.602640	7.36638e+06	-45489.1	955.818	-29772.8	0.000000	0.000000	6.602962	-0.100509	NaN	0.000000	0.001689	0.001689	28.0826	0.072325	0.001948	37.1187	-16.6782	-165.08	-0.134716	0.601359	-0.478536	-0.479818	-0.100509	37.1187	-0.476505	-1.60911e+06	6.246242E-8	NaN
137	1.000000	0.642674	7.36638e+06	-45489.1	955.818	-29772.8	0.000000	0.000000	6.642996	-0.099196	NaN	0.000000	0.001654	0.001670	28.0825	0.062376	0.002055	30.3515	76.7263	-166.969	-0.069924	0.641304	-0.438502	-0.439872	-0.099196	30.3515	-0.436051	-434113	2.285032E-7	NaN
137	1.000000	0.682687	7.36638e+06	-45489.1	955.819	-29772.8	0.000000	0.000000	6.683010	-0.075388	NaN	0.000000	0.001661	0.001650	28.0839	0.046430	0.002019	22.999	146.843	-161.197	-0.038670	0.681356	-0.398489	-0.399821	-0.075388	22.999	-0.396031	-117316	6.426046E-7	NaN
137	1.000000	0.722704	7.36638e+06	-45489.1	955.818	-29772.8	0.000000	0.000000	6.723028	-0.036387	NaN	0.000000	0.001641	0.001706	28.0829	0.065191	0.002029	32.1325	-145.946	-165.728	-0.058523	0.721417	-0.358473	-0.359759	-0.036387	32.1325	-0.357624	-32921.2	1.105287E-6	NaN
137	1.000000	0.762735	7.36638e+06	-45489.1	955.819	-29772.8	0.000000	0.000000	6.763058	-0.084423	NaN	0.000000	0.001663	0.001639	28.0843	0.028061	0.001869	15.0131	-46.9928	-162.152	0.031075	0.761429	-0.318441	-0.319747	-0.084423	15.0131	-0.314224	-7646.92	1.104009E-5	NaN
137	1.000000	0.802759	7.36638e+06	-45489.1	955.818	-29772.8	0.000000	0.000000	6.803084	-0.032658	NaN	0.000000	0.001623	0.001671	28.082	0.027549	0.001962	14.0428	-62.2245	-170.742	-0.079595	0.801457	-0.278417	-0.279719	-0.032658	14.0428	-0.276673	-2102.41	1.553373E-5	NaN
137	1.000000	0.842775	7.36638e+06	-45489.1	955.819	-29772.8	0.000000	0.000000	6.843100	-0.026158	NaN	0.000000	0.001709	0.001637	28.0817	0.123485	0.001903	64.9036	-48.0561	-168.964	-0.036044	0.841440	-0.238401	-0.239737	-0.026158	64.9036	-0.238099	-536.825	4.872711E-5	NaN
137	1.000000	0.882776	7.36638e+06	-45489.1	955.818	-29772.8	0.000000	0.000000	6.883098	-0.103051	NaN	0.000000	0.001656	0.001648	28.0821	0.040112	0.002067	19.402	-97.6439	-162.026	-0.046444	0.881478	-0.198400	-0.199699	-0.103051	19.402	-0.194417	-106.546	0.000967	NaN
137	1.000000	0.922805	7.36638e+06	-45489.1	955.819	-29772.8	0.000000	0.000000	6.923129	-0.051456	NaN	0.000000	0.001734	0.001683	28.0828	0.042121	0.002059	20.4589	-89.1624	-166.256	-0.032701	0.921461	-0.158371	-0.159716	-0.051456	20.4589	-0.156485	-23.7273	0.002169	NaN
137	1.000000	0.962832	7.36638e+06	-45489.1	955.819	-29772.8	0.000000	0.000000	6.963154	-0.089397	NaN	0.000000	0.001672	0.001671	28.0811	0.071339	0.001960	36.4057	-139.359	-167.18	-0.054012	0.961492	-0.118345	-0.119685	-0.089397	36.4057	-0.116503	-4.101907	0.021794	NaN
137	1.000000	1.002823	7.36638e+06	-45489.1	955.818	-29772.8	0.000000	0.000000	7.003143	-0.135226	NaN	0.000000	0.001659	0.001665	28.0823	0.181112	0.002047	88.4821	159.457	-166.527	-0.071651	1.001504	-0.078353	-0.079673	-0.135226	88.4821	-0.077207	-0.526241	0.256966	NaN
137	1.000000	1.042817	7.36638e+06	-45489.1	955.818	-29772.8	0.000000	0.000000	7.043143	-0.008568	NaN	0.000000	0.001593	0.001660	28.0818	0.069617	0.002017	34.5085	71.6387	-170.694	-0.044672	1.041549	-0.038359	-0.039627	-0.008568	34.5085	-0.038173	-0.039818	0.215191	NaN
137	1.000000	1.082841	7.36638e+06	-45489.1	955.817	-29772.8	0.000000	0.000000	7.083237	1.722697	NaN	0.000000	0.001682	0.001675	28.0834	2.468731	0.001860	1327.3	2.708719	-164.164	0.764066	1.081551	0.001664	0.000375	1.722697	1327.3	0.000691	0.000523	3291.49	53007.2
137	2.000000	1.097392	7.36638e+06	-45489.1	955.818	-29772.8	0.000000	0.000000	7.098547	20.1774	NaN	0.000000	0.001700	0.001664	28.0816	17.229	0.001797	9585.68	4.521956	-176.262	19.8941	1.097122	0.016215	0.015946	20.1774	9585.68	0.014637	0.014804	1362.96	71978.9
137	2.000000	1.107346	7.36638e+06	-45489.1	955.818	-29772.8	0.000000	0.000000	7.109500	44.4922	NaN	0.000000	0.001688	0.001709	28.0818	27.5636	0.001822	15129.1	3.401473	-177.821	44.9016	1.107009	0.026169	0.025833	44.4922	15129.1	0.023964	0.029157	1525.95	80949.5
137	2.000000	1.117311	7.36638e+06	-45489.1	955.819	-29772.8	0.000000	0.000000	7.120689	74.2549	NaN	0.000000	0.001654	0.001700	28.0809	36.7585	0.001784	20610.1	-0.109336	-178.283	71.742	1.117083	0.036134	0.035907	74.2549	20610.1	0.033432	0.048159	1541.88	85805.6
137	2.000000	1.127297	7.36638e+06	-45489.1	955.819	-29772.8	0.000000	0.000000	7.132384	115.819	NaN	0.000000	0.001684	0.001722	28.0826	45.5792	0.001788	25488.7	4.187421	176.259	115.235	1.127004	0.046121	0.045827	115.819	25488.7	0.042713	0.071227	1626.05	87256.6
137	2.000000	1.137316	7.36638e+06	-45489.1	955.818	-29772.8	0.000000	0.000000	7.144207	159.696	NaN	0.000000	0.001672	0.001737	28.0819	54.7795	0.001808	30302.2	-0.184485	179.541	159.775	1.136990	0.056140	0.055814	159.696	30302.2	0.052187	0.099294	1608.32	87859.1
137	2.000000	1.147256	7.36638e+06	-45489.1	955.818	-29772.8	0.000000	0.000000	7.156421	215.019	NaN	0.000000	0.001591	0.001745	28.0824	66.1577	0.001932	34242.7	7.005233	171.313	211.353	1.146914	0.066080	0.065738	215.019	34242.7	0.061370	0.130768	1644.28	86514.9
137	2.000000	1.157211	7.36638e+06	-45489.1	955.818	-29772.8	0.000000	0.000000	7.168711	271.813	NaN	0.000000	0.001587	0.001723	28.0813	74.4469	0.001790	41590.8	5.027692	171.447	266.377	1.156939	0.076035	0.075763	271.813	41590.8	0.071133	0.168729	1610.94	92507.1
137	2.000000	1.167155	7.36638e+06	-45489.1	955.819	-29772.8	0.000000	0.000000	7.181762	347.395	NaN	0.000000	0.001588	0.001685	28.0815	84.0683	0.001794	46871.7	2.547726	173.397	341.789	1.166920	0.085979	0.085744	347.395	46871.7	0.080420	0.209040	1661.86	93663.3
137	2.000000	1.177224	7.36638e+06	-45489.1	955.819	-29772.8	0.000000	0.000000	7.194225	405.638	NaN	0.000000	0.001640	0.001689	28.0803	95.0785	0.001923	49432.4	7.157504	168.255	404.444	1.177012	0.096048	0.095836	405.638	49432.4	0.089893	0.254296	1595.14	89560.2
137	2.000000	1.187303	7.36638e+06	-45489.1	955.819	-29772.8	0.000000	0.000000	7.207546	484.524	NaN	0.000000	0.001616	0.001675	28.082	102.735	0.001777	57803.9	6.014339	168.864	489.163	1.186919	0.106127	0.105743	484.524	57803.9	0.099840	0.306247	1582.14	95432.1

File: 2025-07-22_16-23-58_1_138.txt
2025-07-22, 16:23:58, 1
Index	Phase	Displacement	Time	Pos X	Pos Y	Pos Z	Rot A	Rot B	Piezo Z	Force A	Force B	Gripper	Voltage A	Voltage B	Temperature	Amplitude force	Amplitude pos	Stiffness	Phase shift	Phase excitation	Force A raw	Displacement raw	HMax	HMax raw	Real Force	Real Stiffness	Contact Depth	Area	Hardness	Reduced Mod.
[#]	[#]	[um]	[s]	[um]	[um]	[um]	[m°]	[m°]	[um]	[uN]	[uN]	[V]	[V]	[V]	[°C]	[uN]	[um]	[N/m]	[°]	[°]	[uN]	[um]	[um]	[um]	[uN]	[N/m]	[um]	[um^2]	[MPa]	[MPa]
138	1.000000	0.002557	7.36639e+06	-45539.1	955.818	-29772.6	0.000000	0.000000	6.002738	-0.001594	NaN	0.000000	0.001638	0.001683	28.0885	0.072776	0.001044	69.7327	-99.7516	171.548	0.020494	0.001283	-1.049128	-1.050403	-0.001594	69.7327	-1.049111	-1.038627E+14	1.535079E-17	NaN
138	1.000000	0.042491	7.36639e+06	-45539.1	955.818	-29772.6	0.000000	0.000000	6.042674	0.069510	NaN	0.000000	0.001671	0.001679	28.0847	0.024033	0.002111	11.3845	145.759	175.54	0.050488	0.041167	-1.009195	-1.010518	0.069510	11.3845	-1.013774	-3.476734E+13	-1.999276E-15	NaN
138	1.000000	0.082507	7.36639e+06	-45539.1	955.818	-29772.6	0.000000	0.000000	6.082687	-0.032265	NaN	0.000000	0.001684	0.001676	28.0861	0.136938	0.002113	64.814	-2.181964	177.936	0.051606	0.081188	-0.969178	-0.970497	-0.032265	64.814	-0.968805	-8.620946E+12	3.742615E-15	NaN
138	1.000000	0.122543	7.36639e+06	-45539.1	955.818	-29772.6	0.000000	0.000000	6.122721	-0.065698	NaN	0.000000	0.001711	0.001683	28.0844	0.097276	0.002019	48.1714	142.689	172.119	0.019701	0.121243	-0.929143	-0.930442	-0.065698	48.1714	-0.928120	-2.436794E+12	2.696081E-14	NaN
138	1.000000	0.162534	7.36639e+06	-45539.1	955.817	-29772.6	0.000000	0.000000	6.162713	-0.031505	NaN	0.000000	0.001724	0.001659	28.0863	0.031822	0.002009	15.8415	-35.6544	173.62	-0.090485	0.161231	-0.889151	-0.890454	-0.031505	15.8415	-0.887660	-6.922777E+11	4.550968E-14	NaN
138	1.000000	0.202566	7.36639e+06	-45539.1	955.818	-29772.6	0.000000	0.000000	6.202746	-0.029265	NaN	0.000000	0.001686	0.001615	28.0861	0.060167	0.001953	30.8057	121.703	174.548	-0.065317	0.201288	-0.849119	-0.850397	-0.029265	30.8057	-0.848406	-2.037774E+11	1.436141E-13	NaN
138	1.000000	0.242592	7.36639e+06	-45539.1	955.818	-29772.6	0.000000	0.000000	6.242774	0.016624	NaN	0.000000	0.001662	0.001719	28.0874	0.108339	0.002044	52.9937	60.7697	178.536	0.004313	0.241276	-0.809093	-0.810409	0.016624	52.9937	-0.809328	-6.018044E+10	-2.762313E-13	NaN
138	1.000000	0.282592	7.36639e+06	-45539.1	955.818	-29772.6	0.000000	0.000000	6.282775	0.044889	NaN	0.000000	0.001694	0.001625	28.0863	0.134578	0.002037	66.0713	-111.094	176.125	0.016326	0.281288	-0.769093	-0.770397	0.044889	66.0713	-0.769602	-1.737387E+10	-2.583708E-12	NaN
138	1.000000	0.322628	7.36639e+06	-45539.1	955.818	-29772.6	0.000000	0.000000	6.322809	-0.007191	NaN	0.000000	0.001721	0.001666	28.087	0.080818	0.001951	41.4169	145.245	176.251	-0.021669	0.321281	-0.729057	-0.730404	-0.007191	41.4169	-0.728927	-4.854861E+9	1.481157E-12	NaN
138	1.000000	0.362669	7.36639e+06	-45539.1	955.818	-29772.6	0.000000	0.000000	6.362851	0.014396	NaN	0.000000	0.001737	0.001669	28.0862	0.010518	0.001959	5.368047	-52.1271	175.647	0.039531	0.361327	-0.689016	-0.690358	0.014396	5.368047	-0.691027	-1.475557E+9	-9.756196E-12	NaN
138	1.000000	0.402670	7.36639e+06	-45539.1	955.818	-29772.6	0.000000	0.000000	6.402853	0.047838	NaN	0.000000	0.001730	0.001653	28.087	0.230463	0.001985	116.096	-30.8875	175.969	0.006548	0.401345	-0.649015	-0.650340	0.047838	116.096	-0.649324	-3.964356E+8	-1.206698E-10	NaN
138	1.000000	0.442632	7.36639e+06	-45539.1	955.818	-29772.6	0.000000	0.000000	6.442814	0.019909	NaN	0.000000	0.001663	0.001653	28.0868	0.084692	0.002173	38.9798	144.945	176.71	-0.052453	0.441392	-0.609053	-0.610293	0.019909	38.9798	-0.609436	-1.122927E+8	-1.772956E-10	NaN
138	1.000000	0.482701	7.36639e+06	-45539.1	955.818	-29772.6	0.000000	0.000000	6.482882	-0.005845	NaN	0.000000	0.001605	0.001605	28.0875	0.011115	0.002106	5.277997	73.0474	175.191	0.029776	0.481357	-0.568984	-0.570328	-0.005845	5.277997	-0.568153	-3.027702E+7	1.930615E-10	NaN
138	1.000000	0.522707	7.36639e+06	-45539.1	955.819	-29772.6	0.000000	0.000000	6.522888	-0.007623	NaN	0.000000	0.001650	0.001681	28.0876	0.009538	0.002082	4.581363	173.621	173.984	0.023854	0.521385	-0.528978	-0.530300	-0.007623	4.581363	-0.527730	-8.33766e+06	9.142971E-10	NaN
138	1.000000	0.562727	7.36639e+06	-45539.1	955.818	-29772.6	0.000000	0.000000	6.562906	-0.033365	NaN	0.000000	0.001633	0.001551	28.0885	0.077020	0.002065	37.2899	-153.892	175.833	-0.014827	0.561455	-0.488958	-0.490231	-0.033365	37.2899	-0.488287	-2.3521e+06	1.418520E-8	NaN
138	1.000000	0.602723	7.36639e+06	-45539.1	955.818	-29772.6	0.000000	0.000000	6.602905	0.039036	NaN	0.000000	0.001624	0.001630	28.0861	0.038026	0.001951	19.4861	-73.8908	177.213	-0.015320	0.601391	-0.448962	-0.450294	0.039036	19.4861	-0.450465	-693246	-5.630889E-8	NaN
138	1.000000	0.642725	7.36639e+06	-45539.1	955.818	-29772.6	0.000000	0.000000	6.642905	-0.008091	NaN	0.000000	0.001603	0.001585	28.0878	0.115454	0.002042	56.5362	-144.54	177.706	0.052745	0.641428	-0.408960	-0.410258	-0.008091	56.5362	-0.408853	-178684	4.528163E-8	NaN
138	1.000000	0.682774	7.36639e+06	-45539.1	955.818	-29772.6	0.000000	0.000000	6.682955	0.018145	NaN	0.000000	0.001634	0.001610	28.0864	0.084362	0.002063	40.8985	-61.2707	177.58	0.046920	0.681419	-0.368912	-0.370266	0.018145	40.8985	-0.369244	-48444.3	-3.745497E-7	NaN
138	1.000000	0.722774	7.36639e+06	-45539.1	955.817	-29772.6	0.000000	0.000000	6.722954	-0.030558	NaN	0.000000	0.001632	0.001618	28.0894	0.031946	0.002112	15.1273	107.602	178.738	0.035768	0.721458	-0.328911	-0.330228	-0.030558	15.1273	-0.327396	-11947.8	2.557667E-6	NaN
138	1.000000	0.762808	7.36639e+06	-45539.1	955.819	-29772.6	0.000000	0.000000	6.762993	0.099509	NaN	0.000000	0.001647	0.001621	28.087	0.076912	0.001937	39.6974	-154.807	173.384	-0.000125	0.761497	-0.288878	-0.290188	0.099509	39.6974	-0.290758	-3424.9	-2.905449E-5	NaN
138	1.000000	0.802790	7.36639e+06	-45539.1	955.818	-29772.6	0.000000	0.000000	6.802972	0.032311	NaN	0.000000	0.001642	0.001609	28.0887	0.036677	0.002079	17.645	-40.7747	174.67	0.049715	0.801520	-0.248895	-0.250165	0.032311	17.645	-0.250269	-830.081	-3.892537E-5	NaN
138	1.000000	0.842853	7.36639e+06	-45539.1	955.818	-29772.6	0.000000	0.000000	6.843034	0.002762	NaN	0.000000	0.001676	0.001600	28.0876	0.071679	0.002004	35.7737	62.3672	175.584	-0.026538	0.841522	-0.208832	-0.210163	0.002762	35.7737	-0.208890	-184.005	-1.500832E-5	NaN
138	1.000000	0.882858	7.36639e+06	-45539.1	955.818	-29772.6	0.000000	0.000000	6.883038	-0.019432	NaN	0.000000	0.001668	0.001621	28.089	0.075848	0.002027	37.426	-147.811	176.589	-0.008088	0.881532	-0.168827	-0.170153	-0.019432	37.426	-0.168438	-38.5867	0.000504	NaN
138	1.000000	0.922861	7.36639e+06	-45539.1	955.818	-29772.6	0.000000	0.000000	6.923043	0.044792	NaN	0.000000	0.001666	0.001594	28.0875	0.033711	0.001986	16.9783	85.1579	171.543	-0.077203	0.921596	-0.128824	-0.130089	0.044792	16.9783	-0.130803	-7.899306	-0.005670	NaN
138	1.000000	0.962890	7.36639e+06	-45539.1	955.818	-29772.6	0.000000	0.000000	6.963071	-0.014449	NaN	0.000000	0.001666	0.001646	28.0888	0.064611	0.001883	34.304	-16.6748	176.459	0.058467	0.961552	-0.088795	-0.090133	-0.014449	34.304	-0.088479	-0.995315	0.014517	NaN
138	1.000000	1.002918	7.36639e+06	-45539.1	955.818	-29772.6	0.000000	0.000000	7.003097	-0.032242	NaN	0.000000	0.001670	0.001534	28.0884	0.118084	0.001936	60.9794	-91.8789	171.488	-0.029305	1.001537	-0.048767	-0.050148	-0.032242	60.9794	-0.048371	-0.081439	0.395910	NaN
138	1.000000	1.042942	7.36639e+06	-45539.1	955.818	-29772.6	0.000000	0.000000	7.043122	-0.016139	NaN	0.000000	0.001631	0.001613	28.0904	0.043287	0.001935	22.369	158.403	179.712	-0.076575	1.041583	-0.008743	-0.010102	-0.016139	22.369	-0.008202	-0.005350	3.016747	NaN
138	2.000000	1.065474	7.36639e+06	-45539.1	955.819	-29772.6	0.000000	0.000000	7.066460	19.5776	NaN	0.000000	0.001627	0.001558	28.0893	14.3683	0.001705	8426.13	3.247772	167.999	17.9734	1.065185	0.013789	0.013500	19.5776	8426.13	0.012046	0.011546	1695.69	71646.3
138	2.000000	1.075479	7.36639e+06	-45539.1	955.819	-29772.6	0.000000	0.000000	7.077361	41.3907	NaN	0.000000	0.001654	0.001604	28.0899	24.7268	0.001888	13094	6.897603	162.341	40.8458	1.075186	0.023793	0.023501	41.3907	13094	0.021423	0.024827	1667.14	75924.2
138	2.000000	1.085460	7.36639e+06	-45539.1	955.818	-29772.6	0.000000	0.000000	7.088861	78.3397	NaN	0.000000	0.001636	0.001550	28.0885	34.3147	0.001730	19837.2	2.830941	161.483	77.4205	1.085164	0.033775	0.033479	78.3397	19837.2	0.030813	0.042445	1845.66	87970.8
138	2.000000	1.095424	7.36639e+06	-45539.1	955.819	-29772.6	0.000000	0.000000	7.100423	117.192	NaN	0.000000	0.001637	0.001542	28.0893	44.6921	0.001900	23516.7	4.615291	159.84	117.206	1.095142	0.043739	0.043456	117.192	23516.7	0.040002	0.064032	1830.19	84908.3
138	2.000000	1.105416	7.36639e+06	-45539.1	955.819	-29772.6	0.000000	0.000000	7.112583	169.964	NaN	0.000000	0.001613	0.001593	28.0891	54.3645	0.001757	30934.3	2.739660	157.941	168.384	1.105183	0.053731	0.053498	169.964	30934.3	0.049610	0.091211	1863.42	93581.4
138	2.000000	1.115478	7.36639e+06	-45539.1	955.819	-29772.6	0.000000	0.000000	7.125237	233.01	NaN	0.000000	0.001668	0.001542	28.0894	65.0771	0.001859	35009.6	5.191847	155.892	234.366	1.115080	0.063793	0.063395	233.01	35009.6	0.058801	0.121545	1917.07	91747
138	2.000000	1.125357	7.36639e+06	-45539.1	955.818	-29772.6	0.000000	0.000000	7.138055	304.514	NaN	0.000000	0.001645	0.001574	28.0908	73.2967	0.001808	40533.8	5.387278	154.557	303.655	1.124958	0.073672	0.073273	304.514	40533.8	0.068037	0.156195	1949.57	93703.7
138	2.000000	1.135321	7.36639e+06	-45539.1	955.819	-29772.6	0.000000	0.000000	7.150948	375.734	NaN	0.000000	0.001661	0.001584	28.0916	82.924	0.001741	47637.3	2.998947	155.41	372.888	1.135091	0.083636	0.083406	375.734	47637.3	0.077721	0.196904	1908.2	98082.8
138	2.000000	1.145397	7.36639e+06	-45539.1	955.819	-29772.6	0.000000	0.000000	7.164360	456.901	NaN	0.000000	0.001742	0.001553	28.0884	91.4357	0.001656	55204.4	4.127126	153.209	459.434	1.145124	0.093712	0.093439	456.901	55204.4	0.087505	0.242495	1884.16	102422
138	2.000000	1.155341	7.36639e+06	-45539.1	955.819	-29772.6	0.000000	0.000000	7.178223	552.244	NaN	0.000000	0.001682	0.001569	28.0897	101.492	0.001737	58426.8	3.914077	152.762	549.065	1.155045	0.103655	0.103360	552.244	58426.8	0.096567	0.288651	1913.19	99357
138	2.000000	1.158372	7.36639e+06	-45539.1	955.819	-29772.6	0.000000	0.000000	7.182677	586.837	NaN	0.000000	0.001624	0.001564	28.1063	104.748	0.001778	58927.8	4.161759	153.273	586.389	1.158044	0.106687	0.106359	586.837	58927.8	0.099218	0.302868	1937.6	97828.8