Folder: unikorn_login/remote_trans/data/nanoindenter/0828-1/data/Data_2025-08-06,11h17m57s (part 179)

File: 2025-07-22_16-23-58_1_375.txt
2025-07-22, 16:23:58, 1
Index	Phase	Displacement	Time	Pos X	Pos Y	Pos Z	Rot A	Rot B	Piezo Z	Force A	Force B	Gripper	Voltage A	Voltage B	Temperature	Amplitude force	Amplitude pos	Stiffness	Phase shift	Phase excitation	Force A raw	Displacement raw	HMax	HMax raw	Real Force	Real Stiffness	Contact Depth	Area	Hardness	Reduced Mod.
[#]	[#]	[um]	[s]	[um]	[um]	[um]	[m°]	[m°]	[um]	[uN]	[uN]	[V]	[V]	[V]	[°C]	[uN]	[um]	[N/m]	[°]	[°]	[uN]	[um]	[um]	[um]	[uN]	[N/m]	[um]	[um^2]	[MPa]	[MPa]
375	1.000000	0.002382	7.36873e+06	-57389.1	955.819	-29737.3	0.000000	0.000000	6.002806	-0.042710	NaN	0.000000	0.001682	0.001639	28.0789	0.159612	0.000982	162.498	-37.6779	-171.643	0.030164	0.001162	-1.104861	-1.106080	-0.042710	162.498	-1.104663	-5.789819E+14	7.376786E-17	NaN
375	1.000000	0.044314	7.36873e+06	-57389.1	955.818	-29737.3	0.000000	0.000000	6.044739	-0.031644	NaN	0.000000	0.001680	0.001647	28.0803	0.064166	0.001979	32.4276	141.596	15.8311	-0.023195	0.042987	-1.062928	-1.064255	-0.031644	32.4276	-1.062196	-1.557149E+14	2.032153E-16	NaN
375	1.000000	0.086326	7.36873e+06	-57389.1	955.818	-29737.3	0.000000	0.000000	6.086751	-0.038874	NaN	0.000000	0.001636	0.001665	28.0801	0.095762	0.001953	49.0255	61.7023	-168.08	-0.035710	0.085018	-1.020916	-1.022224	-0.038874	49.0255	-1.020321	-4.258634E+13	9.128236E-16	NaN
375	1.000000	0.128338	7.36873e+06	-57389.1	955.819	-29737.3	0.000000	0.000000	6.128764	-0.007539	NaN	0.000000	0.001587	0.001664	28.08	0.178487	0.001951	91.4749	-158.012	15.0831	-0.002361	0.127023	-0.978904	-0.980219	-0.007539	91.4749	-0.978842	-1.177106E+13	6.405012E-16	NaN
375	1.000000	0.170362	7.36873e+06	-57389.1	955.819	-29737.3	0.000000	0.000000	6.170789	0.022371	NaN	0.000000	0.001607	0.001593	28.0788	0.118457	0.001918	61.7711	-143.512	-167.112	0.031824	0.169069	-0.936880	-0.938173	0.022371	61.7711	-0.937151	-3.226287E+12	-6.933943E-15	NaN
375	1.000000	0.212409	7.36873e+06	-57389.1	955.818	-29737.3	0.000000	0.000000	6.212833	-0.061137	NaN	0.000000	0.001653	0.001657	28.0789	0.058682	0.002011	29.177	-131.453	12.731	-0.007067	0.211015	-0.894833	-0.896227	-0.061137	29.177	-0.893262	-8.241409E+11	7.418222E-14	NaN
375	1.000000	0.254428	7.36873e+06	-57389.1	955.817	-29737.3	0.000000	0.000000	6.254852	-0.058958	NaN	0.000000	0.001697	0.001666	28.0788	0.044990	0.002093	21.4924	-95.5084	-165.869	0.064885	0.253100	-0.852814	-0.854142	-0.058958	21.4924	-0.850757	-2.192744E+11	2.688759E-13	NaN
375	1.000000	0.296441	7.36873e+06	-57389.1	955.818	-29737.3	0.000000	0.000000	6.296867	-0.009103	NaN	0.000000	0.001643	0.001666	28.0799	0.041703	0.001995	20.9081	-149.596	14.9695	-0.055810	0.295025	-0.810801	-0.812217	-0.009103	20.9081	-0.810474	-6.237469E+10	1.459406E-13	NaN
375	1.000000	0.338443	7.36873e+06	-57389.1	955.819	-29737.3	0.000000	0.000000	6.338869	-0.002635	NaN	0.000000	0.001629	0.001650	28.0798	0.050012	0.001969	25.3945	-124.653	-166.837	-0.011190	0.337150	-0.768799	-0.770092	-0.002635	25.3945	-0.768722	-1.690145E+10	1.558928E-13	NaN
375	1.000000	0.380463	7.36873e+06	-57389.1	955.818	-29737.3	0.000000	0.000000	6.380888	-0.009105	NaN	0.000000	0.001608	0.001608	28.0799	0.049730	0.001928	25.7875	-16.413	17.3497	0.040438	0.379084	-0.726779	-0.728159	-0.009105	25.7875	-0.726515	-4.500918E+9	2.022897E-12	NaN
375	1.000000	0.422461	7.36873e+06	-57389.1	955.819	-29737.3	0.000000	0.000000	6.422891	0.093977	NaN	0.000000	0.001633	0.001673	28.0799	0.054114	0.001900	28.4873	40.0525	-166.665	0.073030	0.421229	-0.684781	-0.686013	0.093977	28.4873	-0.687255	-1.310400E+9	-7.171622E-11	NaN
375	1.000000	0.464481	7.36873e+06	-57389.1	955.818	-29737.3	0.000000	0.000000	6.464907	-0.002147	NaN	0.000000	0.001636	0.001661	28.0791	0.020596	0.002011	10.2443	176.15	13.9816	0.046488	0.463151	-0.642761	-0.644092	-0.002147	10.2443	-0.642604	-3.206369E+8	6.696114E-12	NaN
375	1.000000	0.506516	7.36873e+06	-57389.1	955.819	-29737.3	0.000000	0.000000	6.506944	0.051692	NaN	0.000000	0.001609	0.001627	28.0789	0.132069	0.001857	71.1076	-112.899	-166.277	0.005476	0.505122	-0.600727	-0.602120	0.051692	71.1076	-0.601272	-8.669116E+7	-5.962766E-10	NaN
375	1.000000	0.548538	7.36873e+06	-57389.1	955.818	-29737.3	0.000000	0.000000	6.548965	0.038544	NaN	0.000000	0.001660	0.001624	28.0787	0.010371	0.002043	5.074986	117.268	15.71	0.073876	0.547203	-0.558704	-0.560039	0.038544	5.074986	-0.564401	-2.686824E+7	-1.434563E-9	NaN
375	1.000000	0.590544	7.36873e+06	-57389.1	955.818	-29737.3	0.000000	0.000000	6.590970	0.006983	NaN	0.000000	0.001641	0.001649	28.0799	0.079117	0.001981	39.9405	73.8131	-166.868	0.034921	0.589237	-0.516698	-0.518005	0.006983	39.9405	-0.516829	-5.88153e+06	-1.187221E-9	NaN
375	1.000000	0.632584	7.36873e+06	-57389.1	955.819	-29737.3	0.000000	0.000000	6.633010	-0.001278	NaN	0.000000	0.001618	0.001658	28.0798	0.022366	0.002023	11.057	128.658	11.88	0.004963	0.631156	-0.474658	-0.476086	-0.001278	11.057	-0.474572	-1.51181e+06	8.454921E-10	NaN
375	1.000000	0.674561	7.36873e+06	-57389.1	955.819	-29737.3	0.000000	0.000000	6.674988	0.036886	NaN	0.000000	0.001611	0.001667	28.08	0.095894	0.001919	49.96	-44.8699	-164.86	-0.013226	0.673319	-0.432681	-0.433923	0.036886	49.96	-0.433235	-396105	-9.312081E-8	NaN
375	1.000000	0.716614	7.36873e+06	-57389.1	955.819	-29737.3	0.000000	0.000000	6.717038	-0.059515	NaN	0.000000	0.001592	0.001631	28.0784	0.072459	0.001929	37.5679	131.461	14.0254	-0.028404	0.715287	-0.390628	-0.391955	-0.059515	37.5679	-0.389440	-94439	6.301955E-7	NaN
375	1.000000	0.758634	7.36873e+06	-57389.1	955.819	-29737.3	0.000000	0.000000	6.759061	0.019198	NaN	0.000000	0.001595	0.001676	28.0787	0.071219	0.002005	35.5261	-172.868	-167.674	0.020611	0.757267	-0.348608	-0.349975	0.019198	35.5261	-0.349013	-24698.9	-7.772708E-7	NaN
375	1.000000	0.800612	7.36873e+06	-57389.1	955.818	-29737.3	0.000000	0.000000	6.801037	-0.016452	NaN	0.000000	0.001617	0.001635	28.0786	0.051139	0.002183	23.4212	-68.3859	14.8444	0.054769	0.799295	-0.306630	-0.307947	-0.016452	23.4212	-0.306104	-5798.68	2.837156E-6	NaN
375	1.000000	0.842629	7.36873e+06	-57389.1	955.819	-29737.3	0.000000	0.000000	6.843055	0.013922	NaN	0.000000	0.001597	0.001673	28.0797	0.018201	0.001886	9.649196	108.546	-164.288	0.018634	0.841366	-0.264613	-0.265876	0.013922	9.649196	-0.265696	-1432.19	-9.720670E-6	NaN
375	1.000000	0.884643	7.36873e+06	-57389.1	955.819	-29737.3	0.000000	0.000000	6.885067	-0.068920	NaN	0.000000	0.001577	0.001639	28.0797	0.063469	0.001955	32.4592	82.8687	13.9505	-0.062322	0.883344	-0.222599	-0.223899	-0.068920	32.4592	-0.221006	-288.235	0.000239	NaN
375	1.000000	0.926721	7.36874e+06	-57389.1	955.819	-29737.3	0.000000	0.000000	6.927144	-0.082554	NaN	0.000000	0.001578	0.001616	28.0797	0.074647	0.001916	38.9602	41.1614	-166.439	-0.008238	0.925346	-0.180521	-0.181896	-0.082554	38.9602	-0.178932	-58.5166	0.001411	NaN
375	1.000000	0.968721	7.36874e+06	-57389.1	955.82	-29737.3	0.000000	0.000000	6.969147	-0.005789	NaN	0.000000	0.001651	0.001691	28.0797	0.023868	0.002028	11.7705	-8.292019	15.4383	0.055196	0.967333	-0.138521	-0.139909	-0.005789	11.7705	-0.138152	-10.9182	0.000530	NaN
375	1.000000	1.010729	7.36874e+06	-57389.1	955.819	-29737.3	0.000000	0.000000	7.011154	-0.045606	NaN	0.000000	0.001701	0.001650	28.0785	0.039977	0.002041	19.5903	-137.328	-164.384	0.023603	1.009473	-0.096513	-0.097769	-0.045606	19.5903	-0.094767	-1.393475	0.032728	NaN
375	1.000000	1.052710	7.36874e+06	-57389.1	955.819	-29737.3	0.000000	0.000000	7.053135	-0.033609	NaN	0.000000	0.001600	0.001659	28.0783	0.122095	0.002050	59.5622	-112.732	14.2051	-0.004070	1.051403	-0.054532	-0.055839	-0.033609	59.5622	-0.054109	-0.121181	0.277349	NaN
375	1.000000	1.094725	7.36874e+06	-57389.1	955.821	-29737.3	0.000000	0.000000	7.095148	-0.090845	NaN	0.000000	0.001691	0.001642	28.0783	0.088631	0.002015	43.9755	-119.029	-164.068	-0.094101	1.093485	-0.012517	-0.013757	-0.090845	43.9755	-0.010967	-0.006939	13.0912	NaN
375	2.000000	1.119864	7.36874e+06	-57389.1	955.82	-29737.3	0.000000	0.000000	7.120915	15.174	NaN	0.000000	0.001650	0.001639	28.0796	14.0403	0.001934	7260.88	6.998629	5.453497	14.2677	1.119496	0.012622	0.012254	15.174	7260.88	0.011055	0.010377	1462.24	65121.1
375	2.000000	1.130296	7.36874e+06	-57389.1	955.821	-29737.3	0.000000	0.000000	7.132054	32.3789	NaN	0.000000	0.001656	0.001616	28.0798	22.7783	0.001735	13127.8	-0.081937	-172.6	30.7384	1.129925	0.023054	0.022683	32.3789	13127.8	0.021204	0.024469	1323.24	76675
375	2.000000	1.140750	7.36874e+06	-57389.1	955.82	-29737.3	0.000000	0.000000	7.143456	55.417	NaN	0.000000	0.001690	0.001615	28.08	33.1443	0.001766	18770.6	4.407309	-0.415478	51.7744	1.140443	0.033508	0.033201	55.417	18770.6	0.031294	0.043468	1274.89	82255.9
375	2.000000	1.151294	7.36874e+06	-57389.1	955.82	-29737.3	0.000000	0.000000	7.155472	91.1934	NaN	0.000000	0.001602	0.001621	28.0786	43.4132	0.001889	22986.9	7.162269	176.494	90.731	1.150934	0.044052	0.043692	91.1934	22986.9	0.041077	0.066840	1364.35	81233.3
375	2.000000	1.161803	7.36874e+06	-57389.1	955.819	-29737.3	0.000000	0.000000	7.167686	132.627	NaN	0.000000	0.001632	0.001609	28.0787	54.1938	0.001950	27788.1	11.2447	-9.835086	133.717	1.161445	0.054561	0.054203	132.627	27788.1	0.050981	0.095470	1389.2	82167.1
375	2.000000	1.172336	7.36874e+06	-57389.1	955.82	-29737.3	0.000000	0.000000	7.180317	183.618	NaN	0.000000	0.001572	0.001598	28.0786	65.6141	0.001803	36389.6	5.987287	173.321	186.129	1.171964	0.065094	0.064721	183.618	36389.6	0.061309	0.130546	1406.54	92017.3
375	2.000000	1.182874	7.36874e+06	-57389.1	955.819	-29737.3	0.000000	0.000000	7.193129	238.877	NaN	0.000000	0.001586	0.001643	28.0799	77.3214	0.001792	43148.4	5.669111	-7.794133	244.999	1.182488	0.075632	0.075246	238.877	43148.4	0.071480	0.170160	1403.84	95567.3
375	2.000000	1.193142	7.36874e+06	-57389.1	955.82	-29737.3	0.000000	0.000000	7.206131	305.348	NaN	0.000000	0.001589	0.001619	28.0798	85.4834	0.001788	47802.3	0.765231	175.761	299.797	1.192850	0.085899	0.085608	305.348	47802.3	0.081109	0.212189	1439.04	94811.4
375	2.000000	1.203651	7.36874e+06	-57389.1	955.82	-29737.3	0.000000	0.000000	7.219722	380.242	NaN	0.000000	0.001574	0.001601	28.08	95.1586	0.001807	52649.6	5.119558	-8.790718	375.495	1.203187	0.096409	0.095945	380.242	52649.6	0.090992	0.259814	1463.52	94370.7
375	2.000000	1.212977	7.36874e+06	-57389.1	955.819	-29737.3	0.000000	0.000000	7.230428	413.787	NaN	0.000000	0.001580	0.001671	28.0801	104.362	0.001884	55404.9	3.518447	-8.017238	426.755	1.212820	0.105735	0.105578	413.787	55404.9	0.100134	0.307849	1344.12	91233

File: 2025-07-22_16-23-58_1_376.txt
2025-07-22, 16:23:58, 1
Index	Phase	Displacement	Time	Pos X	Pos Y	Pos Z	Rot A	Rot B	Piezo Z	Force A	Force B	Gripper	Voltage A	Voltage B	Temperature	Amplitude force	Amplitude pos	Stiffness	Phase shift	Phase excitation	Force A raw	Displacement raw	HMax	HMax raw	Real Force	Real Stiffness	Contact Depth	Area	Hardness	Reduced Mod.
[#]	[#]	[um]	[s]	[um]	[um]	[um]	[m°]	[m°]	[um]	[uN]	[uN]	[V]	[V]	[V]	[°C]	[uN]	[um]	[N/m]	[°]	[°]	[uN]	[um]	[um]	[um]	[uN]	[N/m]	[um]	[um^2]	[MPa]	[MPa]
376	1.000000	0.002614	7.36874e+06	-57439.1	955.819	-29737.2	0.000000	0.000000	6.002850	-0.004268	NaN	0.000000	0.001595	0.001695	28.0817	0.054653	0.000854	64.0261	176.778	-165.7	-0.088746	0.001326	-1.076700	-1.077988	-0.004268	64.0261	-1.076650	-2.435124E+14	1.752820E-17	NaN
376	1.000000	0.044522	7.36874e+06	-57439.1	955.818	-29737.2	0.000000	0.000000	6.044758	0.005643	NaN	0.000000	0.001606	0.001678	28.0804	0.027054	0.002074	13.0467	-113.955	13.2803	0.049351	0.043157	-1.034792	-1.036157	0.005643	13.0467	-1.035117	-6.734362E+13	-8.379335E-17	NaN
376	1.000000	0.086561	7.36874e+06	-57439.1	955.818	-29737.2	0.000000	0.000000	6.086796	-0.040860	NaN	0.000000	0.001579	0.001677	28.0804	0.114087	0.001902	59.9814	-96.855	-167.169	0.031140	0.085242	-0.992753	-0.994072	-0.040860	59.9814	-0.992242	-1.783619E+13	2.290850E-15	NaN
376	1.000000	0.128552	7.36874e+06	-57439.1	955.818	-29737.2	0.000000	0.000000	6.128790	0.043564	NaN	0.000000	0.001625	0.001656	28.0804	0.037122	0.001909	19.4475	96.3147	12.8405	0.005342	0.127175	-0.950762	-0.952138	0.043564	19.4475	-0.952442	-5.187506E+12	-8.397901E-15	NaN
376	1.000000	0.170564	7.36874e+06	-57439.1	955.817	-29737.2	0.000000	0.000000	6.170802	0.016062	NaN	0.000000	0.001618	0.001671	28.0813	0.039102	0.002034	19.2223	-174.666	-163.151	0.003905	0.169221	-0.908749	-0.910093	0.016062	19.2223	-0.909376	-1.360617E+12	-1.180485E-14	NaN
376	1.000000	0.212554	7.36874e+06	-57439.1	955.818	-29737.2	0.000000	0.000000	6.212790	-0.017592	NaN	0.000000	0.001632	0.001669	28.0813	0.091589	0.002007	45.6253	34.6176	14.6674	-0.067650	0.211215	-0.866760	-0.868098	-0.017592	45.6253	-0.866471	-3.578433E+11	4.916195E-14	NaN
376	1.000000	0.254602	7.36874e+06	-57439.1	955.818	-29737.2	0.000000	0.000000	6.254838	-0.006376	NaN	0.000000	0.001564	0.001657	28.0817	0.080228	0.001991	40.2949	-109.818	-165.161	-0.095010	0.253251	-0.824712	-0.826063	-0.006376	40.2949	-0.824593	-9.693670E+10	6.577867E-14	NaN
376	1.000000	0.296622	7.36874e+06	-57439.1	955.817	-29737.2	0.000000	0.000000	6.296855	-0.086168	NaN	0.000000	0.001634	0.001637	28.0814	0.083513	0.001916	43.5917	102.639	13.9725	-0.019699	0.295229	-0.782692	-0.784085	-0.086168	43.5917	-0.781209	-2.498396E+10	3.448925E-12	NaN
376	1.000000	0.338635	7.36874e+06	-57439.1	955.819	-29737.2	0.000000	0.000000	6.338870	-0.057275	NaN	0.000000	0.001561	0.001657	28.08	0.049631	0.001985	25.0088	-177.078	-160.167	-0.036634	0.337336	-0.740678	-0.741978	-0.057275	25.0088	-0.738961	-6.651187E+9	8.611214E-12	NaN
376	1.000000	0.380683	7.36874e+06	-57439.1	955.818	-29737.2	0.000000	0.000000	6.380920	0.004103	NaN	0.000000	0.001656	0.001687	28.08	0.106488	0.002022	52.6689	-168.259	14.6953	0.015594	0.379291	-0.698631	-0.700022	0.004103	52.6689	-0.698689	-1.877714E+9	-2.185299E-12	NaN
376	1.000000	0.422680	7.36874e+06	-57439.1	955.818	-29737.2	0.000000	0.000000	6.422915	-0.042956	NaN	0.000000	0.001618	0.001699	28.0801	0.138157	0.002047	67.4993	-25.0964	-167.948	0.013362	0.421344	-0.656634	-0.657970	-0.042956	67.4993	-0.656156	-4.918260E+8	8.733917E-11	NaN
376	1.000000	0.464690	7.36874e+06	-57439.1	955.818	-29737.2	0.000000	0.000000	6.464927	0.003440	NaN	0.000000	0.001606	0.001697	28.0815	0.081255	0.002063	39.3841	64.7064	13.0176	0.061536	0.463315	-0.614624	-0.615998	0.003440	39.3841	-0.614689	-1.326227E+8	-2.593654E-11	NaN
376	1.000000	0.506714	7.36874e+06	-57439.1	955.818	-29737.2	0.000000	0.000000	6.506950	0.008011	NaN	0.000000	0.001602	0.001696	28.0814	0.047383	0.002029	23.3582	24.6175	-166.573	-0.011970	0.505412	-0.572600	-0.573902	0.008011	23.3582	-0.572857	-3.516478E+7	-2.278263E-10	NaN
376	1.000000	0.548737	7.36874e+06	-57439.1	955.819	-29737.2	0.000000	0.000000	6.548972	-0.018942	NaN	0.000000	0.001593	0.001654	28.0812	0.078838	0.001997	39.4805	-21.8601	15.1231	0.001603	0.547332	-0.530577	-0.531982	-0.018942	39.4805	-0.530217	-9.02802e+06	2.098184E-9	NaN
376	1.000000	0.590732	7.36874e+06	-57439.1	955.818	-29737.2	0.000000	0.000000	6.590969	0.001534	NaN	0.000000	0.001617	0.001683	28.0799	0.010957	0.002076	5.277069	-74.1784	-166.421	0.077976	0.589455	-0.488582	-0.489858	0.001534	5.277069	-0.488800	-2.3912e+06	-6.416947E-10	NaN
376	1.000000	0.632775	7.36874e+06	-57439.1	955.818	-29737.2	0.000000	0.000000	6.633009	-0.050896	NaN	0.000000	0.001592	0.001669	28.08	0.104477	0.002104	49.6608	-167.95	13.2676	-0.119605	0.631430	-0.446539	-0.447884	-0.050896	49.6608	-0.445770	-595323	8.549273E-8	NaN
376	1.000000	0.674771	7.36874e+06	-57439.1	955.817	-29737.2	0.000000	0.000000	6.675008	0.016240	NaN	0.000000	0.001552	0.001693	28.0801	0.058505	0.001997	29.3011	-83.5327	-164.197	0.078996	0.673503	-0.404543	-0.405810	0.016240	29.3011	-0.404958	-157274	-1.032587E-7	NaN
376	1.000000	0.716809	7.36874e+06	-57439.1	955.818	-29737.2	0.000000	0.000000	6.717045	-0.030992	NaN	0.000000	0.001667	0.001704	28.0811	0.100803	0.002037	49.4944	-66.3186	12.998	-0.112200	0.715511	-0.362504	-0.363803	-0.030992	49.4944	-0.362035	-38128.3	8.128397E-7	NaN
376	1.000000	0.758801	7.36874e+06	-57439.1	955.818	-29737.2	0.000000	0.000000	6.759038	0.019352	NaN	0.000000	0.001650	0.001696	28.0815	0.078366	0.001951	40.1654	-73.7348	-163.76	-0.001015	0.757486	-0.320513	-0.321828	0.019352	40.1654	-0.320875	-9583.14	-2.019411E-6	NaN
376	1.000000	0.800833	7.36874e+06	-57439.1	955.818	-29737.2	0.000000	0.000000	6.801067	-0.064798	NaN	0.000000	0.001665	0.001671	28.0815	0.064951	0.002010	32.3143	-123.829	14.2625	-0.046142	0.799493	-0.278481	-0.279820	-0.064798	32.3143	-0.276977	-2124.75	3.049669E-5	NaN
376	1.000000	0.842840	7.36874e+06	-57439.1	955.818	-29737.2	0.000000	0.000000	6.843078	0.015454	NaN	0.000000	0.001699	0.001687	28.081	0.019326	0.001964	9.838236	63.5096	-167.881	0.065966	0.841539	-0.236473	-0.237775	0.015454	9.838236	-0.237651	-528.231	-2.925705E-5	NaN
376	1.000000	0.884861	7.36875e+06	-57439.1	955.818	-29737.2	0.000000	0.000000	6.885098	0.013615	NaN	0.000000	0.001686	0.001693	28.0799	0.115673	0.001988	58.1907	-67.8717	13.3522	-0.028266	0.883540	-0.194453	-0.195774	0.013615	58.1907	-0.194628	-107.409	-0.000127	NaN
376	1.000000	0.926876	7.36875e+06	-57439.1	955.818	-29737.2	0.000000	0.000000	6.927112	0.001991	NaN	0.000000	0.001641	0.001659	28.08	0.145842	0.001949	74.8182	101.117	-166.029	0.000590	0.925595	-0.152438	-0.153718	0.001991	74.8182	-0.152458	-20.0765	-9.918374E-5	NaN
376	1.000000	0.968893	7.36875e+06	-57439.1	955.818	-29737.2	0.000000	0.000000	6.969129	-0.034840	NaN	0.000000	0.001685	0.001685	28.0799	0.038977	0.002205	17.6759	-39.8455	14.6991	-0.068126	0.967469	-0.110420	-0.111844	-0.034840	17.6759	-0.108942	-2.854362	0.012206	NaN
376	1.000000	1.010906	7.36875e+06	-57439.1	955.817	-29737.2	0.000000	0.000000	7.011142	-4.072557E-6	NaN	0.000000	0.001610	0.001723	28.0814	0.099518	0.001892	52.6105	-0.895109	-167.463	-0.069075	1.009557	-0.068408	-0.069756	-4.072557E-6	52.6105	-0.068408	-0.309029	1.317856E-5	NaN
376	1.000000	1.052929	7.36875e+06	-57439.1	955.816	-29737.2	0.000000	0.000000	7.053165	-0.028192	NaN	0.000000	0.001638	0.001749	28.0815	0.096874	0.002039	47.5093	-147.053	14.4283	0.026279	1.051573	-0.026385	-0.027740	-0.028192	47.5093	-0.025939	-0.017857	1.578807	NaN
376	1.000000	1.094928	7.36875e+06	-57439.1	955.817	-29737.2	0.000000	0.000000	7.095467	7.339262	NaN	0.000000	0.001648	0.001650	28.0813	6.896004	0.001639	4208.04	12.8439	-172.578	6.658965	1.093582	0.015615	0.014268	7.339262	4208.04	0.014307	0.014372	510.671	32069.9
376	2.000000	1.106957	7.36875e+06	-57439.1	955.818	-29737.2	0.000000	0.000000	7.108182	24.0134	NaN	0.000000	0.001653	0.001699	28.0801	19.0328	0.001655	11502.6	10.5906	-3.155984	23.571	1.106580	0.027644	0.027267	24.0134	11502.6	0.026078	0.033006	727.553	57846.2
376	2.000000	1.117370	7.36875e+06	-57439.1	955.816	-29737.2	0.000000	0.000000	7.119690	50.6303	NaN	0.000000	0.001618	0.001683	28.08	29.0194	0.001725	16819.9	3.039762	-177.205	49.6269	1.117051	0.038056	0.037737	50.6303	16819.9	0.035799	0.053622	944.212	66363
376	2.000000	1.127819	7.36875e+06	-57439.1	955.816	-29737.2	0.000000	0.000000	7.131258	77.8222	NaN	0.000000	0.001640	0.001642	28.0802	38.8094	0.001779	21816.4	3.438059	-0.221870	75.0293	1.127542	0.048505	0.048229	77.8222	21816.4	0.045830	0.079961	973.256	70488.6
376	2.000000	1.138302	7.36875e+06	-57439.1	955.816	-29737.2	0.000000	0.000000	7.143479	120.088	NaN	0.000000	0.001673	0.001675	28.0812	48.159	0.001737	27728	3.987271	177.2	117.821	1.138100	0.058988	0.058786	120.088	27728	0.055740	0.110976	1082.11	76046.1
376	2.000000	1.148777	7.36875e+06	-57439.1	955.816	-29737.2	0.000000	0.000000	7.155795	164.798	NaN	0.000000	0.001680	0.001654	28.0815	57.6724	0.001785	32317.1	3.758558	-4.109639	160.372	1.148520	0.069464	0.069206	164.798	32317.1	0.065639	0.146802	1122.58	77061.9
376	2.000000	1.159434	7.36875e+06	-57439.1	955.817	-29737.2	0.000000	0.000000	7.168773	221.216	NaN	0.000000	0.001596	0.001679	28.0815	71.0552	0.001841	38600.9	7.522556	171.692	225.952	1.159097	0.080120	0.079783	221.216	38600.9	0.075822	0.188575	1173.09	81213.6
376	2.000000	1.169792	7.36875e+06	-57439.1	955.817	-29737.2	0.000000	0.000000	7.182184	295.43	NaN	0.000000	0.001686	0.001694	28.0813	79.588	0.001873	42495.1	9.123431	-11.4037	292.606	1.169452	0.090478	0.090139	295.43	42495.1	0.085264	0.231664	1275.25	80664.5
376	2.000000	1.180128	7.36875e+06	-57439.1	955.817	-29737.2	0.000000	0.000000	7.194787	350.524	NaN	0.000000	0.001655	0.001678	28.08	87.8439	0.001790	49086.2	1.424604	175.366	340.389	1.179890	0.100814	0.100577	350.524	49086.2	0.095458	0.282805	1239.45	84331.3
376	2.000000	1.190769	7.36875e+06	-57439.1	955.818	-29737.2	0.000000	0.000000	7.208955	436.25	NaN	0.000000	0.001717	0.001700	28.0802	96.979	0.001675	57905.8	2.093406	-6.323075	430.239	1.190286	0.111455	0.110972	436.25	57905.8	0.105805	0.339560	1284.75	90789.7
376	2.000000	1.195276	7.36875e+06	-57439.1	955.817	-29737.2	0.000000	0.000000	7.214573	463.272	NaN	0.000000	0.001670	0.001666	28.0802	101.277	0.001677	60398.1	3.306984	171.678	462.522	1.194986	0.115962	0.115672	463.272	60398.1	0.110209	0.365194	1268.57	91313.5