Folder: unikorn_login/remote_trans/data/nanoindenter/0828-1/data/Data_2025-08-06,11h17m57s (part 116)

File: 2025-07-22_16-23-58_1_249.txt
2025-07-22, 16:23:58, 1
Index	Phase	Displacement	Time	Pos X	Pos Y	Pos Z	Rot A	Rot B	Piezo Z	Force A	Force B	Gripper	Voltage A	Voltage B	Temperature	Amplitude force	Amplitude pos	Stiffness	Phase shift	Phase excitation	Force A raw	Displacement raw	HMax	HMax raw	Real Force	Real Stiffness	Contact Depth	Area	Hardness	Reduced Mod.
[#]	[#]	[um]	[s]	[um]	[um]	[um]	[m°]	[m°]	[um]	[uN]	[uN]	[V]	[V]	[V]	[°C]	[uN]	[um]	[N/m]	[°]	[°]	[uN]	[um]	[um]	[um]	[uN]	[N/m]	[um]	[um^2]	[MPa]	[MPa]
249	1.000000	0.002838	7.36748e+06	-51089.1	955.819	-29753.6	0.000000	0.000000	6.002785	0.004966	NaN	0.000000	0.001628	0.001545	28.0795	0.009768	0.000945	10.3424	48.1172	-168.251	0.001578	0.001602	-1.185643	-1.186879	0.004966	10.3424	-1.186004	-7.133380E+15	-6.961659E-19	NaN
249	1.000000	0.046820	7.36748e+06	-51089.1	955.818	-29753.6	0.000000	0.000000	6.046765	-0.038579	NaN	0.000000	0.001598	0.001542	28.0789	0.030319	0.002041	14.8522	-29.5114	-166.329	-0.011561	0.045536	-1.141662	-1.142946	-0.038579	14.8522	-1.139714	-1.709616E+15	2.256599E-17	NaN
249	1.000000	0.090831	7.36748e+06	-51089.1	955.818	-29753.6	0.000000	0.000000	6.090777	-0.008459	NaN	0.000000	0.001655	0.001584	28.0802	0.054482	0.001972	27.6232	146.533	-165.303	-0.088022	0.089535	-1.097651	-1.098946	-0.008459	27.6232	-1.097421	-4.628559E+14	1.827484E-17	NaN
249	1.000000	0.134825	7.36748e+06	-51089.1	955.819	-29753.6	0.000000	0.000000	6.134770	-0.044955	NaN	0.000000	0.001609	0.001541	28.0796	0.038334	0.002087	18.3663	-99.4792	-165.767	-0.019724	0.133532	-1.053657	-1.054950	-0.044955	18.3663	-1.051821	-1.129509E+14	3.980034E-16	NaN
249	1.000000	0.178875	7.36748e+06	-51089.1	955.817	-29753.6	0.000000	0.000000	6.178820	-0.059220	NaN	0.000000	0.001604	0.001558	28.0802	0.152218	0.001954	77.8976	-8.150466	-162.95	-0.039883	0.177549	-1.009606	-1.010933	-0.059220	77.8976	-1.009036	-3.001991E+13	1.972694E-15	NaN
249	1.000000	0.222853	7.36748e+06	-51089.1	955.817	-29753.7	0.000000	0.000000	6.222801	0.028839	NaN	0.000000	0.001606	0.001573	28.079	0.040264	0.002093	19.2332	37.508	-165.372	0.033263	0.221576	-0.965629	-0.966906	0.028839	19.2332	-0.966753	-8.089140E+12	-3.565186E-15	NaN
249	1.000000	0.266924	7.36748e+06	-51089.1	955.818	-29753.7	0.000000	0.000000	6.266869	-0.038397	NaN	0.000000	0.001710	0.001648	28.079	0.033366	0.002043	16.3337	-98.8991	-165.858	-0.009097	0.265538	-0.921558	-0.922944	-0.038397	16.3337	-0.919795	-1.881207E+12	2.041100E-14	NaN
249	1.000000	0.310884	7.36749e+06	-51089.1	955.819	-29753.7	0.000000	0.000000	6.310829	-0.057307	NaN	0.000000	0.001656	0.001643	28.0791	0.067833	0.001972	34.3996	78.2431	-166.808	-0.046070	0.309593	-0.877597	-0.878888	-0.057307	34.3996	-0.876348	-4.867614E+11	1.177306E-13	NaN
249	1.000000	0.354926	7.36749e+06	-51089.1	955.818	-29753.7	0.000000	0.000000	6.354871	-0.039189	NaN	0.000000	0.001658	0.001582	28.0793	0.053421	0.001934	27.6194	41.1444	-167.623	0.018344	0.353620	-0.833556	-0.834862	-0.039189	27.6194	-0.832492	-1.240390E+11	3.159430E-13	NaN
249	1.000000	0.398952	7.36749e+06	-51089.1	955.819	-29753.7	0.000000	0.000000	6.398899	-0.004770	NaN	0.000000	0.001669	0.001610	28.0804	0.123826	0.001904	65.0216	174.565	-167.545	-0.047470	0.397669	-0.789529	-0.790813	-0.004770	65.0216	-0.789474	-3.235513E+10	1.474198E-13	NaN
249	1.000000	0.442970	7.36749e+06	-51089.1	955.818	-29753.7	0.000000	0.000000	6.442917	0.004573	NaN	0.000000	0.001682	0.001616	28.0803	0.006692	0.001856	3.605042	43.201	-166.633	-0.021546	0.441655	-0.745511	-0.746827	0.004573	3.605042	-0.746463	-8.415220E+9	-5.434709E-13	NaN
249	1.000000	0.486990	7.36749e+06	-51089.1	955.819	-29753.7	0.000000	0.000000	6.486932	-0.100352	NaN	0.000000	0.001666	0.001579	28.0805	0.055847	0.002008	27.8107	-106.031	-164.583	-0.060060	0.485646	-0.701492	-0.702836	-0.100352	27.8107	-0.698786	-1.883421E+9	5.328153E-11	NaN
249	1.000000	0.530997	7.36749e+06	-51089.1	955.818	-29753.7	0.000000	0.000000	6.530940	-0.090944	NaN	0.000000	0.001641	0.001615	28.0792	0.067058	0.001958	34.2565	146.862	-164.681	-0.018616	0.529688	-0.657484	-0.658794	-0.090944	34.2565	-0.655493	-4.816448E+8	1.888195E-10	NaN
249	1.000000	0.575031	7.36749e+06	-51089.1	955.818	-29753.7	0.000000	0.000000	6.574980	0.053564	NaN	0.000000	0.001627	0.001613	28.0793	0.068305	0.002020	33.8175	86.5933	-164.488	0.049074	0.573707	-0.613451	-0.614774	0.053564	33.8175	-0.614639	-1.324097E+8	-4.045347E-10	NaN
249	1.000000	0.619051	7.36749e+06	-51089.1	955.818	-29753.7	0.000000	0.000000	6.618997	-0.020314	NaN	0.000000	0.001605	0.001589	28.0792	0.173085	0.001965	88.0974	-101.392	-166.661	-0.022251	0.617761	-0.569430	-0.570721	-0.020314	88.0974	-0.569257	-3.135970E+7	6.477725E-10	NaN
249	1.000000	0.663083	7.36749e+06	-51089.1	955.818	-29753.7	0.000000	0.000000	6.663030	-0.002929	NaN	0.000000	0.001597	0.001563	28.0801	0.027479	0.001874	14.6633	-19.111	-167.049	0.049171	0.661776	-0.525398	-0.526706	-0.002929	14.6633	-0.525249	-7.70133e+06	3.803661E-10	NaN
249	1.000000	0.707113	7.36749e+06	-51089.1	955.819	-29753.7	0.000000	0.000000	6.707058	-0.036137	NaN	0.000000	0.001597	0.001567	28.0799	0.024186	0.002064	11.7159	-30.4992	-165.241	0.033486	0.705738	-0.481369	-0.482744	-0.036137	11.7159	-0.479055	-1.74703e+06	2.068452E-8	NaN
249	1.000000	0.751118	7.36749e+06	-51089.1	955.818	-29753.7	0.000000	0.000000	6.751062	-0.072189	NaN	0.000000	0.001582	0.001622	28.0798	0.046964	0.001995	23.5464	173.393	-163.846	0.012423	0.749816	-0.437364	-0.438665	-0.072189	23.5464	-0.435064	-420401	1.717151E-7	NaN
249	1.000000	0.795095	7.36749e+06	-51089.1	955.819	-29753.7	0.000000	0.000000	6.795040	-0.027939	NaN	0.000000	0.001607	0.001572	28.0787	0.028212	0.001977	14.2673	138.585	-165.388	0.003350	0.793827	-0.393387	-0.394655	-0.027939	14.2673	-0.391918	-102471	2.726539E-7	NaN
249	1.000000	0.839133	7.36749e+06	-51089.1	955.818	-29753.7	0.000000	0.000000	6.839078	-0.027616	NaN	0.000000	0.001613	0.001586	28.0788	0.091618	0.002067	44.331	167.994	-168.344	-0.049230	0.837850	-0.349349	-0.350632	-0.027616	44.331	-0.348882	-24590.7	1.123012E-6	NaN
249	1.000000	0.883155	7.36749e+06	-51089.1	955.819	-29753.7	0.000000	0.000000	6.883098	-0.104722	NaN	0.000000	0.001595	0.001613	28.0787	0.127694	0.001957	65.235	-169.934	-168.309	-0.127303	0.881852	-0.305326	-0.306630	-0.104722	65.235	-0.304122	-5419.07	1.932464E-5	NaN
249	1.000000	0.927164	7.36749e+06	-51089.1	955.819	-29753.7	0.000000	0.000000	6.927109	-0.028927	NaN	0.000000	0.001598	0.001606	28.0802	0.048755	0.001892	25.7656	-144.539	-168.092	-0.088742	0.925885	-0.261318	-0.262597	-0.028927	25.7656	-0.260476	-1191.83	2.427135E-5	NaN
249	1.000000	0.971178	7.36749e+06	-51089.1	955.819	-29753.7	0.000000	0.000000	6.971124	-0.025172	NaN	0.000000	0.001591	0.001619	28.0801	0.043662	0.001901	22.9673	166.022	-162.175	-0.110388	0.969816	-0.217303	-0.218665	-0.025172	22.9673	-0.216482	-243.961	0.000103	NaN
249	1.000000	1.015219	7.36749e+06	-51089.1	955.819	-29753.7	0.000000	0.000000	7.015165	-0.010447	NaN	0.000000	0.001588	0.001622	28.0801	0.166616	0.002028	82.1404	168.527	-166.655	-0.055471	1.013900	-0.173263	-0.174582	-0.010447	82.1404	-0.173168	-46.6052	0.000224	NaN
249	1.000000	1.059198	7.36749e+06	-51089.1	955.819	-29753.7	0.000000	0.000000	7.059142	-0.071531	NaN	0.000000	0.001650	0.001593	28.0789	0.035032	0.002063	16.9827	-37.8487	-163.171	-0.100598	1.057922	-0.129283	-0.130560	-0.071531	16.9827	-0.126124	-6.400233	0.011176	NaN
249	1.000000	1.103249	7.36749e+06	-51089.1	955.82	-29753.7	0.000000	0.000000	7.103203	0.189034	NaN	0.000000	0.001654	0.001573	28.0791	0.102521	0.002061	49.7485	29.2964	-167.812	0.089706	1.101938	-0.085233	-0.086544	0.189034	49.7485	-0.088083	-0.974032	-0.194073	NaN
249	1.000000	1.147267	7.36749e+06	-51089.1	955.821	-29753.7	0.000000	0.000000	7.147229	0.385269	NaN	0.000000	0.001644	0.001589	28.0788	0.363226	0.002016	180.134	38.1056	-167.217	0.381597	1.145945	-0.041215	-0.042537	0.385269	180.134	-0.042819	-0.055118	-6.989928	NaN
249	1.000000	1.191270	7.36749e+06	-51089.1	955.821	-29753.7	0.000000	0.000000	7.191288	1.732154	NaN	0.000000	0.001636	0.001600	28.08	1.938219	0.001926	1006.36	26.6751	-168.878	1.530433	1.189969	0.002788	0.001487	1.732154	1006.36	0.001497	0.001152	1503.32	27086.7
249	2.000000	1.213722	7.36749e+06	-51089.1	955.821	-29753.7	0.000000	0.000000	7.214337	16.2513	NaN	0.000000	0.001603	0.001670	28.0803	15.8108	0.001790	8831.35	9.032675	-174.918	16.2195	1.213444	0.025241	0.024962	16.2513	8831.35	0.023861	0.028975	560.87	47401
249	2.000000	1.224702	7.36749e+06	-51089.1	955.82	-29753.7	0.000000	0.000000	7.226385	42.2073	NaN	0.000000	0.001586	0.001668	28.0804	27.9584	0.001777	15730.4	7.185502	-179.235	41.4347	1.224343	0.036221	0.035861	42.2073	15730.4	0.034208	0.049919	845.524	64325.5
249	2.000000	1.235649	7.36749e+06	-51089.1	955.82	-29753.7	0.000000	0.000000	7.238380	67.7124	NaN	0.000000	0.001577	0.001664	28.0791	40.5815	0.001790	22666.1	7.045183	176.861	67.6635	1.235382	0.047167	0.046901	67.7124	22666.1	0.044926	0.077378	875.081	74445.7
249	2.000000	1.246581	7.36749e+06	-51089.1	955.822	-29753.7	0.000000	0.000000	7.251108	111.38	NaN	0.000000	0.001610	0.001677	28.079	50.9436	0.001817	28036.6	7.837647	174.263	109.314	1.246323	0.058099	0.057841	111.38	28036.6	0.055120	0.108892	1022.85	77624.7
249	2.000000	1.257720	7.36749e+06	-51089.1	955.821	-29753.7	0.000000	0.000000	7.264126	157.065	NaN	0.000000	0.001582	0.001659	28.0787	61.0624	0.001844	33118.3	9.265439	170.984	160.419	1.257472	0.069239	0.068991	157.065	33118.3	0.065682	0.146967	1068.71	78928
249	2.000000	1.268540	7.36749e+06	-51089.1	955.82	-29753.7	0.000000	0.000000	7.277442	217.768	NaN	0.000000	0.001578	0.001673	28.0799	72.4592	0.001774	40848.3	7.350387	171.793	213.874	1.268287	0.080059	0.079805	217.768	40848.3	0.076060	0.189611	1148.5	85706.8
249	2.000000	1.279479	7.36749e+06	-51089.1	955.821	-29753.7	0.000000	0.000000	7.291133	284.691	NaN	0.000000	0.001701	0.001654	28.08	81.0042	0.001727	46898.1	5.181981	172.57	277.936	1.279268	0.090997	0.090786	284.691	46898.1	0.086444	0.237340	1199.51	87951.5
249	2.000000	1.290626	7.36749e+06	-51089.1	955.821	-29753.7	0.000000	0.000000	7.305541	364.003	NaN	0.000000	0.001636	0.001635	28.0803	91.4654	0.001744	52439.7	5.402851	171.933	364.348	1.290264	0.102144	0.101783	364.003	52439.7	0.096938	0.290623	1252.49	88872.7
249	2.000000	1.301562	7.36749e+06	-51089.1	955.821	-29753.7	0.000000	0.000000	7.320070	451.377	NaN	0.000000	0.001647	0.001620	28.0787	103.594	0.001745	59376.7	3.731038	172.857	447.996	1.301191	0.113080	0.112710	451.377	59376.7	0.107378	0.348618	1294.76	91878.6
249	2.000000	1.305073	7.36749e+06	-51089.1	955.821	-29753.7	0.000000	0.000000	7.324698	478.51	NaN	0.000000	0.001610	0.001634	28.0788	109.02	0.001746	62427.8	7.639556	-11.752	473.813	1.304776	0.116592	0.116294	478.51	62427.8	0.110843	0.368954	1296.94	93899.9

File: 2025-07-22_16-23-58_1_250.txt
2025-07-22, 16:23:58, 1
Index	Phase	Displacement	Time	Pos X	Pos Y	Pos Z	Rot A	Rot B	Piezo Z	Force A	Force B	Gripper	Voltage A	Voltage B	Temperature	Amplitude force	Amplitude pos	Stiffness	Phase shift	Phase excitation	Force A raw	Displacement raw	HMax	HMax raw	Real Force	Real Stiffness	Contact Depth	Area	Hardness	Reduced Mod.
[#]	[#]	[um]	[s]	[um]	[um]	[um]	[m°]	[m°]	[um]	[uN]	[uN]	[V]	[V]	[V]	[°C]	[uN]	[um]	[N/m]	[°]	[°]	[uN]	[um]	[um]	[um]	[uN]	[N/m]	[um]	[um^2]	[MPa]	[MPa]
250	1.000000	0.002199	7.36749e+06	-51139.1	955.819	-29753.6	0.000000	0.000000	6.002758	-0.015152	NaN	0.000000	0.001698	0.001651	28.0798	0.120379	0.000820	146.825	148.316	-162.553	-0.039076	0.000988	-1.114676	-1.115887	-0.015152	146.825	-1.114599	-7.870427E+14	1.925171E-17	NaN
250	1.000000	0.044184	7.36749e+06	-51139.1	955.818	-29753.6	0.000000	0.000000	6.044747	0.063352	NaN	0.000000	0.001655	0.001661	28.0797	0.025927	0.001939	13.3687	154.799	15.5759	0.046560	0.042858	-1.072691	-1.074017	0.063352	13.3687	-1.076245	-2.404795E+14	-2.634404E-16	NaN
250	1.000000	0.086209	7.36749e+06	-51139.1	955.818	-29753.6	0.000000	0.000000	6.086769	-0.003928	NaN	0.000000	0.001673	0.001653	28.0799	0.029753	0.002024	14.7006	-140.196	-166.604	0.014138	0.084886	-1.030666	-1.031988	-0.003928	14.7006	-1.030465	-5.830917E+13	6.736396E-17	NaN
250	1.000000	0.128244	7.36749e+06	-51139.1	955.819	-29753.6	0.000000	0.000000	6.128804	-0.001570	NaN	0.000000	0.001692	0.001670	28.0789	0.054154	0.001855	29.1874	-136.413	15.4134	-0.025457	0.126889	-0.988631	-0.989986	-0.001570	29.1874	-0.988590	-1.592669E+13	9.857346E-17	NaN
250	1.000000	0.170227	7.36749e+06	-51139.1	955.818	-29753.6	0.000000	0.000000	6.170786	-0.020920	NaN	0.000000	0.001600	0.001662	28.0787	0.128029	0.002153	59.4525	-157.039	-163.598	0.012742	0.168942	-0.946648	-0.947932	-0.020920	59.4525	-0.946384	-4.297943E+12	4.867524E-15	NaN
250	1.000000	0.212268	7.36749e+06	-51139.1	955.818	-29753.6	0.000000	0.000000	6.212828	-0.004904	NaN	0.000000	0.001705	0.001638	28.0786	0.047877	0.002108	22.7163	-138.299	16.4472	-0.053612	0.210934	-0.904607	-0.905941	-0.004904	22.7163	-0.904445	-1.167146E+12	4.201975E-15	NaN
250	1.000000	0.254290	7.3675e+06	-51139.1	955.818	-29753.6	0.000000	0.000000	6.254850	0.005272	NaN	0.000000	0.001677	0.001649	28.0796	0.098241	0.001997	49.2048	178.093	-165.488	-0.042176	0.252972	-0.862585	-0.863902	0.005272	49.2048	-0.862665	-3.178315E+11	-1.658883E-14	NaN
250	1.000000	0.296281	7.3675e+06	-51139.1	955.819	-29753.6	0.000000	0.000000	6.296842	0.046484	NaN	0.000000	0.001656	0.001691	28.0799	0.043256	0.002022	21.3954	169.432	13.0295	0.003323	0.294910	-0.820594	-0.821964	0.046484	21.3954	-0.822224	-9.002544E+10	-5.163436E-13	NaN
250	1.000000	0.338343	7.3675e+06	-51139.1	955.819	-29753.6	0.000000	0.000000	6.338901	-0.038870	NaN	0.000000	0.001613	0.001686	28.0799	0.049831	0.001993	25.0053	-150.894	-165.164	-0.030537	0.337051	-0.778532	-0.779824	-0.038870	25.0053	-0.777366	-2.215341E+10	1.754605E-12	NaN
250	1.000000	0.380362	7.3675e+06	-51139.1	955.818	-29753.6	0.000000	0.000000	6.380923	0.016136	NaN	0.000000	0.001606	0.001707	28.0787	0.089096	0.001900	46.8859	105.146	14.5372	-0.014492	0.378963	-0.736512	-0.737912	0.016136	46.8859	-0.736770	-6.209598E+9	-2.598611E-12	NaN
250	1.000000	0.422315	7.3675e+06	-51139.1	955.818	-29753.6	0.000000	0.000000	6.422874	-0.035661	NaN	0.000000	0.001596	0.001637	28.0786	0.098512	0.001982	49.6987	137.997	-168.215	0.035818	0.421075	-0.694559	-0.695799	-0.035661	49.6987	-0.694021	-1.621308E+9	2.199512E-11	NaN
250	1.000000	0.464346	7.3675e+06	-51139.1	955.818	-29753.6	0.000000	0.000000	6.464904	-0.039576	NaN	0.000000	0.001546	0.001724	28.0786	0.104250	0.001870	55.7505	-83.7576	14.4975	-0.029719	0.463013	-0.652529	-0.653861	-0.039576	55.7505	-0.651996	-4.313236E+8	9.175407E-11	NaN
250	1.000000	0.506364	7.3675e+06	-51139.1	955.817	-29753.6	0.000000	0.000000	6.506923	-0.040297	NaN	0.000000	0.001550	0.001734	28.0789	0.074895	0.002119	35.3458	-24.2892	-162.582	-0.063632	0.505090	-0.610510	-0.611784	-0.040297	35.3458	-0.609655	-1.130765E+8	3.563694E-10	NaN
250	1.000000	0.548422	7.3675e+06	-51139.1	955.818	-29753.6	0.000000	0.000000	6.548981	-0.038400	NaN	0.000000	0.001593	0.001641	28.08	0.112918	0.001888	59.7932	-1.288948	11.8164	-0.085655	0.547080	-0.568452	-0.569795	-0.038400	59.7932	-0.567971	-3.010158E+7	1.275685E-9	NaN
250	1.000000	0.590425	7.3675e+06	-51139.1	955.819	-29753.6	0.000000	0.000000	6.590982	-0.070654	NaN	0.000000	0.001607	0.001668	28.0801	0.119194	0.002000	59.586	103.45	-162.146	0.007087	0.589087	-0.526450	-0.527788	-0.070654	59.586	-0.525560	-7.77857e+06	9.083139E-9	NaN
250	1.000000	0.632433	7.3675e+06	-51139.1	955.818	-29753.6	0.000000	0.000000	6.632995	0.056257	NaN	0.000000	0.001639	0.001751	28.0799	0.105297	0.001954	53.875	-66.2942	15.6798	0.129286	0.631061	-0.484442	-0.485814	0.056257	53.875	-0.485225	-2.13127e+06	-2.639585E-8	NaN
250	1.000000	0.674461	7.3675e+06	-51139.1	955.818	-29753.6	0.000000	0.000000	6.675024	0.053671	NaN	0.000000	0.001653	0.001658	28.0787	0.137867	0.002228	61.8845	105.348	-163.161	-0.040394	0.673208	-0.442413	-0.443667	0.053671	61.8845	-0.443064	-545246	-9.843528E-8	NaN
250	1.000000	0.716475	7.3675e+06	-51139.1	955.818	-29753.6	0.000000	0.000000	6.717036	0.027913	NaN	0.000000	0.001627	0.001679	28.0786	0.035822	0.001984	18.0584	-47.5404	15.0435	0.031546	0.715090	-0.400399	-0.401785	0.027913	18.0584	-0.401559	-140676	-1.984200E-7	NaN
250	1.000000	0.758505	7.3675e+06	-51139.1	955.817	-29753.6	0.000000	0.000000	6.759066	0.016937	NaN	0.000000	0.001655	0.001692	28.0785	0.131168	0.002070	63.3643	-113.014	-163.258	0.120659	0.757222	-0.358370	-0.359652	0.016937	63.3643	-0.358570	-33976.1	-4.984867E-7	NaN
250	1.000000	0.800490	7.3675e+06	-51139.1	955.818	-29753.6	0.000000	0.000000	6.801050	-0.001748	NaN	0.000000	0.001591	0.001696	28.0795	0.118389	0.002069	57.2208	14.2567	12.7749	-0.046765	0.799138	-0.316385	-0.317737	-0.001748	57.2208	-0.316362	-8223.25	2.125650E-7	NaN
250	1.000000	0.842555	7.3675e+06	-51139.1	955.818	-29753.6	0.000000	0.000000	6.843115	-0.014569	NaN	0.000000	0.001558	0.001664	28.0797	0.082991	0.002135	38.8715	103.351	-165.519	0.057466	0.841209	-0.274320	-0.275666	-0.014569	38.8715	-0.274039	-1917.95	7.596242E-6	NaN
250	1.000000	0.884538	7.3675e+06	-51139.1	955.818	-29753.6	0.000000	0.000000	6.885097	-0.011296	NaN	0.000000	0.001583	0.001688	28.0799	0.080405	0.001932	41.6112	118.494	16.4691	-0.036597	0.883184	-0.232337	-0.233691	-0.011296	41.6112	-0.232133	-432.676	2.610699E-5	NaN
250	1.000000	0.926563	7.3675e+06	-51139.1	955.817	-29753.6	0.000000	0.000000	6.927122	-0.016493	NaN	0.000000	0.001610	0.001662	28.0786	0.024351	0.001991	12.2304	-114.764	-162.708	-0.026277	0.925233	-0.190312	-0.191642	-0.016493	12.2304	-0.189301	-87.567	0.000188	NaN
250	1.000000	0.968576	7.3675e+06	-51139.1	955.819	-29753.6	0.000000	0.000000	6.969138	0.042335	NaN	0.000000	0.001616	0.001705	28.0787	0.152220	0.001922	79.2082	7.743571	9.809290	0.070030	0.967240	-0.148299	-0.149634	0.042335	79.2082	-0.148700	-17.1494	-0.002469	NaN
250	1.000000	1.010569	7.3675e+06	-51139.1	955.818	-29753.6	0.000000	0.000000	7.011130	0.026535	NaN	0.000000	0.001584	0.001687	28.0787	0.098410	0.001999	49.2357	175.303	-166.201	-0.014347	1.009276	-0.106306	-0.107599	0.026535	49.2357	-0.106710	-2.558308	-0.010372	NaN
250	1.000000	1.052599	7.3675e+06	-51139.1	955.818	-29753.6	0.000000	0.000000	7.053158	-0.014461	NaN	0.000000	0.001604	0.001678	28.0789	0.043577	0.001959	22.2462	31.5774	12.3266	0.057185	1.051257	-0.064276	-0.065618	-0.014461	22.2462	-0.063789	-0.230586	0.062714	NaN
250	1.000000	1.094615	7.3675e+06	-51139.1	955.82	-29753.6	0.000000	0.000000	7.095175	-0.000912	NaN	0.000000	0.001592	0.001651	28.08	0.088404	0.001982	44.5989	82.3171	-164.306	-0.057322	1.093309	-0.022260	-0.023565	-0.000912	44.5989	-0.022245	-0.014325	0.063682	NaN
250	2.000000	1.127718	7.3675e+06	-51139.1	955.82	-29753.6	0.000000	0.000000	7.128762	11.7824	NaN	0.000000	0.001564	0.001642	28.0804	12.1457	0.001758	6909.83	6.162315	8.066558	10.8699	1.127346	0.010843	0.010472	11.7824	6909.83	0.009564	0.008701	1354.13	67679
250	2.000000	1.138138	7.3675e+06	-51139.1	955.819	-29753.6	0.000000	0.000000	7.140117	34.511	NaN	0.000000	0.001575	0.001682	28.0805	23.6996	0.001691	14018.6	2.275135	-172.715	34.1183	1.137826	0.021263	0.020951	34.511	14018.6	0.019417	0.021634	1595.23	87078.2
250	2.000000	1.148587	7.3675e+06	-51139.1	955.819	-29753.6	0.000000	0.000000	7.151768	63.7362	NaN	0.000000	0.001584	0.001686	28.079	34.1924	0.001742	19630.1	6.003194	-1.883291	61.2726	1.148214	0.031712	0.031340	63.7362	19630.1	0.029277	0.039258	1623.52	90517.4
250	2.000000	1.159071	7.3675e+06	-51139.1	955.819	-29753.6	0.000000	0.000000	7.163743	100.009	NaN	0.000000	0.001582	0.001661	28.079	43.954	0.001766	24885.4	1.693629	-179.447	97.2683	1.158739	0.042196	0.041864	100.009	24885.4	0.039182	0.061931	1614.84	91361.5
250	2.000000	1.169573	7.3675e+06	-51139.1	955.818	-29753.6	0.000000	0.000000	7.176407	152.551	NaN	0.000000	0.001645	0.001708	28.0789	54.9048	0.001703	32249.5	7.831981	-7.044638	150.883	1.169157	0.052699	0.052282	152.551	32249.5	0.049151	0.089806	1698.67	98320.2
250	2.000000	1.180094	7.3675e+06	-51139.1	955.819	-29753.6	0.000000	0.000000	7.188944	201.588	NaN	0.000000	0.001664	0.001692	28.0805	65.385	0.001834	35646.8	3.698481	176.79	198.6	1.179730	0.063219	0.062855	201.588	35646.8	0.058978	0.122168	1650.09	93178.5
250	2.000000	1.190476	7.3675e+06	-51139.1	955.821	-29753.6	0.000000	0.000000	7.201806	261.873	NaN	0.000000	0.001562	0.001686	28.0799	75.7877	0.001792	42303.3	6.450343	-8.169538	254.843	1.190129	0.073602	0.073254	261.873	42303.3	0.068959	0.159878	1637.95	96661.5
250	2.000000	1.201013	7.3675e+06	-51139.1	955.819	-29753.6	0.000000	0.000000	7.215319	334.262	NaN	0.000000	0.001585	0.001674	28.0799	87.1032	0.001798	48453.2	4.388774	173.844	330.688	1.200664	0.084138	0.083789	334.262	48453.2	0.078964	0.202453	1651.06	98386
250	2.000000	1.211503	7.3675e+06	-51139.1	955.82	-29753.6	0.000000	0.000000	7.228490	399.46	NaN	0.000000	0.001578	0.001679	28.079	96.9122	0.001881	51514.4	2.529811	-5.473396	395.16	1.211322	0.094628	0.094447	399.46	51514.4	0.088813	0.248924	1604.75	94334.1
250	2.000000	1.222024	7.3675e+06	-51139.1	955.82	-29753.6	0.000000	0.000000	7.243391	505.97	NaN	0.000000	0.001559	0.001690	28.0787	106.926	0.001678	63729.9	4.844435	171.571	504.985	1.221561	0.105149	0.104686	505.97	63729.9	0.099194	0.302738	1671.32	105824
250	2.000000	1.222997	7.3675e+06	-51139.1	955.82	-29753.6	0.000000	0.000000	7.244099	499.523	NaN	0.000000	0.001567	0.001658	28.0787	107.791	0.001835	58736.8	3.441757	172.998	496.147	1.222756	0.106122	0.105882	499.523	58736.8	0.099744	0.305723	1633.91	97055.4