Folder: unikorn_login/remote_trans/data/nanoindenter/0828-1/data/Data_2025-08-06,11h17m57s (part 2)

File: 2025-07-22_16-23-58_1_1.txt
2025-07-22, 16:23:58, 1
Index	Phase	Displacement	Time	Pos X	Pos Y	Pos Z	Rot A	Rot B	Piezo Z	Force A	Force B	Gripper	Voltage A	Voltage B	Temperature	Amplitude force	Amplitude pos	Stiffness	Phase shift	Phase excitation	Force A raw	Displacement raw	HMax	HMax raw	Real Force	Real Stiffness	Contact Depth	Area	Hardness	Reduced Mod.
[#]	[#]	[um]	[s]	[um]	[um]	[um]	[m°]	[m°]	[um]	[uN]	[uN]	[V]	[V]	[V]	[°C]	[uN]	[um]	[N/m]	[°]	[°]	[uN]	[um]	[um]	[um]	[uN]	[N/m]	[um]	[um^2]	[MPa]	[MPa]
1.000000	1.000000	0.003249	7.36505e+06	-38689.1	955.818	-29796.6	0.000000	0.000000	6.002818	0.033672	NaN	0.000000	0.001597	0.001638	28.0894	0.087608	0.000988	88.6332	-70.7916	-163.117	0.142593	0.001984	-1.680711	-1.681975	0.033672	88.6332	-1.680996	-2.844153E+22	-1.183892E-24	NaN
1.000000	1.000000	0.063210	7.36505e+06	-38689.1	955.818	-29796.6	0.000000	0.000000	6.062779	0.036701	NaN	0.000000	0.001567	0.001671	28.1048	0.040947	0.001939	21.118	55.4839	-162.928	-0.013224	0.061896	-1.620750	-1.622064	0.036701	21.118	-1.622053	-4.682712E+21	-7.837600E-24	NaN
1.000000	1.000000	0.123228	7.36505e+06	-38689.1	955.817	-29796.6	0.000000	0.000000	6.122798	0.062632	NaN	0.000000	0.001614	0.001668	28.0885	0.044657	0.002008	22.2387	93.6719	-166.633	0.007220	0.121898	-1.560731	-1.562061	0.062632	22.2387	-1.562844	-7.636903E+20	-8.201188E-23	NaN
1.000000	1.000000	0.183267	7.36505e+06	-38689.1	955.818	-29796.6	0.000000	0.000000	6.182836	0.033107	NaN	0.000000	0.001722	0.001657	28.1043	0.057196	0.001933	29.588	163.066	-165.72	0.020385	0.181949	-1.500693	-1.502010	0.033107	29.588	-1.501532	-1.166050E+20	-2.839249E-22	NaN
1.000000	1.000000	0.243260	7.36505e+06	-38689.1	955.818	-29796.6	0.000000	0.000000	6.242828	0.021936	NaN	0.000000	0.001633	0.001645	28.0874	0.040815	0.001843	22.1508	-94.7718	-164.032	0.045341	0.241938	-1.440700	-1.442021	0.021936	22.1508	-1.441443	-1.845372E+19	-1.188680E-21	NaN
1.000000	1.000000	0.303292	7.36505e+06	-38689.1	955.818	-29796.6	0.000000	0.000000	6.302860	0.023457	NaN	0.000000	0.001571	0.001672	28.1064	0.049862	0.001949	25.5882	70.0192	-163.248	-0.001857	0.301948	-1.380668	-1.382011	0.023457	25.5882	-1.381355	-2.915569E+18	-8.045500E-21	NaN
1.000000	1.000000	0.363330	7.36505e+06	-38689.1	955.819	-29796.6	0.000000	0.000000	6.362899	0.040004	NaN	0.000000	0.001612	0.001660	28.0886	0.058476	0.001942	30.1187	6.665916	-165.864	0.114416	0.362000	-1.320630	-1.321960	0.040004	30.1187	-1.321626	-4.648592E+17	-8.605699E-20	NaN
1.000000	1.000000	0.423363	7.36505e+06	-38689.1	955.819	-29796.6	0.000000	0.000000	6.422932	0.050420	NaN	0.000000	0.001642	0.001664	28.1052	0.111884	0.001989	56.2542	52.183	-163.027	0.107396	0.422070	-1.260597	-1.261890	0.050420	56.2542	-1.261269	-7.255059E+16	-6.949633E-19	NaN
1.000000	1.000000	0.483371	7.36505e+06	-38689.1	955.818	-29796.6	0.000000	0.000000	6.482943	0.097466	NaN	0.000000	0.001577	0.001667	28.0876	0.093094	0.002090	44.5332	-11.1033	-163.721	0.067714	0.482057	-1.200588	-1.201902	0.097466	44.5332	-1.202230	-1.176543E+16	-8.284134E-18	NaN
1.000000	1.000000	0.543424	7.36505e+06	-38689.1	955.818	-29796.6	0.000000	0.000000	6.542994	0.059629	NaN	0.000000	0.001599	0.001650	28.1081	0.153083	0.001972	77.6247	-120.667	-160.254	0.062849	0.542103	-1.140536	-1.141856	0.059629	77.6247	-1.141112	-1.785037E+15	-3.340486E-17	NaN
1.000000	1.000000	0.603444	7.36505e+06	-38689.1	955.818	-29796.6	0.000000	0.000000	6.603011	0.002090	NaN	0.000000	0.001594	0.001669	28.086	0.123587	0.002003	61.7052	12.6256	-167.533	0.060349	0.602142	-1.080516	-1.081818	0.002090	61.7052	-1.080541	-2.746543E+14	-7.608397E-18	NaN
1.000000	1.000000	0.663453	7.36505e+06	-38689.1	955.817	-29796.6	0.000000	0.000000	6.663021	0.032319	NaN	0.000000	0.001599	0.001703	28.1062	0.032463	0.002154	15.07	118.946	-165.179	0.070658	0.662168	-1.020507	-1.021791	0.032319	15.07	-1.022115	-4.502094E+13	-7.178651E-16	NaN
1.000000	1.000000	0.723508	7.36505e+06	-38689.1	955.819	-29796.6	0.000000	0.000000	6.723077	0.054088	NaN	0.000000	0.001612	0.001694	28.0845	0.095325	0.001881	50.6827	105.281	-165.607	0.022078	0.722140	-0.960452	-0.961820	0.054088	50.6827	-0.961252	-6.819506E+12	-7.931411E-15	NaN
1.000000	1.000000	0.783495	7.36505e+06	-38689.1	955.818	-29796.6	0.000000	0.000000	6.783065	0.075320	NaN	0.000000	0.001607	0.001687	28.1093	0.064308	0.001967	32.695	-84.2275	-165.361	0.012667	0.782194	-0.900465	-0.901765	0.075320	32.695	-0.902193	-1.088167E+12	-6.921689E-14	NaN
1.000000	1.000000	0.843514	7.36505e+06	-38689.1	955.818	-29796.6	0.000000	0.000000	6.843082	0.013317	NaN	0.000000	0.001607	0.001710	28.0874	0.039212	0.002021	19.4014	85.3826	-167.083	0.083077	0.842262	-0.840445	-0.841697	0.013317	19.4014	-0.840960	-1.615477E+11	-8.243420E-14	NaN
1.000000	1.000000	0.903566	7.36505e+06	-38689.1	955.818	-29796.6	0.000000	0.000000	6.903138	0.125645	NaN	0.000000	0.001643	0.001703	28.1079	0.043889	0.002107	20.8347	-122.754	-163.444	0.133759	0.902178	-0.780394	-0.781781	0.125645	20.8347	-0.784917	-2.805686E+10	-4.478228E-12	NaN
1.000000	1.000000	0.963568	7.36505e+06	-38689.1	955.818	-29796.6	0.000000	0.000000	6.963140	0.108433	NaN	0.000000	0.001591	0.001734	28.0838	0.122346	0.002055	59.5416	61.745	-167.063	0.055004	0.962286	-0.720392	-0.721674	0.108433	59.5416	-0.721758	-3.876534E+9	-2.797157E-11	NaN
1.000000	1.000000	1.023595	7.36506e+06	-38689.1	955.819	-29796.6	0.000000	0.000000	7.023164	0.028880	NaN	0.000000	0.001665	0.001677	28.1107	0.087739	0.001986	44.1679	73.301	-166.264	0.057811	1.022313	-0.660364	-0.661646	0.028880	44.1679	-0.660855	-5.703932E+8	-5.063158E-11	NaN
1.000000	1.000000	1.083635	7.36506e+06	-38689.1	955.819	-29796.6	0.000000	0.000000	7.083203	0.008843	NaN	0.000000	0.001685	0.001715	28.0857	0.086036	0.001988	43.2705	39.8655	-164.298	0.054127	1.082288	-0.600324	-0.601672	0.008843	43.2705	-0.600477	-8.453463E+7	-1.046024E-10	NaN
1.000000	1.000000	1.143670	7.36506e+06	-38689.1	955.819	-29796.6	0.000000	0.000000	7.143241	0.090687	NaN	0.000000	0.001603	0.001687	28.1088	0.010321	0.002059	5.011835	-47.5232	-167.583	0.154489	1.142344	-0.540290	-0.541616	0.090687	5.011835	-0.553861	-1.920528E+7	-4.721986E-9	NaN
1.000000	1.000000	1.203678	7.36506e+06	-38689.1	955.82	-29796.6	0.000000	0.000000	7.203250	0.113067	NaN	0.000000	0.001603	0.001684	28.0828	0.003487	0.001989	1.753425	113.697	-164.677	0.153270	1.202330	-0.480281	-0.481630	0.113067	1.753425	-0.528644	-8.58506e+06	-1.317024E-8	NaN
1.000000	1.000000	1.263706	7.36506e+06	-38689.1	955.82	-29796.6	0.000000	0.000000	7.263277	0.063445	NaN	0.000000	0.001635	0.001701	28.1108	0.039850	0.002013	19.7993	-56.2787	-163.244	-0.012708	1.262398	-0.420253	-0.421562	0.063445	19.7993	-0.422656	-280593	-2.261105E-7	NaN
1.000000	1.000000	1.323726	7.36506e+06	-38689.1	955.82	-29796.6	0.000000	0.000000	7.323296	0.067036	NaN	0.000000	0.001629	0.001716	28.0863	0.029006	0.001981	14.6417	158.48	-166.004	0.078166	1.322393	-0.360233	-0.361567	0.067036	14.6417	-0.363667	-40255	-1.665280E-6	NaN
1.000000	1.000000	1.383737	7.36506e+06	-38689.1	955.82	-29796.6	0.000000	0.000000	7.383306	0.031750	NaN	0.000000	0.001637	0.001675	28.1119	0.100792	0.002022	49.8424	84.7753	-167.164	0.040036	1.382385	-0.300222	-0.301575	0.031750	49.8424	-0.300700	-4820.1	-6.587078E-6	NaN
1.000000	1.000000	1.443756	7.36506e+06	-38689.1	955.821	-29796.6	0.000000	0.000000	7.443327	0.100597	NaN	0.000000	0.001616	0.001655	28.0831	0.008265	0.002102	3.931690	69.0153	-163.729	0.122611	1.442488	-0.240204	-0.241472	0.100597	3.931690	-0.259394	-1147.15	-8.769260E-5	NaN
1.000000	1.000000	1.503807	7.36506e+06	-38689.1	955.821	-29796.6	0.000000	0.000000	7.503378	0.091239	NaN	0.000000	0.001573	0.001666	28.1116	0.110069	0.001970	55.8593	93.4325	-169.574	0.073132	1.502477	-0.180153	-0.181483	0.091239	55.8593	-0.181378	-64.3993	-0.001417	NaN
1.000000	1.000000	1.563857	7.36506e+06	-38689.1	955.821	-29796.6	0.000000	0.000000	7.563427	0.065699	NaN	0.000000	0.001608	0.001684	28.0854	0.047484	0.002000	23.7375	145.262	-167.949	0.069181	1.562550	-0.120103	-0.121409	0.065699	23.7375	-0.122179	-5.343913	-0.012294	NaN
1.000000	1.000000	1.623863	7.36506e+06	-38689.1	955.822	-29796.6	0.000000	0.000000	7.623437	0.160802	NaN	0.000000	0.001608	0.001647	28.1123	0.028103	0.001917	14.6588	-88.3102	-164.254	0.193729	1.622562	-0.060097	-0.061397	0.160802	14.6588	-0.068324	-0.307417	-0.523074	NaN
1.000000	1.000000	1.683904	7.36506e+06	-38689.1	955.822	-29796.6	0.000000	0.000000	7.683475	0.082784	NaN	0.000000	0.001652	0.001647	28.0823	0.050328	0.001879	26.7905	40.0573	-161.928	0.052979	1.682608	-5.542863E-5	-0.001352	0.082784	26.7905	-0.002373	-0.001696	-48.8056	NaN
1.000000	2.000000	1.740568	7.36506e+06	-38689.1	955.822	-29796.6	0.000000	0.000000	7.740478	8.337899	NaN	0.000000	0.001634	0.001647	28.1125	5.210955	0.001789	2912.17	15.973	-169.336	8.290912	1.740235	0.056608	0.056275	8.337899	2912.17	0.054461	0.106698	78.1449	8145.39
1.000000	2.000000	1.755413	7.36506e+06	-38689.1	955.823	-29796.6	0.000000	0.000000	7.755513	12.9729	NaN	0.000000	0.001596	0.001670	28.0828	10.0506	0.002014	4990.62	18.1929	-173.799	12.8	1.755057	0.071453	0.071098	12.9729	4990.62	0.069503	0.162074	80.0428	11325.9
1.000000	2.000000	1.770378	7.36506e+06	-38689.1	955.824	-29796.6	0.000000	0.000000	7.770887	22.918	NaN	0.000000	0.001603	0.001663	28.1144	16.5909	0.001803	9201.91	9.496987	-173.588	22.6265	1.770042	0.086418	0.086082	22.918	9201.91	0.084550	0.228262	100.402	17596.8
1.000000	2.000000	1.785398	7.36506e+06	-38689.1	955.824	-29796.6	0.000000	0.000000	7.787231	55.1237	NaN	0.000000	0.001636	0.001644	28.0833	29.2089	0.001758	16612	5.748186	-178.033	55.3322	1.785003	0.101439	0.101043	55.1237	16612	0.098950	0.301414	182.884	27644.7
1.000000	2.000000	1.800310	7.36506e+06	-38689.1	955.824	-29796.6	0.000000	0.000000	7.805030	125.379	NaN	0.000000	0.001686	0.001623	28.1144	41.913	0.001802	23265	5.740786	177.614	123.672	1.800025	0.116351	0.116065	125.379	23265	0.112309	0.377725	331.932	34585
1.000000	2.000000	1.815293	7.36506e+06	-38689.1	955.823	-29796.6	0.000000	0.000000	7.823559	211.678	NaN	0.000000	0.001627	0.001606	28.0827	52.8957	0.001824	28996.8	5.926857	175.516	209.38	1.814991	0.131334	0.131032	211.678	28996.8	0.125859	0.463396	456.798	38917.7
1.000000	2.000000	1.830284	7.36506e+06	-38689.1	955.823	-29796.6	0.000000	0.000000	7.843509	332.365	NaN	0.000000	0.001614	0.001658	28.1157	63.0916	0.001789	35274.9	3.207248	176.498	331.816	1.829971	0.146325	0.146011	332.365	35274.9	0.139258	0.556344	597.409	43208.3
1.000000	2.000000	1.837740	7.36506e+06	-38689.1	955.825	-29796.6	0.000000	0.000000	7.853206	386.917	NaN	0.000000	0.001613	0.001657	28.1226	68.5972	0.001821	37665	3.079735	-3.797717	381.226	1.837340	0.153780	0.153381	386.917	37665	0.146076	0.606807	637.629	44175.9

File: 2025-07-22_16-23-58_1_2.txt
2025-07-22, 16:23:58, 1
Index	Phase	Displacement	Time	Pos X	Pos Y	Pos Z	Rot A	Rot B	Piezo Z	Force A	Force B	Gripper	Voltage A	Voltage B	Temperature	Amplitude force	Amplitude pos	Stiffness	Phase shift	Phase excitation	Force A raw	Displacement raw	HMax	HMax raw	Real Force	Real Stiffness	Contact Depth	Area	Hardness	Reduced Mod.
[#]	[#]	[um]	[s]	[um]	[um]	[um]	[m°]	[m°]	[um]	[uN]	[uN]	[V]	[V]	[V]	[°C]	[uN]	[um]	[N/m]	[°]	[°]	[uN]	[um]	[um]	[um]	[uN]	[N/m]	[um]	[um^2]	[MPa]	[MPa]
2.000000	1.000000	0.002571	7.36506e+06	-38739.1	955.818	-29797.1	0.000000	0.000000	6.002810	0.073798	NaN	0.000000	0.001600	0.001679	28.0836	0.079880	0.000997	80.1084	-56.3197	-165.781	0.050595	0.001336	-1.062628	-1.063863	0.073798	80.1084	-1.063319	-1.612205E+14	-4.577438E-16	NaN
2.000000	1.000000	0.044511	7.36506e+06	-38739.1	955.818	-29797.1	0.000000	0.000000	6.044749	0.043328	NaN	0.000000	0.001586	0.001698	28.1228	0.068738	0.002057	33.4155	-114.113	16.6395	-0.023267	0.043145	-1.020688	-1.022054	0.043328	33.4155	-1.021660	-4.439076E+13	-9.760516E-16	NaN
2.000000	1.000000	0.086496	7.36506e+06	-38739.1	955.818	-29797.1	0.000000	0.000000	6.086732	0.002610	NaN	0.000000	0.001595	0.001660	28.1225	0.023094	0.001955	11.8117	-138.797	-162.527	0.086134	0.085194	-0.978703	-0.980004	0.002610	11.8117	-0.978869	-1.178069E+13	-2.215131E-16	NaN
2.000000	1.000000	0.128525	7.36506e+06	-38739.1	955.819	-29797.1	0.000000	0.000000	6.128766	0.092940	NaN	0.000000	0.001601	0.001615	28.0849	0.058091	0.001992	29.1637	82.4257	16.4082	0.105391	0.127175	-0.936673	-0.938023	0.092940	29.1637	-0.939064	-3.423759E+12	-2.714567E-14	NaN
2.000000	1.000000	0.170588	7.36506e+06	-38739.1	955.817	-29797.1	0.000000	0.000000	6.170828	0.076980	NaN	0.000000	0.001683	0.001604	28.0847	0.035729	0.002019	17.6991	-144.537	-160.764	0.072651	0.169307	-0.894610	-0.895892	0.076980	17.6991	-0.897872	-9.512935E+11	-8.092133E-14	NaN
2.000000	1.000000	0.212613	7.36506e+06	-38739.1	955.818	-29797.1	0.000000	0.000000	6.212850	-0.010578	NaN	0.000000	0.001714	0.001596	28.1232	0.065790	0.001917	34.3278	49.2867	16.6611	0.064454	0.211250	-0.852585	-0.853948	-0.010578	34.3278	-0.852354	-2.304704E+11	4.589559E-14	NaN
2.000000	1.000000	0.254603	7.36506e+06	-38739.1	955.818	-29797.1	0.000000	0.000000	6.254842	0.062690	NaN	0.000000	0.001605	0.001605	28.1216	0.047588	0.002110	22.5496	129.635	-163.95	0.069944	0.253284	-0.810596	-0.811915	0.062690	22.5496	-0.812681	-6.682574E+10	-9.381055E-13	NaN
2.000000	1.000000	0.296631	7.36506e+06	-38739.1	955.818	-29797.1	0.000000	0.000000	6.296870	0.059055	NaN	0.000000	0.001613	0.001632	28.084	0.050787	0.002090	24.2946	-104.484	14.6866	0.040988	0.295273	-0.768568	-0.769926	0.059055	24.2946	-0.770391	-1.780814E+10	-3.316177E-12	NaN
2.000000	1.000000	0.338669	7.36506e+06	-38739.1	955.818	-29797.1	0.000000	0.000000	6.338907	0.035396	NaN	0.000000	0.001616	0.001614	28.0854	0.034400	0.001998	17.221	88.7277	-162.593	-0.002965	0.337283	-0.726530	-0.727916	0.035396	17.221	-0.728071	-4.726273E+9	-7.489162E-12	NaN
2.000000	1.000000	0.380658	7.36506e+06	-38739.1	955.818	-29797.1	0.000000	0.000000	6.380898	0.072468	NaN	0.000000	0.001578	0.001624	28.1218	0.061394	0.001934	31.7389	156.479	18.8944	0.027758	0.379275	-0.684540	-0.685924	0.072468	31.7389	-0.686253	-1.269697E+9	-5.707533E-11	NaN
2.000000	1.000000	0.422705	7.36507e+06	-38739.1	955.818	-29797.1	0.000000	0.000000	6.422946	0.102348	NaN	0.000000	0.001632	0.001639	28.1226	0.045094	0.001966	22.9405	113.975	-162.196	0.058776	0.421409	-0.642494	-0.643789	0.102348	22.9405	-0.645840	-3.551360E+8	-2.881943E-10	NaN
2.000000	1.000000	0.464702	7.36507e+06	-38739.1	955.818	-29797.1	0.000000	0.000000	6.464940	0.051638	NaN	0.000000	0.001625	0.001631	28.0857	0.040306	0.002049	19.6698	133.586	15.3069	-0.003684	0.463263	-0.600497	-0.601935	0.051638	19.6698	-0.602466	-9.003624E+7	-5.735200E-10	NaN
2.000000	1.000000	0.506672	7.36507e+06	-38739.1	955.819	-29797.1	0.000000	0.000000	6.506909	0.005034	NaN	0.000000	0.001611	0.001654	28.0836	0.070573	0.001988	35.4929	41.9748	-168.252	-0.064311	0.505417	-0.558527	-0.559781	0.005034	35.4929	-0.558633	-2.235965E+7	-2.251209E-10	NaN
2.000000	1.000000	0.548732	7.36507e+06	-38739.1	955.819	-29797.1	0.000000	0.000000	6.548970	0.039066	NaN	0.000000	0.001643	0.001610	28.1203	0.015459	0.001998	7.738689	-2.098761	15.3407	0.014421	0.547379	-0.516467	-0.517819	0.039066	7.738689	-0.520253	-6.56328e+06	-5.952229E-9	NaN
2.000000	1.000000	0.590745	7.36507e+06	-38739.1	955.818	-29797.1	0.000000	0.000000	6.590980	-0.045919	NaN	0.000000	0.001623	0.001655	28.1229	0.049409	0.002147	23.0093	35.3168	-166.8	0.055235	0.589511	-0.474454	-0.475688	-0.045919	23.0093	-0.472957	-1.43506e+06	3.199788E-8	NaN
2.000000	1.000000	0.632764	7.36507e+06	-38739.1	955.818	-29797.1	0.000000	0.000000	6.633002	0.030063	NaN	0.000000	0.001629	0.001649	28.0887	0.085475	0.002015	42.4092	55.2845	16.5793	0.014487	0.631388	-0.432435	-0.433810	0.030063	42.4092	-0.432967	-392660	-7.656240E-8	NaN
2.000000	1.000000	0.674803	7.36507e+06	-38739.1	955.818	-29797.1	0.000000	0.000000	6.675042	0.054247	NaN	0.000000	0.001614	0.001631	28.0847	0.035469	0.002007	17.6747	113.763	-165.139	0.133796	0.673453	-0.390396	-0.391745	0.054247	17.6747	-0.392698	-105134	-5.159835E-7	NaN
2.000000	1.000000	0.716808	7.36507e+06	-38739.1	955.818	-29797.1	0.000000	0.000000	6.717046	0.034278	NaN	0.000000	0.001606	0.001677	28.1205	0.004895	0.001923	2.545443	-124.487	14.6115	0.052847	0.715487	-0.348390	-0.349711	0.034278	2.545443	-0.358490	-33885.5	-1.011592E-6	NaN
2.000000	1.000000	0.758834	7.36507e+06	-38739.1	955.818	-29797.1	0.000000	0.000000	6.759073	0.057527	NaN	0.000000	0.001645	0.001724	28.1259	0.014478	0.002034	7.117311	94.2352	-163.696	0.044540	0.757490	-0.306365	-0.307708	0.057527	7.117311	-0.312427	-7193.57	-7.997013E-6	NaN
2.000000	1.000000	0.800861	7.36507e+06	-38739.1	955.818	-29797.2	0.000000	0.000000	6.801099	0.049563	NaN	0.000000	0.001616	0.001671	28.0859	0.054772	0.002030	26.9827	138.175	20.938	-0.006463	0.799504	-0.264338	-0.265695	0.049563	26.9827	-0.265716	-1433.2	-3.458213E-5	NaN
2.000000	1.000000	0.842854	7.36507e+06	-38739.1	955.818	-29797.2	0.000000	0.000000	6.843093	0.056027	NaN	0.000000	0.001653	0.001641	28.084	0.033449	0.001997	16.7487	-43.947	-165.084	0.001260	0.841566	-0.222344	-0.223633	0.056027	16.7487	-0.224853	-331.896	-0.000169	NaN
2.000000	1.000000	0.884886	7.36507e+06	-38739.1	955.819	-29797.2	0.000000	0.000000	6.885126	0.085619	NaN	0.000000	0.001681	0.001667	28.1174	0.124919	0.001868	66.8565	-26.8234	15.8899	0.071403	0.883534	-0.180313	-0.181664	0.085619	66.8565	-0.181273	-64.1356	-0.001335	NaN
2.000000	1.000000	0.926906	7.36507e+06	-38739.1	955.818	-29797.2	0.000000	0.000000	6.927144	0.018320	NaN	0.000000	0.001712	0.001652	28.1275	0.087073	0.001934	45.0158	81.712	-166.368	-0.003210	0.925577	-0.138293	-0.139622	0.018320	45.0158	-0.138598	-11.1319	-0.001646	NaN
2.000000	1.000000	0.968906	7.36507e+06	-38739.1	955.818	-29797.2	0.000000	0.000000	6.969143	0.026497	NaN	0.000000	0.001652	0.001730	28.0868	0.081959	0.002067	39.6603	178.077	17.0068	0.039054	0.967540	-0.096293	-0.097659	0.026497	39.6603	-0.096794	-1.549138	-0.017104	NaN
2.000000	1.000000	1.010937	7.36507e+06	-38739.1	955.818	-29797.2	0.000000	0.000000	7.011175	0.038011	NaN	0.000000	0.001614	0.001661	28.0867	0.030807	0.001950	15.8023	-34.6328	-163.333	0.114853	1.009577	-0.054262	-0.055622	0.038011	15.8023	-0.056066	-0.138438	-0.274570	NaN
2.000000	1.000000	1.052954	7.36507e+06	-38739.1	955.818	-29797.2	0.000000	0.000000	7.053202	0.281314	NaN	0.000000	0.001614	0.001667	28.1161	0.183289	0.002005	91.3955	42.6941	13.8007	0.273509	1.051558	-0.012245	-0.013640	0.281314	91.3955	-0.014554	-0.009009	-31.2244	NaN
2.000000	2.000000	1.079459	7.36507e+06	-38739.1	955.817	-29797.2	0.000000	0.000000	7.080389	16.8783	NaN	0.000000	0.001673	0.001696	28.1277	13.6908	0.001735	7891.17	7.498252	-176.354	16.9575	1.079200	0.014260	0.014001	16.8783	7891.17	0.012656	0.012286	1373.81	65045
2.000000	2.000000	1.089903	7.36507e+06	-38739.1	955.818	-29797.2	0.000000	0.000000	7.091820	40.8962	NaN	0.000000	0.001712	0.001656	28.0854	23.115	0.001879	12301.2	8.182922	-0.181430	39.7733	1.089563	0.024705	0.024364	40.8962	12301.2	0.022211	0.026137	1564.71	69518
2.000000	2.000000	1.100412	7.36507e+06	-38739.1	955.818	-29797.2	0.000000	0.000000	7.103580	71.3221	NaN	0.000000	0.001664	0.001645	28.0848	31.2826	0.001828	17113	3.646573	-177.614	71.0046	1.100022	0.035214	0.034824	71.3221	17113	0.032088	0.045182	1578.54	73555.2
2.000000	2.000000	1.110787	7.36507e+06	-38739.1	955.818	-29797.2	0.000000	0.000000	7.115746	114.912	NaN	0.000000	0.001643	0.001688	28.1171	40.4692	0.001696	23855	4.875373	-2.424253	111.63	1.110445	0.045589	0.045247	114.912	23855	0.041976	0.069234	1659.75	82830.7
2.000000	2.000000	1.121358	7.36507e+06	-38739.1	955.817	-29797.2	0.000000	0.000000	7.128352	164.442	NaN	0.000000	0.001624	0.001692	28.1282	50.3251	0.001828	27537	5.466053	176.27	164.252	1.120988	0.056159	0.055790	164.442	27537	0.051681	0.097679	1683.5	80499.1
2.000000	2.000000	1.131757	7.36507e+06	-38739.1	955.818	-29797.2	0.000000	0.000000	7.141289	226.215	NaN	0.000000	0.001657	0.001671	28.0891	59.5093	0.001847	32218.4	2.400523	-1.497370	221.485	1.131504	0.066558	0.066306	226.215	32218.4	0.061292	0.130483	1733.67	81489.1
2.000000	2.000000	1.142311	7.36507e+06	-38739.1	955.817	-29797.2	0.000000	0.000000	7.154712	296.026	NaN	0.000000	0.001655	0.001665	28.0842	70.4676	0.001779	39607.7	7.363191	171.677	293.788	1.141988	0.077112	0.076790	296.026	39607.7	0.071506	0.170270	1738.57	87696.8
2.000000	2.000000	1.152769	7.36507e+06	-38739.1	955.818	-29797.2	0.000000	0.000000	7.168133	368.13	NaN	0.000000	0.001677	0.001704	28.1141	79.2932	0.001633	48556.1	1.419482	-4.554941	363.757	1.152540	0.087570	0.087341	368.13	48556.1	0.081884	0.215763	1706.17	95505.5
2.000000	2.000000	1.163149	7.36507e+06	-38739.1	955.818	-29797.2	0.000000	0.000000	7.182308	460.504	NaN	0.000000	0.001658	0.001674	28.1269	89.3542	0.001836	48674.9	5.332455	172.217	454.175	1.162978	0.097950	0.097779	460.504	48674.9	0.090854	0.259119	1777.19	87363.3
2.000000	2.000000	1.172793	7.36507e+06	-38739.1	955.819	-29797.2	0.000000	0.000000	7.195266	541.121	NaN	0.000000	0.001619	0.001692	28.115	98.0516	0.001859	52731.8	1.237081	-4.361346	539.112	1.172503	0.107595	0.107305	541.121	52731.8	0.099898	0.306565	1765.11	87013.1