Folder: unikorn_login/remote_trans/data/nanoindenter/0828-1/data/Data_2025-08-06,11h17m57s (part 104)

File: 2025-07-22_16-23-58_1_225.txt
2025-07-22, 16:23:58, 1
Index	Phase	Displacement	Time	Pos X	Pos Y	Pos Z	Rot A	Rot B	Piezo Z	Force A	Force B	Gripper	Voltage A	Voltage B	Temperature	Amplitude force	Amplitude pos	Stiffness	Phase shift	Phase excitation	Force A raw	Displacement raw	HMax	HMax raw	Real Force	Real Stiffness	Contact Depth	Area	Hardness	Reduced Mod.
[#]	[#]	[um]	[s]	[um]	[um]	[um]	[m°]	[m°]	[um]	[uN]	[uN]	[V]	[V]	[V]	[°C]	[uN]	[um]	[N/m]	[°]	[°]	[uN]	[um]	[um]	[um]	[uN]	[N/m]	[um]	[um^2]	[MPa]	[MPa]
225	1.000000	0.003019	7.36724e+06	-49889.1	955.819	-29757.2	0.000000	0.000000	6.002811	0.030242	NaN	0.000000	0.001580	0.001673	28.0773	0.038594	0.000883	43.7319	-34.3638	-160.948	0.014048	0.001734	-1.705674	-1.706958	0.030242	43.7319	-1.706192	-6.147448E+22	-4.919496E-25	NaN
225	1.000000	0.060989	7.36724e+06	-49889.1	955.819	-29757.2	0.000000	0.000000	6.060779	-0.014796	NaN	0.000000	0.001612	0.001709	28.0777	0.105218	0.001978	53.186	-32.004	17.0086	-0.054859	0.059601	-1.647703	-1.649092	-0.014796	53.186	-1.647494	-1.020293E+22	1.450169E-24	NaN
225	1.000000	0.118983	7.36724e+06	-49889.1	955.819	-29757.2	0.000000	0.000000	6.118772	-0.035425	NaN	0.000000	0.001606	0.001711	28.0778	0.025086	0.001953	12.8429	-89.5654	-163.655	0.038935	0.117674	-1.589710	-1.591019	-0.035425	12.8429	-1.587641	-1.632420E+21	2.170114E-23	NaN
225	1.000000	0.176979	7.36724e+06	-49889.1	955.819	-29757.2	0.000000	0.000000	6.176770	-0.002007	NaN	0.000000	0.001580	0.001706	28.0762	0.076150	0.002009	37.904	42.0799	11.4912	-0.059253	0.175652	-1.531713	-1.533040	-0.002007	37.904	-1.531673	-2.938017E+20	6.831384E-24	NaN
225	1.000000	0.235016	7.36725e+06	-49889.1	955.818	-29757.2	0.000000	0.000000	6.234803	-0.078067	NaN	0.000000	0.001605	0.001708	28.0762	0.023471	0.002070	11.3373	72.2377	-167.341	-0.075395	0.233717	-1.473677	-1.474976	-0.078067	11.3373	-1.468512	-4.234999E+19	1.843373E-21	NaN
225	1.000000	0.293084	7.36725e+06	-49889.1	955.818	-29757.2	0.000000	0.000000	6.292870	-0.108467	NaN	0.000000	0.001585	0.001721	28.0776	0.151727	0.001910	79.4247	32.6064	13.8392	-0.132870	0.291719	-1.415608	-1.416973	-0.108467	79.4247	-1.414584	-8.090539E+18	1.340662E-20	NaN
225	1.000000	0.351105	7.36725e+06	-49889.1	955.818	-29757.2	0.000000	0.000000	6.350894	-0.047262	NaN	0.000000	0.001591	0.001692	28.0781	0.142411	0.002012	70.7902	-43.8043	-163.1	-0.022465	0.349728	-1.357587	-1.358964	-0.047262	70.7902	-1.357086	-1.383031E+18	3.417264E-20	NaN
225	1.000000	0.409115	7.36725e+06	-49889.1	955.818	-29757.2	0.000000	0.000000	6.408902	-0.077333	NaN	0.000000	0.001585	0.001721	28.0763	0.046868	0.002007	23.3543	168.282	13.4664	-0.047096	0.407790	-1.299577	-1.300902	-0.077333	23.3543	-1.297094	-2.185551E+17	3.538387E-19	NaN
225	1.000000	0.467131	7.36725e+06	-49889.1	955.818	-29757.2	0.000000	0.000000	6.466920	-0.033384	NaN	0.000000	0.001647	0.001733	28.0765	0.053256	0.002005	26.5658	-82.1039	-167.525	-0.076653	0.465829	-1.241561	-1.242864	-0.033384	26.5658	-1.240619	-3.840779E+16	8.691952E-19	NaN
225	1.000000	0.525150	7.36725e+06	-49889.1	955.818	-29757.2	0.000000	0.000000	6.524938	-0.054115	NaN	0.000000	0.001602	0.001728	28.0766	0.043840	0.001980	22.1438	62.6127	15.6819	-0.022593	0.523841	-1.183542	-1.184852	-0.054115	22.1438	-1.181710	-6.248471E+15	8.660520E-18	NaN
225	1.000000	0.583184	7.36725e+06	-49889.1	955.819	-29757.2	0.000000	0.000000	6.582972	-0.059904	NaN	0.000000	0.001620	0.001707	28.0775	0.027381	0.002016	13.5814	-72.0622	-169.359	-0.026140	0.581901	-1.125509	-1.126791	-0.059904	13.5814	-1.122201	-9.953971E+14	6.018151E-17	NaN
225	1.000000	0.641199	7.36725e+06	-49889.1	955.818	-29757.2	0.000000	0.000000	6.640988	-0.054615	NaN	0.000000	0.001578	0.001709	28.078	0.041160	0.002021	20.365	-65.2353	14.0399	-0.112166	0.639863	-1.067493	-1.068829	-0.054615	20.365	-1.065482	-1.723784E+14	3.168335E-16	NaN
225	1.000000	0.699234	7.36725e+06	-49889.1	955.819	-29757.2	0.000000	0.000000	6.699020	-0.134287	NaN	0.000000	0.001602	0.001685	28.0766	0.017096	0.001927	8.871524	-135.024	-165.255	-0.138445	0.697910	-1.009458	-1.010782	-0.134287	8.871524	-0.998105	-2.139230E+13	6.277352E-15	NaN
225	1.000000	0.757247	7.36725e+06	-49889.1	955.818	-29757.2	0.000000	0.000000	6.757035	-0.059034	NaN	0.000000	0.001680	0.001651	28.0766	0.017037	0.001946	8.753619	-24.1175	17.3838	-0.142331	0.755925	-0.951445	-0.952767	-0.059034	8.753619	-0.946387	-4.298319E+12	1.373424E-14	NaN
225	1.000000	0.815307	7.36725e+06	-49889.1	955.818	-29757.2	0.000000	0.000000	6.815098	0.006144	NaN	0.000000	0.001618	0.001642	28.0778	0.119493	0.001964	60.8412	-143.7	-170.882	-0.072956	0.813942	-0.893385	-0.894750	0.006144	60.8412	-0.893461	-8.292768E+11	-7.409043E-15	NaN
225	1.000000	0.873316	7.36725e+06	-49889.1	955.818	-29757.2	0.000000	0.000000	6.873107	-0.001781	NaN	0.000000	0.001602	0.001677	28.0779	0.121826	0.001864	65.353	-39.2359	15.9845	-0.088961	0.871973	-0.835376	-0.836719	-0.001781	65.353	-0.835356	-1.356328E+11	1.312957E-14	NaN
225	1.000000	0.931299	7.36725e+06	-49889.1	955.818	-29757.2	0.000000	0.000000	6.931087	-0.054991	NaN	0.000000	0.001610	0.001673	28.078	0.067401	0.002015	33.4466	-141.7	-166.677	0.000100	0.930025	-0.777394	-0.778667	-0.054991	33.4466	-0.776161	-2.133314E+10	2.577725E-12	NaN
225	1.000000	0.989344	7.36725e+06	-49889.1	955.817	-29757.2	0.000000	0.000000	6.989133	-0.027995	NaN	0.000000	0.001604	0.001711	28.0768	0.062248	0.001888	32.9633	36.0006	15.3037	-0.057882	0.988000	-0.719348	-0.720693	-0.027995	32.9633	-0.718711	-3.522872E+9	7.946533E-12	NaN
225	1.000000	1.047376	7.36725e+06	-49889.1	955.819	-29757.2	0.000000	0.000000	7.047167	0.012312	NaN	0.000000	0.001589	0.001672	28.077	0.092979	0.002011	46.2263	-104.054	-170.22	-0.017567	1.046043	-0.661316	-0.662649	0.012312	46.2263	-0.661516	-5.824138E+8	-2.114022E-11	NaN
225	1.000000	1.105393	7.36725e+06	-49889.1	955.818	-29757.2	0.000000	0.000000	7.105180	-0.095780	NaN	0.000000	0.001577	0.001665	28.078	0.024145	0.001933	12.4896	58.2112	13.2505	-0.089757	1.104057	-0.603299	-0.604636	-0.095780	12.4896	-0.597548	-7.703430E+7	1.243340E-9	NaN
225	1.000000	1.163405	7.36725e+06	-49889.1	955.817	-29757.2	0.000000	0.000000	7.163193	-0.070318	NaN	0.000000	0.001653	0.001700	28.0781	0.082377	0.002040	40.383	169.035	-166.842	-0.036058	1.162129	-0.545287	-0.546563	-0.070318	40.383	-0.543981	-1.401399E+7	5.017734E-9	NaN
225	1.000000	1.221428	7.36725e+06	-49889.1	955.818	-29757.2	0.000000	0.000000	7.221219	0.012007	NaN	0.000000	0.001632	0.001664	28.077	0.134117	0.002021	66.3645	39.9817	14.1991	-0.038703	1.220099	-0.487264	-0.488594	0.012007	66.3645	-0.487400	-2.28588e+06	-5.252841E-9	NaN
225	1.000000	1.279500	7.36725e+06	-49889.1	955.818	-29757.2	0.000000	0.000000	7.279291	0.007033	NaN	0.000000	0.001669	0.001656	28.0768	0.046086	0.002202	20.9331	-15.8698	-167.963	-0.026796	1.278135	-0.429192	-0.430557	0.007033	20.9331	-0.429444	-350107	-2.008840E-8	NaN
225	1.000000	1.337489	7.36725e+06	-49889.1	955.819	-29757.2	0.000000	0.000000	7.337275	-0.102919	NaN	0.000000	0.001565	0.001679	28.0772	0.082901	0.001908	43.4532	-114.327	14.7448	-0.078361	1.336127	-0.371203	-0.372566	-0.102919	43.4532	-0.369427	-48738.7	2.111643E-6	NaN
225	1.000000	1.395519	7.36725e+06	-49889.1	955.819	-29757.2	0.000000	0.000000	7.395308	-0.049796	NaN	0.000000	0.001549	0.001660	28.0782	0.112580	0.001941	57.9871	-95.1166	-166.896	-0.060342	1.394194	-0.313173	-0.314498	-0.049796	57.9871	-0.312529	-7218.67	6.898232E-6	NaN
225	1.000000	1.453512	7.36725e+06	-49889.1	955.819	-29757.2	0.000000	0.000000	7.453298	-0.097499	NaN	0.000000	0.001606	0.001677	28.0781	0.051081	0.002027	25.2014	-115.857	13.5013	-0.037862	1.452172	-0.255181	-0.256521	-0.097499	25.2014	-0.252279	-891.613	0.000109	NaN
225	1.000000	1.511567	7.36725e+06	-49889.1	955.822	-29757.2	0.000000	0.000000	7.511355	-0.051120	NaN	0.000000	0.001639	0.001693	28.0766	0.104583	0.002086	50.1307	-177.331	-164.187	-0.012337	1.510295	-0.197125	-0.198398	-0.051120	50.1307	-0.196361	-114.74	0.000446	NaN
225	1.000000	1.569598	7.36725e+06	-49889.1	955.819	-29757.2	0.000000	0.000000	7.569386	-0.053035	NaN	0.000000	0.001598	0.001682	28.0766	0.073431	0.001987	36.9558	-174.884	15.1767	-0.056926	1.568247	-0.139094	-0.140446	-0.053035	36.9558	-0.138018	-10.8547	0.004886	NaN
225	1.000000	1.627639	7.36725e+06	-49889.1	955.82	-29757.2	0.000000	0.000000	7.627427	-0.045906	NaN	0.000000	0.001586	0.001702	28.0776	0.075855	0.001941	39.0731	-23.0905	-165.761	-0.009506	1.626328	-0.081054	-0.082364	-0.045906	39.0731	-0.080173	-0.625172	0.073430	NaN
225	1.000000	1.685660	7.36725e+06	-49889.1	955.82	-29757.2	0.000000	0.000000	7.685448	-0.046457	NaN	0.000000	0.001623	0.001698	28.0775	0.023419	0.001933	12.1182	-98.8097	13.3678	-0.003528	1.684297	-0.023033	-0.024396	-0.046457	12.1182	-0.020158	-0.012677	3.664590	NaN
225	2.000000	1.725192	7.36725e+06	-49889.1	955.82	-29757.2	0.000000	0.000000	7.725661	16.505	NaN	0.000000	0.001621	0.001713	28.0777	14.8874	0.001771	8406.28	4.250974	-173.233	15.7284	1.724883	0.016500	0.016191	16.505	8406.28	0.015027	0.015322	1077.22	62047.2
225	2.000000	1.739695	7.36725e+06	-49889.1	955.819	-29757.2	0.000000	0.000000	7.741431	47.3077	NaN	0.000000	0.001653	0.001729	28.0763	29.4812	0.001858	15867.2	4.597320	1.458391	46.2896	1.739327	0.031003	0.030635	47.3077	15867.2	0.028767	0.038227	1237.55	74146.1
225	2.000000	1.754096	7.36725e+06	-49889.1	955.82	-29757.2	0.000000	0.000000	7.757855	96.4935	NaN	0.000000	0.001651	0.001755	28.0767	42.0468	0.001662	25298.6	8.711281	173.583	96.29	1.753761	0.045404	0.045069	96.4935	25298.6	0.042543	0.070767	1363.55	86887.3
225	2.000000	1.768577	7.36725e+06	-49889.1	955.821	-29757.2	0.000000	0.000000	7.774541	150.13	NaN	0.000000	0.001689	0.001733	28.0778	53.1421	0.001807	29403.7	2.325862	-2.716279	149.222	1.768400	0.059885	0.059708	150.13	29403.7	0.056056	0.112046	1339.89	80255.9
225	2.000000	1.783074	7.36725e+06	-49889.1	955.82	-29757.2	0.000000	0.000000	7.792275	228.853	NaN	0.000000	0.001654	0.001734	28.0778	69.2468	0.001895	36537.6	8.826875	169.718	228.843	1.782777	0.074382	0.074085	228.853	36537.6	0.069684	0.162806	1405.68	82732.8
225	2.000000	1.797582	7.36725e+06	-49889.1	955.82	-29757.2	0.000000	0.000000	7.809959	306.087	NaN	0.000000	0.001587	0.001721	28.0777	81.0845	0.001902	42641.5	5.119035	-7.061840	306.161	1.797222	0.088890	0.088530	306.087	42641.5	0.083506	0.223327	1370.58	82439.3
225	2.000000	1.811961	7.36725e+06	-49889.1	955.822	-29757.2	0.000000	0.000000	7.828522	407.823	NaN	0.000000	0.001601	0.001724	28.0766	93.2181	0.001864	50001.4	1.184955	175.303	402.886	1.811727	0.103269	0.103035	407.823	50001.4	0.097152	0.291762	1397.79	84574.7
225	2.000000	1.817481	7.36725e+06	-49889.1	955.821	-29757.2	0.000000	0.000000	7.835637	446.627	NaN	0.000000	0.001588	0.001784	28.0765	99.0679	0.001851	53511.9	1.817360	-6.031485	441.492	1.817239	0.108789	0.108546	446.627	53511.9	0.102529	0.321066	1391.07	86283.2

File: 2025-07-22_16-23-58_1_226.txt
2025-07-22, 16:23:58, 1
Index	Phase	Displacement	Time	Pos X	Pos Y	Pos Z	Rot A	Rot B	Piezo Z	Force A	Force B	Gripper	Voltage A	Voltage B	Temperature	Amplitude force	Amplitude pos	Stiffness	Phase shift	Phase excitation	Force A raw	Displacement raw	HMax	HMax raw	Real Force	Real Stiffness	Contact Depth	Area	Hardness	Reduced Mod.
[#]	[#]	[um]	[s]	[um]	[um]	[um]	[m°]	[m°]	[um]	[uN]	[uN]	[V]	[V]	[V]	[°C]	[uN]	[um]	[N/m]	[°]	[°]	[uN]	[um]	[um]	[um]	[uN]	[N/m]	[um]	[um^2]	[MPa]	[MPa]
226	1.000000	0.002641	7.36726e+06	-49939.1	955.819	-29757.6	0.000000	0.000000	6.002831	-0.047689	NaN	0.000000	0.001591	0.001696	28.0803	0.019053	0.000956	19.9234	99.9976	-159.919	-0.019902	0.001396	-1.076210	-1.077456	-0.047689	19.9234	-1.074415	-2.272489E+14	2.098546E-16	NaN
226	1.000000	0.042546	7.36726e+06	-49939.1	955.817	-29757.6	0.000000	0.000000	6.042734	-0.089349	NaN	0.000000	0.001554	0.001735	28.0788	0.077898	0.002072	37.602	-83.6852	-166.594	-0.027903	0.041276	-1.036306	-1.037576	-0.089349	37.602	-1.034524	-6.611876E+13	1.351334E-15	NaN
226	1.000000	0.082582	7.36726e+06	-49939.1	955.819	-29757.6	0.000000	0.000000	6.082772	-0.039485	NaN	0.000000	0.001564	0.001739	28.0792	0.051182	0.001943	26.3404	6.997240	-162.538	0.029703	0.081321	-0.996270	-0.997530	-0.039485	26.3404	-0.995146	-1.951674E+13	2.023139E-15	NaN
226	1.000000	0.122595	7.36726e+06	-49939.1	955.818	-29757.6	0.000000	0.000000	6.122785	-0.059984	NaN	0.000000	0.001587	0.001738	28.0797	0.053845	0.002017	26.6981	72.1236	-165.334	-0.125003	0.121241	-0.956257	-0.957611	-0.059984	26.6981	-0.954571	-5.542121E+12	1.082331E-14	NaN
226	1.000000	0.162644	7.36726e+06	-49939.1	955.818	-29757.6	0.000000	0.000000	6.162833	-0.085358	NaN	0.000000	0.001565	0.001714	28.0808	0.143847	0.001925	74.7325	-54.0353	-163.704	0.052175	0.161250	-0.916207	-0.917602	-0.085358	74.7325	-0.915351	-1.638430E+12	5.209715E-14	NaN
226	1.000000	0.202630	7.36726e+06	-49939.1	955.818	-29757.6	0.000000	0.000000	6.202823	0.030200	NaN	0.000000	0.001571	0.001740	28.0807	0.105293	0.001974	53.3333	-28.621	-166.187	0.017740	0.201233	-0.876221	-0.877619	0.030200	53.3333	-0.876646	-4.913030E+11	-6.146906E-14	NaN
226	1.000000	0.242623	7.36726e+06	-49939.1	955.818	-29757.6	0.000000	0.000000	6.242812	-0.083580	NaN	0.000000	0.001575	0.001752	28.0803	0.095861	0.001925	49.8093	172.743	-166.102	0.009454	0.241309	-0.836228	-0.837543	-0.083580	49.8093	-0.834970	-1.340092E+11	6.236888E-13	NaN
226	1.000000	0.282657	7.36726e+06	-49939.1	955.819	-29757.6	0.000000	0.000000	6.282847	-0.035059	NaN	0.000000	0.001592	0.001734	28.0804	0.032797	0.001979	16.5723	-150.444	-166.897	-0.078843	0.281398	-0.796195	-0.797454	-0.035059	16.5723	-0.794608	-3.798916E+10	9.228601E-13	NaN
226	1.000000	0.322634	7.36726e+06	-49939.1	955.819	-29757.6	0.000000	0.000000	6.322824	-0.050913	NaN	0.000000	0.001602	0.001715	28.0791	0.084318	0.002002	42.1078	-97.9359	-162.891	-0.066214	0.321351	-0.756217	-0.757501	-0.050913	42.1078	-0.755310	-1.110434E+10	4.584992E-12	NaN
226	1.000000	0.362679	7.36726e+06	-49939.1	955.819	-29757.7	0.000000	0.000000	6.362871	-0.011823	NaN	0.000000	0.001559	0.001689	28.0792	0.070157	0.001955	35.8838	-11.7741	-166.136	0.006393	0.361445	-0.716172	-0.717407	-0.011823	35.8838	-0.715925	-3.227720E+9	3.662931E-12	NaN
226	1.000000	0.402706	7.36726e+06	-49939.1	955.819	-29757.7	0.000000	0.000000	6.402895	-0.062496	NaN	0.000000	0.001603	0.001678	28.0788	0.031103	0.001843	16.8776	-82.0946	-164.027	0.012197	0.401410	-0.676146	-0.677441	-0.062496	16.8776	-0.673369	-8.462341E+8	7.385183E-11	NaN
226	1.000000	0.442724	7.36726e+06	-49939.1	955.819	-29757.7	0.000000	0.000000	6.442916	-0.008551	NaN	0.000000	0.001569	0.001674	28.0798	0.062769	0.001975	31.7781	31.8933	-164.746	-0.053957	0.441390	-0.636127	-0.637461	-0.008551	31.7781	-0.635926	-2.596436E+8	3.293408E-11	NaN
226	1.000000	0.482723	7.36726e+06	-49939.1	955.819	-29757.7	0.000000	0.000000	6.482910	-0.119718	NaN	0.000000	0.001552	0.001662	28.0798	0.144490	0.001956	73.8629	28.1214	-165.967	-0.044917	0.481475	-0.596129	-0.597377	-0.119718	73.8629	-0.594913	-7.085797E+7	1.689544E-9	NaN
226	1.000000	0.522774	7.36726e+06	-49939.1	955.818	-29757.7	0.000000	0.000000	6.522965	-0.031084	NaN	0.000000	0.001567	0.001695	28.0801	0.068228	0.001987	34.3415	83.5369	-166.06	-0.044375	0.521397	-0.556078	-0.557455	-0.031084	34.3415	-0.555399	-2.017015E+7	1.541086E-9	NaN
226	1.000000	0.562783	7.36726e+06	-49939.1	955.817	-29757.7	0.000000	0.000000	6.562973	-0.045244	NaN	0.000000	0.001581	0.001666	28.0805	0.076387	0.002029	37.6478	-120.48	-166.967	-0.092980	0.561520	-0.516069	-0.517332	-0.045244	37.6478	-0.515167	-5.5765e+06	8.113330E-9	NaN
226	1.000000	0.602796	7.36726e+06	-49939.1	955.818	-29757.7	0.000000	0.000000	6.602988	0.006078	NaN	0.000000	0.001634	0.001702	28.0792	0.059735	0.001982	30.1462	157.631	-166.568	0.009029	0.601444	-0.476056	-0.477407	0.006078	30.1462	-0.476207	-1.59371e+06	-3.814036E-9	NaN
226	1.000000	0.642810	7.36726e+06	-49939.1	955.818	-29757.7	0.000000	0.000000	6.643002	-0.018667	NaN	0.000000	0.001645	0.001704	28.0797	0.091483	0.002021	45.2667	-82.0236	-163.258	-0.010862	0.641464	-0.436041	-0.437387	-0.018667	45.2667	-0.435732	-429631	4.344799E-8	NaN
226	1.000000	0.682827	7.36726e+06	-49939.1	955.818	-29757.7	0.000000	0.000000	6.683018	-0.016827	NaN	0.000000	0.001617	0.001663	28.0789	0.029672	0.001922	15.4374	-138.947	-163.441	-0.044019	0.681490	-0.396025	-0.397361	-0.016827	15.4374	-0.395207	-114181	1.473739E-7	NaN
226	1.000000	0.722855	7.36726e+06	-49939.1	955.818	-29757.7	0.000000	0.000000	6.723047	-0.013674	NaN	0.000000	0.001642	0.001659	28.0803	0.021316	0.001974	10.8011	62.7956	-168.634	-0.033271	0.721509	-0.355996	-0.357342	-0.013674	10.8011	-0.355047	-30211.6	4.526079E-7	NaN
226	1.000000	0.762864	7.36726e+06	-49939.1	955.819	-29757.7	0.000000	0.000000	6.763054	-0.046217	NaN	0.000000	0.001637	0.001632	28.0804	0.119269	0.002028	58.7983	-6.014299	-168.817	-0.066179	0.761573	-0.315988	-0.317278	-0.046217	58.7983	-0.315398	-7958.42	5.807280E-6	NaN
226	1.000000	0.802862	7.36726e+06	-49939.1	955.819	-29757.7	0.000000	0.000000	6.803053	-0.038628	NaN	0.000000	0.001625	0.001637	28.0805	0.064689	0.002035	31.794	73.5958	-164.867	-0.057104	0.801528	-0.275989	-0.277324	-0.038628	31.794	-0.275078	-1988.77	1.942287E-5	NaN
226	1.000000	0.842882	7.36726e+06	-49939.1	955.819	-29757.7	0.000000	0.000000	6.843071	-0.068405	NaN	0.000000	0.001567	0.001667	28.0791	0.057342	0.001904	30.1136	-2.519275	-166.098	-0.040469	0.841615	-0.235970	-0.237237	-0.068405	30.1136	-0.234266	-467.438	0.000146	NaN
226	1.000000	0.882898	7.36726e+06	-49939.1	955.819	-29757.7	0.000000	0.000000	6.883088	-0.042405	NaN	0.000000	0.001627	0.001684	28.0789	0.096142	0.002082	46.1704	75.8873	-163.431	-0.016950	0.881587	-0.195953	-0.197265	-0.042405	46.1704	-0.195265	-110.048	0.000385	NaN
226	1.000000	0.922938	7.36726e+06	-49939.1	955.818	-29757.7	0.000000	0.000000	6.923129	-0.028320	NaN	0.000000	0.001566	0.001614	28.079	0.065159	0.002106	30.9408	-72.0674	-168.275	-0.031409	0.921613	-0.155914	-0.157238	-0.028320	30.9408	-0.155227	-22.5251	0.001257	NaN
226	1.000000	0.962989	7.36726e+06	-49939.1	955.818	-29757.7	0.000000	0.000000	6.963181	-0.001585	NaN	0.000000	0.001587	0.001692	28.0789	0.090070	0.001923	46.8365	42.3473	-167.784	0.030609	0.961650	-0.115863	-0.117202	-0.001585	46.8365	-0.115838	-3.975037	0.000399	NaN
226	1.000000	1.002947	7.36726e+06	-49939.1	955.818	-29757.7	0.000000	0.000000	7.003137	-0.041855	NaN	0.000000	0.001567	0.001725	28.0802	0.030775	0.002071	14.8602	-153.224	-166.145	-0.003876	1.001614	-0.075905	-0.077237	-0.041855	14.8602	-0.073792	-0.429681	0.097411	NaN
226	1.000000	1.042972	7.36726e+06	-49939.1	955.818	-29757.7	0.000000	0.000000	7.043163	-0.045007	NaN	0.000000	0.001598	0.001707	28.0802	0.032877	0.001942	16.9289	158.786	-165.984	-0.093491	1.041684	-0.035879	-0.037167	-0.045007	16.9289	-0.033885	-0.029704	1.515188	NaN
226	1.000000	1.082970	7.36726e+06	-49939.1	955.817	-29757.7	0.000000	0.000000	7.083223	1.471167	NaN	0.000000	0.001617	0.001731	28.0802	2.360666	0.001973	1196.57	21.391	-165.976	0.954105	1.081714	0.004119	0.002863	1.471167	1196.57	0.003196	0.002546	577.848	21666.3
226	2.000000	1.097499	7.36726e+06	-49939.1	955.819	-29757.7	0.000000	0.000000	7.098816	27.3776	NaN	0.000000	0.001639	0.001725	28.0816	18.1035	0.001870	9682	4.613180	-173.404	26.3705	1.097233	0.018647	0.018382	27.3776	9682	0.016526	0.017375	1575.71	67108.7
226	2.000000	1.107440	7.36726e+06	-49939.1	955.817	-29757.7	0.000000	0.000000	7.110497	69.6716	NaN	0.000000	0.001652	0.001728	28.0788	28.9968	0.001731	16751.5	3.331817	-178.74	67.4627	1.107203	0.028588	0.028352	69.6716	16751.5	0.025469	0.031874	2185.81	85724.6
226	2.000000	1.117422	7.36726e+06	-49939.1	955.819	-29757.7	0.000000	0.000000	7.122660	122.699	NaN	0.000000	0.001650	0.001684	28.0791	38.9509	0.001894	20569.8	5.909630	177.707	120.649	1.117117	0.038571	0.038265	122.699	20569.8	0.034097	0.049664	2470.56	84329.9
226	2.000000	1.127443	7.36726e+06	-49939.1	955.818	-29757.7	0.000000	0.000000	7.135571	192.994	NaN	0.000000	0.001653	0.001641	28.079	48.4885	0.001797	26977.2	2.506703	178.312	192.402	1.127225	0.048591	0.048373	192.994	26977.2	0.043226	0.072630	2657.21	91455.9
226	2.000000	1.137356	7.36726e+06	-49939.1	955.818	-29757.7	0.000000	0.000000	7.149090	280.701	NaN	0.000000	0.001556	0.001701	28.0802	58.3872	0.001874	31155.1	4.866787	174.829	276.22	1.137080	0.058504	0.058228	280.701	31155.1	0.051747	0.097889	2867.55	90977.9
226	2.000000	1.147425	7.36726e+06	-49939.1	955.82	-29757.7	0.000000	0.000000	7.162945	372.755	NaN	0.000000	0.001531	0.001709	28.0801	66.9182	0.001785	37499.5	2.135477	176.57	371.441	1.147030	0.068573	0.068178	372.755	37499.5	0.061118	0.129849	2870.68	95077.9
226	2.000000	1.157416	7.36726e+06	-49939.1	955.819	-29757.7	0.000000	0.000000	7.176688	464.007	NaN	0.000000	0.001533	0.001741	28.0804	77.1982	0.001766	43704.7	2.376689	175.586	464.969	1.157111	0.078564	0.078260	464.007	43704.7	0.070601	0.166543	2786.12	97844.9
226	2.000000	1.167357	7.36726e+06	-49939.1	955.82	-29757.7	0.000000	0.000000	7.191213	575.489	NaN	0.000000	0.001545	0.001691	28.0793	86.4725	0.001751	49374.8	3.756010	173.015	573.326	1.167086	0.088505	0.088234	575.489	49374.8	0.079764	0.206057	2792.86	99376.8
226	2.000000	1.177402	7.36726e+06	-49939.1	955.819	-29757.7	0.000000	0.000000	7.205446	677.353	NaN	0.000000	0.001564	0.001724	28.0801	96.619	0.001794	53845	4.729223	171.274	676.297	1.177079	0.098550	0.098228	677.353	53845	0.089115	0.250424	2704.83	98306.2
226	2.000000	1.187383	7.36726e+06	-49939.1	955.818	-29757.7	0.000000	0.000000	7.219681	780.799	NaN	0.000000	0.001562	0.001710	28.0791	104.463	0.001717	60832.3	2.188817	173.332	779.751	1.187294	0.108531	0.108443	780.799	60832.3	0.098905	0.301169	2592.56	101275
226	2.000000	1.187803	7.36726e+06	-49939.1	955.818	-29757.7	0.000000	0.000000	7.220515	790.857	NaN	0.000000	0.001526	0.001689	28.0793	104.851	0.001741	60215.5	3.065715	-7.598357	782.714	1.187457	0.108951	0.108606	790.857	60215.5	0.099101	0.302231	2616.73	100072