Folder: unikorn_login/remote_trans/data/nanoindenter/0828-1/data/Data_2025-08-06,11h17m57s (part 142)

File: 2025-07-22_16-23-58_1_301.txt
2025-07-22, 16:23:58, 1
Index	Phase	Displacement	Time	Pos X	Pos Y	Pos Z	Rot A	Rot B	Piezo Z	Force A	Force B	Gripper	Voltage A	Voltage B	Temperature	Amplitude force	Amplitude pos	Stiffness	Phase shift	Phase excitation	Force A raw	Displacement raw	HMax	HMax raw	Real Force	Real Stiffness	Contact Depth	Area	Hardness	Reduced Mod.
[#]	[#]	[um]	[s]	[um]	[um]	[um]	[m°]	[m°]	[um]	[uN]	[uN]	[V]	[V]	[V]	[°C]	[uN]	[um]	[N/m]	[°]	[°]	[uN]	[um]	[um]	[um]	[uN]	[N/m]	[um]	[um^2]	[MPa]	[MPa]
301	1.000000	0.002592	7.36801e+06	-53689.1	955.818	-29745.3	0.000000	0.000000	6.002773	-0.002968	NaN	0.000000	0.001609	0.001746	28.0771	0.073249	0.001016	72.0648	17.2196	-163.412	0.010465	0.001364	-1.747568	-1.748796	-0.002968	72.0648	-1.747537	-2.176535E+23	1.363413E-26	NaN
301	1.000000	0.062571	7.36801e+06	-53689.1	955.818	-29745.3	0.000000	0.000000	6.062754	0.045996	NaN	0.000000	0.001644	0.001753	28.0773	0.057225	0.001977	28.9522	-81.4708	-162.432	0.060173	0.061282	-1.687589	-1.688878	0.045996	28.9522	-1.688781	-3.609005E+22	-1.274481E-24	NaN
301	1.000000	0.122583	7.36801e+06	-53689.1	955.819	-29745.2	0.000000	0.000000	6.122762	-0.031938	NaN	0.000000	0.001693	0.001708	28.079	0.018833	0.001976	9.529712	57.3817	-165.409	-0.016667	0.121286	-1.627577	-1.628874	-0.031938	9.529712	-1.625064	-5.134818E+21	6.219948E-24	NaN
301	1.000000	0.182639	7.36801e+06	-53689.1	955.818	-29745.2	0.000000	0.000000	6.182818	-0.030850	NaN	0.000000	0.001634	0.001728	28.0784	0.109241	0.002027	53.8801	-53.5158	-162.752	-0.057090	0.181279	-1.567521	-1.568881	-0.030850	53.8801	-1.567092	-8.698550E+20	3.546531E-23	NaN
301	1.000000	0.242633	7.36801e+06	-53689.1	955.818	-29745.2	0.000000	0.000000	6.242814	-0.002308	NaN	0.000000	0.001621	0.001718	28.078	0.097368	0.001876	51.9096	-82.9227	-168.689	-0.001232	0.241349	-1.507527	-1.508811	-0.002308	51.9096	-1.507493	-1.399933E+20	1.648761E-23	NaN
301	1.000000	0.302675	7.36801e+06	-53689.1	955.818	-29745.2	0.000000	0.000000	6.302854	-0.040888	NaN	0.000000	0.001631	0.001736	28.077	0.063343	0.001969	32.1673	-105.344	-166.742	-0.018578	0.301375	-1.447485	-1.448785	-0.040888	32.1673	-1.446531	-2.157331E+19	1.895282E-21	NaN
301	1.000000	0.362682	7.36801e+06	-53689.1	955.818	-29745.2	0.000000	0.000000	6.362863	-0.004487	NaN	0.000000	0.001633	0.001736	28.0767	0.055351	0.002018	27.427	-75.3124	-165.289	-0.110490	0.361413	-1.387478	-1.388747	-0.004487	27.427	-1.387355	-3.505750E+18	1.279957E-21	NaN
301	1.000000	0.422721	7.36801e+06	-53689.1	955.819	-29745.2	0.000000	0.000000	6.422898	-0.085371	NaN	0.000000	0.001632	0.001701	28.0781	0.101681	0.002027	50.1628	123.606	-162.919	-0.076193	0.421443	-1.327439	-1.328717	-0.085371	50.1628	-1.326163	-5.344712E+17	1.597301E-19	NaN
301	1.000000	0.482764	7.36801e+06	-53689.1	955.818	-29745.2	0.000000	0.000000	6.482942	-0.066560	NaN	0.000000	0.001619	0.001766	28.0782	0.076025	0.002070	36.7354	121.769	-162.897	-0.042741	0.481478	-1.267396	-1.268682	-0.066560	36.7354	-1.266037	-8.402411E+16	7.921509E-19	NaN
301	1.000000	0.542787	7.36801e+06	-53689.1	955.818	-29745.2	0.000000	0.000000	6.542967	-0.015332	NaN	0.000000	0.001628	0.001683	28.0769	0.100779	0.002276	44.2836	91.3781	-165.521	0.036398	0.541486	-1.207373	-1.208674	-0.015332	44.2836	-1.207114	-1.367718E+16	1.120969E-18	NaN
301	1.000000	0.602823	7.36801e+06	-53689.1	955.819	-29745.2	0.000000	0.000000	6.603002	-0.050860	NaN	0.000000	0.001666	0.001689	28.077	0.079340	0.002010	39.4635	57.7372	-163.733	-0.037640	0.601451	-1.147337	-1.148709	-0.050860	39.4635	-1.146370	-2.099697E+15	2.422273E-17	NaN
301	1.000000	0.662827	7.36801e+06	-53689.1	955.819	-29745.2	0.000000	0.000000	6.663012	0.080291	NaN	0.000000	0.001671	0.001718	28.078	0.052025	0.001894	27.4735	7.759471	-165.742	0.029831	0.661543	-1.087333	-1.088617	0.080291	27.4735	-1.089524	-3.625984E+14	-2.214311E-16	NaN
301	1.000000	0.722824	7.36801e+06	-53689.1	955.819	-29745.2	0.000000	0.000000	6.723012	0.156759	NaN	0.000000	0.001665	0.001713	28.0782	0.025497	0.001969	12.9472	24.1921	-167.872	0.085294	0.721576	-1.027336	-1.028584	0.156759	12.9472	-1.036416	-7.010948E+13	-2.235918E-15	NaN
301	1.000000	0.782890	7.36801e+06	-53689.1	955.819	-29745.2	0.000000	0.000000	6.783070	-0.012818	NaN	0.000000	0.001658	0.001689	28.0782	0.087915	0.001882	46.7107	-97.1344	-167.022	-0.013766	0.781568	-0.967270	-0.968592	-0.012818	46.7107	-0.967065	-8.167732E+12	1.569308E-15	NaN
301	1.000000	0.842920	7.36801e+06	-53689.1	955.819	-29745.2	0.000000	0.000000	6.843102	0.026216	NaN	0.000000	0.001638	0.001712	28.0768	0.085418	0.001943	43.9578	-137.278	-165.739	0.067571	0.841608	-0.907240	-0.908552	0.026216	43.9578	-0.907687	-1.290983E+12	-2.030714E-14	NaN
301	1.000000	0.902945	7.36801e+06	-53689.1	955.818	-29745.2	0.000000	0.000000	6.903125	-0.023673	NaN	0.000000	0.001712	0.001690	28.0769	0.082075	0.001918	42.7921	143.573	-166.633	-0.021708	0.901650	-0.847215	-0.848510	-0.023673	42.7921	-0.846800	-1.938206E+11	1.221379E-13	NaN
301	1.000000	0.962952	7.36801e+06	-53689.1	955.817	-29745.2	0.000000	0.000000	6.963133	0.015403	NaN	0.000000	0.001640	0.001663	28.0782	0.029278	0.002051	14.2757	-33.0218	-159.679	0.001584	0.961612	-0.787208	-0.788548	0.015403	14.2757	-0.788017	-3.091389E+10	-4.982458E-13	NaN
301	1.000000	1.022966	7.36801e+06	-53689.1	955.818	-29745.2	0.000000	0.000000	7.023146	-0.021080	NaN	0.000000	0.001661	0.001675	28.078	0.089137	0.002069	43.0843	173.775	-167.765	-0.099550	1.021722	-0.727194	-0.728438	-0.021080	43.0843	-0.726827	-4.545323E+9	4.637628E-12	NaN
301	1.000000	1.082996	7.36801e+06	-53689.1	955.818	-29745.2	0.000000	0.000000	7.083176	-0.016713	NaN	0.000000	0.001696	0.001662	28.0768	0.095960	0.002010	47.7302	-149.897	-164.544	-0.044059	1.081731	-0.667164	-0.668429	-0.016713	47.7302	-0.666901	-6.901952E+8	2.421496E-11	NaN
301	1.000000	1.143038	7.36801e+06	-53689.1	955.818	-29745.2	0.000000	0.000000	7.143220	0.011041	NaN	0.000000	0.001672	0.001682	28.0767	0.022014	0.001913	11.5055	156.145	-164.645	0.060803	1.141679	-0.607122	-0.608481	0.011041	11.5055	-0.607842	-1.067614E+8	-1.034175E-10	NaN
301	1.000000	1.203054	7.36801e+06	-53689.1	955.817	-29745.2	0.000000	0.000000	7.203234	-0.028050	NaN	0.000000	0.001639	0.001676	28.0775	0.031552	0.002085	15.1314	-112.881	-164.3	0.051631	1.201727	-0.547106	-0.548434	-0.028050	15.1314	-0.545715	-1.481133E+7	1.893823E-9	NaN
301	1.000000	1.263063	7.36801e+06	-53689.1	955.82	-29745.2	0.000000	0.000000	7.263246	0.036157	NaN	0.000000	0.001642	0.001703	28.0779	0.050724	0.001951	26.0032	158.924	-164.796	-0.012966	1.261783	-0.487097	-0.488377	0.036157	26.0032	-0.488140	-2.34095e+06	-1.544537E-8	NaN
301	1.000000	1.323094	7.36801e+06	-53689.1	955.819	-29745.2	0.000000	0.000000	7.323272	-0.064740	NaN	0.000000	0.001643	0.001703	28.078	0.070192	0.002025	34.6672	91.503	-165.223	-0.076242	1.321778	-0.427066	-0.428382	-0.064740	34.6672	-0.425665	-309534	2.091542E-7	NaN
301	1.000000	1.383119	7.36801e+06	-53689.1	955.819	-29745.2	0.000000	0.000000	7.383297	-0.053908	NaN	0.000000	0.001637	0.001681	28.0767	0.128219	0.001894	67.7122	-93.9079	-166.252	0.002192	1.381820	-0.367041	-0.368340	-0.053908	67.7122	-0.366444	-44145.2	1.221155E-6	NaN
301	1.000000	1.443163	7.36801e+06	-53689.1	955.82	-29745.2	0.000000	0.000000	7.443343	-0.022026	NaN	0.000000	0.001670	0.001649	28.0768	0.116012	0.002023	57.3478	1.175283	-162.598	-0.009081	1.441834	-0.306997	-0.308326	-0.022026	57.3478	-0.306709	-5919.77	3.720666E-6	NaN
301	1.000000	1.503148	7.36801e+06	-53689.1	955.819	-29745.2	0.000000	0.000000	7.503329	0.017031	NaN	0.000000	0.001641	0.001661	28.0779	0.067942	0.001977	34.3735	103.524	-165.872	0.029698	1.501839	-0.247012	-0.248321	0.017031	34.3735	-0.247384	-748.951	-2.273922E-5	NaN
301	1.000000	1.563212	7.36801e+06	-53689.1	955.819	-29745.2	0.000000	0.000000	7.563391	-0.038389	NaN	0.000000	0.001633	0.001668	28.0783	0.032860	0.002093	15.6984	121.553	-163.973	0.016030	1.561926	-0.186948	-0.188234	-0.038389	15.6984	-0.185114	-74.4835	0.000515	NaN
301	1.000000	1.623251	7.36801e+06	-53689.1	955.819	-29745.2	0.000000	0.000000	7.623433	0.012508	NaN	0.000000	0.001666	0.001702	28.0767	0.033726	0.002171	15.5377	-150.806	-161.609	-0.067414	1.621930	-0.126909	-0.128230	0.012508	15.5377	-0.127513	-6.815172	-0.001835	NaN
301	1.000000	1.683289	7.36801e+06	-53689.1	955.819	-29745.2	0.000000	0.000000	7.683469	-0.029016	NaN	0.000000	0.001735	0.001679	28.0765	0.128083	0.001993	64.2796	-97.2003	-166.224	-0.031043	1.681980	-0.066871	-0.068180	-0.029016	64.2796	-0.066532	-0.274696	0.105629	NaN
301	1.000000	1.743303	7.36802e+06	-53689.1	955.821	-29745.2	0.000000	0.000000	7.743484	0.004118	NaN	0.000000	0.001679	0.001622	28.0771	0.026702	0.002121	12.5887	-17.6174	-165.552	0.005744	1.741950	-0.006857	-0.008210	0.004118	12.5887	-0.007102	-0.004701	-0.875979	NaN
301	2.000000	1.769869	7.36802e+06	-53689.1	955.82	-29745.2	0.000000	0.000000	7.771086	25.1868	NaN	0.000000	0.001687	0.001679	28.0781	21.712	0.001862	11659.4	6.992347	-176.771	25.5126	1.769550	0.019709	0.019389	25.1868	11659.4	0.018089	0.019627	1283.26	76035.9
301	2.000000	1.784863	7.36802e+06	-53689.1	955.82	-29745.2	0.000000	0.000000	7.787556	61.0693	NaN	0.000000	0.001665	0.001691	28.0781	35.4418	0.001866	18989.4	3.950874	-178.617	64.3874	1.784566	0.034703	0.034406	61.0693	18989.4	0.032291	0.045626	1338.47	81222.7
301	2.000000	1.799804	7.36802e+06	-53689.1	955.82	-29745.2	0.000000	0.000000	7.804745	115.731	NaN	0.000000	0.001678	0.001665	28.0766	49.3496	0.001767	27927.1	1.677847	179.766	114.829	1.799505	0.049644	0.049345	115.731	27927.1	0.046536	0.082007	1411.24	89099.1
301	2.000000	1.814756	7.36802e+06	-53689.1	955.821	-29745.2	0.000000	0.000000	7.822574	185.687	NaN	0.000000	0.001689	0.001675	28.0766	61.6438	0.001635	37691.9	9.194517	170.68	185.497	1.814378	0.064596	0.064218	185.687	37691.9	0.060901	0.129059	1438.78	95857.9
301	2.000000	1.829763	7.36802e+06	-53689.1	955.82	-29745.2	0.000000	0.000000	7.841073	270.573	NaN	0.000000	0.001682	0.001696	28.0778	77.5302	0.001860	41676.8	6.911817	172.026	269.976	1.829357	0.079603	0.079197	270.573	41676.8	0.074734	0.183876	1471.5	88798.3
301	2.000000	1.844694	7.36802e+06	-53689.1	955.821	-29745.2	0.000000	0.000000	7.860067	369.355	NaN	0.000000	0.001731	0.001678	28.0776	88.3702	0.001748	50569.3	0.952250	176.409	366.237	1.844365	0.094534	0.094205	369.355	50569.3	0.089056	0.250128	1476.66	92380.3
301	2.000000	1.857175	7.36802e+06	-53689.1	955.821	-29745.2	0.000000	0.000000	7.876740	471.273	NaN	0.000000	0.001738	0.001648	28.0776	102.958	0.001875	54907.6	5.390472	-8.119069	467.167	1.856714	0.107015	0.106554	471.273	54907.6	0.100578	0.310280	1518.87	90059.4

File: 2025-07-22_16-23-58_1_302.txt
2025-07-22, 16:23:58, 1
Index	Phase	Displacement	Time	Pos X	Pos Y	Pos Z	Rot A	Rot B	Piezo Z	Force A	Force B	Gripper	Voltage A	Voltage B	Temperature	Amplitude force	Amplitude pos	Stiffness	Phase shift	Phase excitation	Force A raw	Displacement raw	HMax	HMax raw	Real Force	Real Stiffness	Contact Depth	Area	Hardness	Reduced Mod.
[#]	[#]	[um]	[s]	[um]	[um]	[um]	[m°]	[m°]	[um]	[uN]	[uN]	[V]	[V]	[V]	[°C]	[uN]	[um]	[N/m]	[°]	[°]	[uN]	[um]	[um]	[um]	[uN]	[N/m]	[um]	[um^2]	[MPa]	[MPa]
302	1.000000	0.003163	7.36802e+06	-53739.1	955.818	-29745.7	0.000000	0.000000	6.002822	0.044827	NaN	0.000000	0.001751	0.001643	28.0805	0.061878	0.000933	66.3305	168.679	-171.196	0.035828	0.001867	-1.097715	-1.099012	0.044827	66.3305	-1.098222	-4.744642E+14	-9.447867E-17	NaN
302	1.000000	0.045062	7.36802e+06	-53739.1	955.818	-29745.7	0.000000	0.000000	6.044719	0.011359	NaN	0.000000	0.001696	0.001665	28.0803	0.053801	0.001991	27.0161	134.67	16.4572	0.050690	0.043737	-1.055816	-1.057141	0.011359	27.0161	-1.056132	-1.290724E+14	-8.800274E-17	NaN
302	1.000000	0.087094	7.36802e+06	-53739.1	955.818	-29745.7	0.000000	0.000000	6.086753	0.056093	NaN	0.000000	0.001675	0.001638	28.0807	0.072325	0.001951	37.0663	-78.5821	-166.869	0.014603	0.085799	-1.013784	-1.015079	0.056093	37.0663	-1.014919	-3.602342E+13	-1.557130E-15	NaN
302	1.000000	0.129109	7.36802e+06	-53739.1	955.819	-29745.7	0.000000	0.000000	6.128768	0.047201	NaN	0.000000	0.001752	0.001651	28.0796	0.102566	0.002053	49.9566	-126.38	15.4979	0.109968	0.127783	-0.971769	-0.973096	0.047201	49.9566	-0.972478	-9.661727E+12	-4.885340E-15	NaN
302	1.000000	0.171168	7.36802e+06	-53739.1	955.819	-29745.7	0.000000	0.000000	6.170823	-0.033901	NaN	0.000000	0.001745	0.001635	28.0797	0.067260	0.002078	32.3747	-134.328	-165.831	0.062086	0.169854	-0.929711	-0.931024	-0.033901	32.3747	-0.928925	-2.498562E+12	1.356822E-14	NaN
302	1.000000	0.213134	7.36802e+06	-53739.1	955.818	-29745.7	0.000000	0.000000	6.212790	-0.024300	NaN	0.000000	0.001754	0.001625	28.0799	0.120567	0.002146	56.1711	112.818	17.6456	0.063456	0.211789	-0.887744	-0.889089	-0.024300	56.1711	-0.887420	-6.871187E+11	3.536479E-14	NaN
302	1.000000	0.255202	7.36802e+06	-53739.1	955.819	-29745.7	0.000000	0.000000	6.254860	0.029891	NaN	0.000000	0.001760	0.001683	28.0812	0.084176	0.001945	43.2822	117.735	-165.026	0.042866	0.253880	-0.845676	-0.846999	0.029891	43.2822	-0.846194	-1.901946E+11	-1.571614E-13	NaN
302	1.000000	0.297192	7.36802e+06	-53739.1	955.818	-29745.7	0.000000	0.000000	6.296850	0.045986	NaN	0.000000	0.001651	0.001682	28.081	0.018581	0.002046	9.083301	-72.7154	17.8368	-0.006557	0.295838	-0.803687	-0.805041	0.045986	9.083301	-0.807484	-5.681080E+10	-8.094622E-13	NaN
302	1.000000	0.339231	7.36802e+06	-53739.1	955.819	-29745.7	0.000000	0.000000	6.338886	-0.043551	NaN	0.000000	0.001675	0.001695	28.0809	0.018779	0.002096	8.961481	-74.764	-162.948	-0.066546	0.337834	-0.761648	-0.763045	-0.043551	8.961481	-0.758003	-1.208171E+10	3.604727E-12	NaN
302	1.000000	0.381228	7.36802e+06	-53739.1	955.818	-29745.7	0.000000	0.000000	6.380884	-0.013591	NaN	0.000000	0.001679	0.001660	28.0795	0.021743	0.002073	10.4864	159.808	15.9844	0.019754	0.379835	-0.719651	-0.721043	-0.013591	10.4864	-0.718679	-3.519282E+9	3.861963E-12	NaN
302	1.000000	0.423233	7.36802e+06	-53739.1	955.818	-29745.7	0.000000	0.000000	6.422890	0.001312	NaN	0.000000	0.001636	0.001704	28.0798	0.084802	0.002069	40.9916	34.4688	-165.33	-0.082874	0.421946	-0.677646	-0.678933	0.001312	40.9916	-0.677670	-9.690182E+8	-1.354045E-12	NaN
302	1.000000	0.465271	7.36802e+06	-53739.1	955.818	-29745.7	0.000000	0.000000	6.464928	-0.016070	NaN	0.000000	0.001668	0.001641	28.0796	0.083204	0.002056	40.464	117.546	12.9839	-0.029193	0.463916	-0.635607	-0.636963	-0.016070	40.464	-0.635309	-2.546337E+8	6.311069E-11	NaN
302	1.000000	0.507297	7.36802e+06	-53739.1	955.819	-29745.7	0.000000	0.000000	6.506955	0.023791	NaN	0.000000	0.001629	0.001669	28.0808	0.082879	0.002064	40.145	101.512	-164.51	-0.027314	0.506009	-0.593581	-0.594869	0.023791	40.145	-0.594026	-6.888985E+7	-3.453417E-10	NaN
302	1.000000	0.549305	7.36802e+06	-53739.1	955.818	-29745.7	0.000000	0.000000	6.548962	0.006492	NaN	0.000000	0.001652	0.001661	28.0807	0.041749	0.002089	19.9826	133.002	19.8795	-0.051842	0.547968	-0.551573	-0.552911	0.006492	19.9826	-0.551817	-1.799376E+7	-3.607669E-10	NaN
302	1.000000	0.591342	7.36802e+06	-53739.1	955.818	-29745.7	0.000000	0.000000	6.590997	-0.020991	NaN	0.000000	0.001667	0.001648	28.0806	0.120402	0.001975	60.9658	71.8989	-167.969	-0.026020	0.590047	-0.509537	-0.510831	-0.020991	60.9658	-0.509279	-4.61709e+06	4.546458E-9	NaN
302	1.000000	0.633366	7.36802e+06	-53739.1	955.818	-29745.7	0.000000	0.000000	6.633023	0.001261	NaN	0.000000	0.001660	0.001697	28.0809	0.042111	0.001950	21.5969	-177.024	18.9308	0.081294	0.631946	-0.467512	-0.468933	0.001261	21.5969	-0.467556	-1.20538e+06	-1.046427E-9	NaN
302	1.000000	0.675387	7.36802e+06	-53739.1	955.818	-29745.7	0.000000	0.000000	6.675042	-0.040103	NaN	0.000000	0.001666	0.001692	28.0799	0.024133	0.001925	12.5371	-105.965	-164.621	-0.026300	0.674023	-0.425492	-0.426855	-0.040103	12.5371	-0.423093	-284615	1.409031E-7	NaN
302	1.000000	0.717365	7.36802e+06	-53739.1	955.818	-29745.7	0.000000	0.000000	6.717020	-0.039172	NaN	0.000000	0.001711	0.001673	28.0797	0.047322	0.001900	24.9084	108.007	15.5756	-0.030244	0.716025	-0.383514	-0.384853	-0.039172	24.9084	-0.382334	-74709.8	5.243268E-7	NaN
302	1.000000	0.759402	7.36802e+06	-53739.1	955.818	-29745.7	0.000000	0.000000	6.759058	-0.032502	NaN	0.000000	0.001721	0.001677	28.0795	0.086163	0.001953	44.1173	-107.37	-163.665	-0.106394	0.758136	-0.341476	-0.342743	-0.032502	44.1173	-0.340924	-18837.1	1.725398E-6	NaN
302	1.000000	0.801432	7.36802e+06	-53739.1	955.819	-29745.7	0.000000	0.000000	6.801091	0.042391	NaN	0.000000	0.001692	0.001695	28.081	0.056547	0.001801	31.3913	125.794	17.2761	0.066533	0.800041	-0.299446	-0.300837	0.042391	31.3913	-0.300459	-4780.45	-8.867665E-6	NaN
302	1.000000	0.843433	7.36802e+06	-53739.1	955.818	-29745.7	0.000000	0.000000	6.843089	-0.019109	NaN	0.000000	0.001660	0.001673	28.0806	0.046072	0.002020	22.8123	-63.4733	-166.963	-0.051061	0.842113	-0.257445	-0.258766	-0.019109	22.8123	-0.256817	-1047.28	1.824640E-5	NaN
302	1.000000	0.885453	7.36802e+06	-53739.1	955.819	-29745.7	0.000000	0.000000	6.885111	0.025255	NaN	0.000000	0.001631	0.001678	28.0809	0.073485	0.002156	34.0764	-149.049	18.5705	-0.017520	0.884092	-0.215425	-0.216786	0.025255	34.0764	-0.215981	-239.488	-0.000105	NaN
302	1.000000	0.927480	7.36802e+06	-53739.1	955.818	-29745.7	0.000000	0.000000	6.927138	0.039492	NaN	0.000000	0.001611	0.001709	28.0794	0.116372	0.001983	58.6932	127.411	-162.23	0.012139	0.926148	-0.173399	-0.174730	0.039492	58.6932	-0.173903	-47.9857	-0.000823	NaN
302	1.000000	0.969476	7.36802e+06	-53739.1	955.818	-29745.7	0.000000	0.000000	6.969129	-0.091293	NaN	0.000000	0.001676	0.001676	28.0795	0.020721	0.001834	11.2998	154.763	10.6273	0.053747	0.968150	-0.131402	-0.132729	-0.091293	11.2998	-0.125343	-6.176959	0.014780	NaN
302	1.000000	1.011480	7.36802e+06	-53739.1	955.817	-29745.7	0.000000	0.000000	7.011135	-0.056055	NaN	0.000000	0.001650	0.001632	28.0798	0.082188	0.001908	43.0741	-49.7041	-162.976	-0.019569	1.010203	-0.089398	-0.090675	-0.056055	43.0741	-0.088422	-0.992248	0.056493	NaN
302	1.000000	1.053519	7.36802e+06	-53739.1	955.818	-29745.7	0.000000	0.000000	7.053178	0.053162	NaN	0.000000	0.001652	0.001637	28.0811	0.173479	0.001901	91.2625	112.272	13.2602	0.161173	1.052131	-0.047360	-0.048748	0.053162	91.2625	-0.047797	-0.078228	-0.679577	NaN
302	1.000000	1.095507	7.36802e+06	-53739.1	955.818	-29745.7	0.000000	0.000000	7.095164	0.003145	NaN	0.000000	0.001647	0.001639	28.0808	0.082679	0.001988	41.5853	48.3752	-167.578	-0.002167	1.094213	-0.005371	-0.006666	0.003145	41.5853	-0.005428	-0.003684	-0.853729	NaN
302	2.000000	1.118575	7.36803e+06	-53739.1	955.818	-29745.7	0.000000	0.000000	7.118954	17.5765	NaN	0.000000	0.001634	0.001653	28.0809	15.4409	0.001692	9125.01	7.104585	2.870460	15.5217	1.118266	0.017696	0.017387	17.5765	9125.01	0.016252	0.016991	1034.47	63958.6
302	2.000000	1.129131	7.36803e+06	-53739.1	955.819	-29745.7	0.000000	0.000000	7.130517	42.0417	NaN	0.000000	0.001659	0.001585	28.0808	27.1007	0.001823	14864.4	8.050446	179.403	43.2821	1.128789	0.028252	0.027910	42.0417	14864.4	0.026131	0.033105	1269.96	74640.4
302	2.000000	1.139555	7.36803e+06	-53739.1	955.818	-29745.7	0.000000	0.000000	7.142355	76.418	NaN	0.000000	0.001633	0.001700	28.0799	37.902	0.001812	20916.5	5.106829	-1.332350	75.038	1.139216	0.038676	0.038337	76.418	20916.5	0.035936	0.053948	1416.51	82276.4
302	2.000000	1.150017	7.36803e+06	-53739.1	955.819	-29745.7	0.000000	0.000000	7.154729	122.914	NaN	0.000000	0.001644	0.001719	28.0799	47.0772	0.001633	28821.7	5.131000	174.442	120.17	1.149687	0.049138	0.048808	122.914	28821.7	0.045940	0.080278	1531.11	92938.5
302	2.000000	1.160558	7.36803e+06	-53739.1	955.818	-29745.7	0.000000	0.000000	7.167260	171.295	NaN	0.000000	0.001659	0.001667	28.08	58.7983	0.001612	36467.1	7.380291	-9.047126	171.147	1.160128	0.059679	0.059249	171.295	36467.1	0.056156	0.112386	1524.16	99384.2
302	2.000000	1.171065	7.36803e+06	-53739.1	955.818	-29745.7	0.000000	0.000000	7.180626	240.804	NaN	0.000000	0.001655	0.001680	28.0812	69.7599	0.001754	39775.8	5.857646	173.161	240.652	1.170655	0.070186	0.069776	240.804	39775.8	0.065646	0.146827	1640.05	94839.4
302	2.000000	1.181538	7.36803e+06	-53739.1	955.818	-29745.7	0.000000	0.000000	7.193283	293.888	NaN	0.000000	0.001681	0.001649	28.0812	81.6863	0.001781	45858	5.062470	-8.632944	293.445	1.181362	0.080659	0.080483	293.888	45858	0.075853	0.188708	1557.37	96447.8
302	2.000000	1.191971	7.36803e+06	-53739.1	955.818	-29745.7	0.000000	0.000000	7.207716	391.12	NaN	0.000000	0.001686	0.001712	28.0813	90.8722	0.001683	53981	4.622905	170.853	392.253	1.191670	0.091093	0.090792	391.12	53981	0.085659	0.233554	1674.64	102052
302	2.000000	1.202389	7.36803e+06	-53739.1	955.818	-29745.7	0.000000	0.000000	7.221714	478.184	NaN	0.000000	0.001705	0.001690	28.0796	101.902	0.001764	57760.2	2.144444	-7.164104	469.45	1.202046	0.101511	0.101167	478.184	57760.2	0.095301	0.281982	1695.8	99378.2
302	2.000000	1.210969	7.36803e+06	-53739.1	955.818	-29745.7	0.000000	0.000000	7.233592	558.358	NaN	0.000000	0.001618	0.001672	28.0796	110.086	0.001733	63527	5.596481	168.901	556.274	1.210663	0.110091	0.109785	558.358	63527	0.103499	0.326489	1710.19	101578