Folder: unikorn_login/remote_trans/data/nanoindenter/0828-1/data/Data_2025-08-06,11h17m57s (part 114)

File: 2025-07-22_16-23-58_1_245.txt
2025-07-22, 16:23:58, 1
Index	Phase	Displacement	Time	Pos X	Pos Y	Pos Z	Rot A	Rot B	Piezo Z	Force A	Force B	Gripper	Voltage A	Voltage B	Temperature	Amplitude force	Amplitude pos	Stiffness	Phase shift	Phase excitation	Force A raw	Displacement raw	HMax	HMax raw	Real Force	Real Stiffness	Contact Depth	Area	Hardness	Reduced Mod.
[#]	[#]	[um]	[s]	[um]	[um]	[um]	[m°]	[m°]	[um]	[uN]	[uN]	[V]	[V]	[V]	[°C]	[uN]	[um]	[N/m]	[°]	[°]	[uN]	[um]	[um]	[um]	[uN]	[N/m]	[um]	[um^2]	[MPa]	[MPa]
245	1.000000	0.002347	7.36744e+06	-50889.1	955.82	-29754	0.000000	0.000000	6.002807	0.024904	NaN	0.000000	0.001593	0.001622	28.0781	0.043241	0.000953	45.3786	-48.5768	-169.295	0.026707	0.001110	-1.736977	-1.738214	0.024904	45.3786	-1.737389	-1.595935E+23	-1.560493E-25	NaN
245	1.000000	0.060284	7.36744e+06	-50889.1	955.818	-29754	0.000000	0.000000	6.060746	0.053674	NaN	0.000000	0.001597	0.001634	28.0792	0.166193	0.002046	81.2127	-149.808	14.8352	0.037984	0.058899	-1.679040	-1.680425	0.053674	81.2127	-1.679535	-2.719877E+22	-1.973390E-24	NaN
245	1.000000	0.118320	7.36744e+06	-50889.1	955.819	-29753.9	0.000000	0.000000	6.118782	0.053013	NaN	0.000000	0.001605	0.001664	28.0792	0.070623	0.002074	34.0519	-138.065	-165.837	-0.002872	0.116985	-1.621004	-1.622339	0.053013	34.0519	-1.622171	-4.699691E+21	-1.128003E-23	NaN
245	1.000000	0.176347	7.36744e+06	-50889.1	955.818	-29753.9	0.000000	0.000000	6.176806	-0.020635	NaN	0.000000	0.001592	0.001632	28.0796	0.017684	0.001990	8.885123	-103.557	11.9521	0.060018	0.174981	-1.562977	-1.564342	-0.020635	8.885123	-1.561235	-7.269562E+20	2.838616E-23	NaN
245	1.000000	0.234346	7.36744e+06	-50889.1	955.819	-29753.9	0.000000	0.000000	6.234809	0.074899	NaN	0.000000	0.001692	0.001629	28.0786	0.067643	0.002043	33.11	-2.697375	-166.73	-0.015943	0.233079	-1.504978	-1.506245	0.074899	33.11	-1.506674	-1.365205E+20	-5.486296E-22	NaN
245	1.000000	0.292425	7.36744e+06	-50889.1	955.818	-29753.9	0.000000	0.000000	6.292885	0.013234	NaN	0.000000	0.001600	0.001654	28.0785	0.241232	0.001991	121.184	59.8212	14.3296	-0.042911	0.291072	-1.446899	-1.448251	0.013234	121.184	-1.446981	-2.187283E+19	-6.050293E-22	NaN
245	1.000000	0.350434	7.36744e+06	-50889.1	955.818	-29753.9	0.000000	0.000000	6.350895	0.043087	NaN	0.000000	0.001697	0.001648	28.0797	0.038741	0.001970	19.6656	111.096	-166.843	0.067647	0.349150	-1.388890	-1.390174	0.043087	19.6656	-1.390533	-3.865256E+18	-1.114721E-20	NaN
245	1.000000	0.408440	7.36744e+06	-50889.1	955.818	-29753.9	0.000000	0.000000	6.408901	0.029562	NaN	0.000000	0.001615	0.001626	28.0794	0.092026	0.002075	44.3484	-78.9447	14.864	0.016257	0.407081	-1.330884	-1.332243	0.029562	44.3484	-1.331384	-6.275546E+17	-4.710673E-20	NaN
245	1.000000	0.466419	7.36744e+06	-50889.1	955.818	-29753.9	0.000000	0.000000	6.466877	-0.042833	NaN	0.000000	0.001628	0.001700	28.0787	0.025362	0.001986	12.7687	-118.386	-169.278	-0.003282	0.465131	-1.272905	-1.274193	-0.042833	12.7687	-1.270389	-9.607037E+16	4.458486E-19	NaN
245	1.000000	0.524489	7.36744e+06	-50889.1	955.818	-29753.9	0.000000	0.000000	6.524947	-0.034594	NaN	0.000000	0.001604	0.001680	28.0784	0.092078	0.002017	45.6529	130.239	13.7926	-0.026881	0.523101	-1.214835	-1.216222	-0.034594	45.6529	-1.214267	-1.705148E+16	2.028769E-18	NaN
245	1.000000	0.582522	7.36744e+06	-50889.1	955.819	-29753.9	0.000000	0.000000	6.582982	0.020644	NaN	0.000000	0.001617	0.001669	28.0782	0.105965	0.001937	54.6944	65.7108	-167.117	0.052843	0.581187	-1.156802	-1.158137	0.020644	54.6944	-1.157085	-2.922812E+15	-7.063049E-18	NaN
245	1.000000	0.640515	7.36744e+06	-50889.1	955.818	-29753.9	0.000000	0.000000	6.640976	0.026412	NaN	0.000000	0.001640	0.001706	28.0795	0.008461	0.001963	4.311292	44.7305	13.0513	0.049724	0.639166	-1.098809	-1.100157	0.026412	4.311292	-1.103403	-5.568692E+14	-4.742856E-17	NaN
245	1.000000	0.698576	7.36745e+06	-50889.1	955.819	-29753.9	0.000000	0.000000	6.699034	-0.031180	NaN	0.000000	0.001621	0.001686	28.0797	0.032968	0.002026	16.275	-20.3768	-169.58	0.057727	0.697204	-1.040748	-1.042119	-0.031180	16.275	-1.039311	-7.668385E+13	4.066051E-16	NaN
245	1.000000	0.756600	7.36745e+06	-50889.1	955.819	-29753.9	0.000000	0.000000	6.757060	0.009655	NaN	0.000000	0.001607	0.001615	28.0784	0.049477	0.001783	27.744	-69.3369	16.4049	-0.017865	0.755230	-0.982723	-0.984094	0.009655	27.744	-0.982984	-1.338492E+13	-7.213255E-16	NaN
245	1.000000	0.814605	7.36745e+06	-50889.1	955.817	-29753.9	0.000000	0.000000	6.815065	0.011175	NaN	0.000000	0.001616	0.001677	28.0786	0.058285	0.001876	31.0637	113.618	-169.954	0.045091	0.813237	-0.924719	-0.926086	0.011175	31.0637	-0.924989	-2.210845E+12	-5.054834E-15	NaN
245	1.000000	0.872623	7.36745e+06	-50889.1	955.818	-29753.9	0.000000	0.000000	6.873083	0.008526	NaN	0.000000	0.001632	0.001691	28.0799	0.079172	0.001991	39.7607	-170.759	12.4919	-0.019035	0.871300	-0.866701	-0.868023	0.008526	39.7607	-0.866862	-3.622282E+11	-2.353768E-14	NaN
245	1.000000	0.930646	7.36745e+06	-50889.1	955.818	-29753.9	0.000000	0.000000	6.931106	0.011334	NaN	0.000000	0.001572	0.001688	28.0802	0.066220	0.001941	34.1137	-144.384	-165.733	-0.029151	0.929298	-0.808678	-0.810026	0.011334	34.1137	-0.808927	-5.943081E+10	-1.907095E-13	NaN
245	1.000000	0.988673	7.36745e+06	-50889.1	955.818	-29753.9	0.000000	0.000000	6.989131	-0.043600	NaN	0.000000	0.001583	0.001666	28.0797	0.168354	0.002009	83.7942	130.07	15.1916	0.028919	0.987354	-0.750651	-0.751969	-0.043600	83.7942	-0.750261	-9.479080E+9	4.599566E-12	NaN
245	1.000000	1.046688	7.36745e+06	-50889.1	955.819	-29753.9	0.000000	0.000000	7.047149	0.036366	NaN	0.000000	0.001667	0.001686	28.0785	0.041433	0.002011	20.6049	-118.346	-164.411	0.005466	1.045401	-0.692635	-0.693923	0.036366	20.6049	-0.693959	-1.618146E+9	-2.247409E-11	NaN
245	1.000000	1.104730	7.36745e+06	-50889.1	955.819	-29753.9	0.000000	0.000000	7.105189	-0.031951	NaN	0.000000	0.001655	0.001700	28.0785	0.109726	0.001936	56.6655	-114.398	12.8122	0.045478	1.103390	-0.634593	-0.635934	-0.031951	56.6655	-0.634171	-2.456324E+8	1.300782E-10	NaN
245	1.000000	1.162736	7.36745e+06	-50889.1	955.819	-29753.9	0.000000	0.000000	7.163196	0.007407	NaN	0.000000	0.001605	0.001668	28.0798	0.067318	0.001998	33.6933	27.9613	-169.672	0.036645	1.161452	-0.576588	-0.577872	0.007407	33.6933	-0.576752	-3.980122E+7	-1.861025E-10	NaN
245	1.000000	1.220761	7.36745e+06	-50889.1	955.818	-29753.9	0.000000	0.000000	7.221221	-0.010030	NaN	0.000000	0.001590	0.001735	28.0799	0.098744	0.002113	46.7411	45.1373	11.4827	-0.045910	1.219405	-0.518562	-0.519919	-0.010030	46.7411	-0.518401	-6.1853e+06	1.621506E-9	NaN
245	1.000000	1.278805	7.36745e+06	-50889.1	955.819	-29753.9	0.000000	0.000000	7.279264	-0.005731	NaN	0.000000	0.001615	0.001679	28.0785	0.062606	0.002068	30.2699	179.621	-163.792	0.016131	1.277452	-0.460519	-0.461872	-0.005731	30.2699	-0.460377	-955678	5.996389E-9	NaN
245	1.000000	1.336847	7.36745e+06	-50889.1	955.819	-29753.9	0.000000	0.000000	7.337306	-0.020988	NaN	0.000000	0.001609	0.001609	28.0786	0.036232	0.002002	18.0993	-109.42	13.6708	0.073668	1.335462	-0.402477	-0.403862	-0.020988	18.0993	-0.401607	-140900	1.489594E-7	NaN
245	1.000000	1.394843	7.36745e+06	-50889.1	955.819	-29753.9	0.000000	0.000000	7.395303	0.009161	NaN	0.000000	0.001641	0.001662	28.0786	0.025466	0.002011	12.6617	-142.769	-167.023	-0.014715	1.393554	-0.344481	-0.345770	0.009161	12.6617	-0.345023	-21612	-4.239029E-7	NaN
245	1.000000	1.452857	7.36745e+06	-50889.1	955.819	-29753.9	0.000000	0.000000	7.453318	0.044660	NaN	0.000000	0.001605	0.001679	28.08	0.112833	0.001944	58.0273	12.8951	14.7207	-0.016828	1.451526	-0.286467	-0.287798	0.044660	58.0273	-0.287044	-3012.83	-1.482328E-5	NaN
245	1.000000	1.510913	7.36745e+06	-50889.1	955.82	-29753.9	0.000000	0.000000	7.511374	0.009847	NaN	0.000000	0.001649	0.001621	28.0795	0.046978	0.002017	23.2924	-109.867	-164.585	0.059387	1.509590	-0.228410	-0.229734	0.009847	23.2924	-0.228727	-382.302	-2.575608E-5	NaN
245	1.000000	1.568924	7.36745e+06	-50889.1	955.82	-29753.9	0.000000	0.000000	7.569385	0.041183	NaN	0.000000	0.001635	0.001678	28.0785	0.048790	0.002023	24.1171	172.58	12.2999	0.037298	1.567548	-0.170400	-0.171776	0.041183	24.1171	-0.171681	-43.9287	-0.000938	NaN
245	1.000000	1.626957	7.36745e+06	-50889.1	955.82	-29753.9	0.000000	0.000000	7.627418	0.030695	NaN	0.000000	0.001627	0.001643	28.0786	0.010011	0.001859	5.386588	-13.7257	-166.925	0.023629	1.625606	-0.112367	-0.113717	0.030695	5.386588	-0.116640	-4.128586	-0.007435	NaN
245	1.000000	1.685017	7.36745e+06	-50889.1	955.819	-29753.9	0.000000	0.000000	7.685477	0.007947	NaN	0.000000	0.001600	0.001631	28.0803	0.033596	0.001938	17.3386	-61.1156	13.8111	-0.037419	1.683615	-0.054306	-0.055709	0.007947	17.3386	-0.054650	-0.125746	-0.063198	NaN
245	1.000000	1.742954	7.36745e+06	-50889.1	955.819	-29753.9	0.000000	0.000000	7.743535	2.930630	NaN	0.000000	0.001573	0.001629	28.08	3.750449	0.001768	2121.43	7.791160	-171.53	1.565815	1.741717	0.003631	0.002394	2.930630	2121.43	0.002595	0.002041	1435.59	42898.1
245	2.000000	1.761060	7.36745e+06	-50889.1	955.818	-29753.9	0.000000	0.000000	7.762670	27.9757	NaN	0.000000	0.001581	0.001600	28.0799	21.5888	0.001889	11425.7	9.074217	2.080762	31.6264	1.760678	0.021736	0.021354	27.9757	11425.7	0.019900	0.022385	1249.74	69771.3
245	2.000000	1.775501	7.36745e+06	-50889.1	955.819	-29753.9	0.000000	0.000000	7.778918	71.892	NaN	0.000000	0.001575	0.001702	28.0785	34.7337	0.001881	18460.8	3.382159	-179.666	71.0185	1.775074	0.036178	0.035750	71.892	18460.8	0.033257	0.047765	1505.11	77173.3
245	2.000000	1.789928	7.36745e+06	-50889.1	955.818	-29753.9	0.000000	0.000000	7.795527	124.976	NaN	0.000000	0.001635	0.001652	28.0783	46.646	0.001817	25668.8	2.509754	-1.559128	123.191	1.789609	0.050604	0.050285	124.976	25668.8	0.046953	0.083228	1501.62	81291.4
245	2.000000	1.804519	7.36745e+06	-50889.1	955.819	-29753.9	0.000000	0.000000	7.812672	187.097	NaN	0.000000	0.001588	0.001673	28.0794	60.4736	0.001705	35468.3	4.664126	173.258	192.409	1.804201	0.065195	0.064877	187.097	35468.3	0.061239	0.130287	1436.04	89776.6
245	2.000000	1.818845	7.36745e+06	-50889.1	955.82	-29753.9	0.000000	0.000000	7.830655	276.01	NaN	0.000000	0.001625	0.001648	28.0796	72.4405	0.001828	39638.1	3.449450	-6.142831	272.011	1.818539	0.079521	0.079216	276.01	39638.1	0.074299	0.182013	1516.43	84885.8
245	2.000000	1.833323	7.36745e+06	-50889.1	955.82	-29753.9	0.000000	0.000000	7.849047	371.188	NaN	0.000000	0.001606	0.001676	28.0783	85.1324	0.001781	47796.8	1.573094	174.308	367.64	1.833001	0.093999	0.093677	371.188	47796.8	0.088175	0.245778	1510.26	88084.8
245	2.000000	1.846383	7.36745e+06	-50889.1	955.82	-29753.9	0.000000	0.000000	7.865751	459.806	NaN	0.000000	0.001602	0.001650	28.0785	96.1391	0.001714	56091.9	3.581989	171.411	461.7	1.846131	0.107059	0.106807	459.806	56091.9	0.100911	0.312109	1473.22	91731.8

File: 2025-07-22_16-23-58_1_246.txt
2025-07-22, 16:23:58, 1
Index	Phase	Displacement	Time	Pos X	Pos Y	Pos Z	Rot A	Rot B	Piezo Z	Force A	Force B	Gripper	Voltage A	Voltage B	Temperature	Amplitude force	Amplitude pos	Stiffness	Phase shift	Phase excitation	Force A raw	Displacement raw	HMax	HMax raw	Real Force	Real Stiffness	Contact Depth	Area	Hardness	Reduced Mod.
[#]	[#]	[um]	[s]	[um]	[um]	[um]	[m°]	[m°]	[um]	[uN]	[uN]	[V]	[V]	[V]	[°C]	[uN]	[um]	[N/m]	[°]	[°]	[uN]	[um]	[um]	[um]	[uN]	[N/m]	[um]	[um^2]	[MPa]	[MPa]
246	1.000000	0.002568	7.36745e+06	-50939.1	955.818	-29754.3	0.000000	0.000000	6.002806	0.042750	NaN	0.000000	0.001685	0.001657	28.0794	0.115435	0.000942	122.583	118.037	-168.679	0.040673	0.001259	-1.127063	-1.128372	0.042750	122.583	-1.127325	-1.166109E+15	-3.666002E-17	NaN
246	1.000000	0.044515	7.36745e+06	-50939.1	955.818	-29754.3	0.000000	0.000000	6.044753	0.040209	NaN	0.000000	0.001687	0.001617	28.0791	0.099723	0.002052	48.6048	-40.4053	11.8208	0.060282	0.043133	-1.085116	-1.086498	0.040209	48.6048	-1.085736	-3.225224E+14	-1.246714E-16	NaN
246	1.000000	0.086523	7.36746e+06	-50939.1	955.819	-29754.3	0.000000	0.000000	6.086761	0.021631	NaN	0.000000	0.001620	0.001637	28.0789	0.044503	0.002082	21.377	95.3303	-166.415	0.112227	0.085255	-1.043107	-1.044376	0.021631	21.377	-1.043866	-8.829866E+13	-2.449724E-16	NaN
246	1.000000	0.128518	7.36746e+06	-50939.1	955.819	-29754.3	0.000000	0.000000	6.128753	-0.023744	NaN	0.000000	0.001611	0.001623	28.0788	0.071144	0.001921	37.0268	10.1695	18.049	0.010039	0.127181	-1.001113	-1.002450	-0.023744	37.0268	-1.000632	-2.313564E+13	1.026278E-15	NaN
246	1.000000	0.170538	7.36746e+06	-50939.1	955.82	-29754.3	0.000000	0.000000	6.170776	0.026284	NaN	0.000000	0.001572	0.001616	28.08	0.060010	0.001919	31.2793	-45.8646	-165.3	0.040049	0.169234	-0.959092	-0.960397	0.026284	31.2793	-0.959723	-6.503234E+12	-4.041606E-15	NaN
246	1.000000	0.212597	7.36746e+06	-50939.1	955.819	-29754.3	0.000000	0.000000	6.212832	-0.041701	NaN	0.000000	0.001591	0.001572	28.0797	0.043836	0.002075	21.1291	-52.0561	13.6515	0.040957	0.211187	-0.917034	-0.918444	-0.041701	21.1291	-0.915554	-1.648810E+12	2.529186E-14	NaN
246	1.000000	0.254601	7.36746e+06	-50939.1	955.819	-29754.3	0.000000	0.000000	6.254834	-0.071897	NaN	0.000000	0.001662	0.001663	28.0798	0.041747	0.002053	20.337	1.309292	-165.238	-0.038909	0.253247	-0.875030	-0.876384	-0.071897	20.337	-0.872379	-4.301557E+11	1.671418E-13	NaN
246	1.000000	0.296612	7.36746e+06	-50939.1	955.819	-29754.3	0.000000	0.000000	6.296851	0.059367	NaN	0.000000	0.001600	0.001652	28.0783	0.032561	0.002043	15.9345	15.8901	13.7671	0.049766	0.295262	-0.833019	-0.834369	0.059367	15.9345	-0.835814	-1.375853E+11	-4.314956E-13	NaN
246	1.000000	0.338627	7.36746e+06	-50939.1	955.818	-29754.3	0.000000	0.000000	6.338866	0.057297	NaN	0.000000	0.001558	0.001617	28.0781	0.079722	0.002057	38.7601	94.8187	-165.27	-0.026414	0.337356	-0.791004	-0.792275	0.057297	38.7601	-0.792113	-3.513810E+10	-1.630635E-12	NaN
246	1.000000	0.380639	7.36746e+06	-50939.1	955.818	-29754.3	0.000000	0.000000	6.380874	-0.041381	NaN	0.000000	0.001627	0.001652	28.0784	0.084587	0.001937	43.6585	-48.6358	14.4808	0.023979	0.379339	-0.748992	-0.750292	-0.041381	43.6585	-0.748281	-8.908731E+9	4.644969E-12	NaN
246	1.000000	0.422657	7.36746e+06	-50939.1	955.818	-29754.3	0.000000	0.000000	6.422892	-0.038949	NaN	0.000000	0.001608	0.001661	28.0797	0.073455	0.001998	36.7574	-162.487	-165.684	-0.022622	0.421349	-0.706974	-0.708282	-0.038949	36.7574	-0.706179	-2.376272E+9	1.639097E-11	NaN
246	1.000000	0.464682	7.36746e+06	-50939.1	955.818	-29754.3	0.000000	0.000000	6.464918	-0.013323	NaN	0.000000	0.001621	0.001634	28.0799	0.081577	0.001987	41.0594	-65.943	16.2549	0.020353	0.463363	-0.664949	-0.666268	-0.013323	41.0594	-0.664706	-6.440416E+8	2.068708E-11	NaN
246	1.000000	0.506714	7.36746e+06	-50939.1	955.818	-29754.3	0.000000	0.000000	6.506950	-0.014157	NaN	0.000000	0.001638	0.001611	28.0797	0.064351	0.001924	33.4452	9.417960	-164.548	0.015528	0.505439	-0.622917	-0.624192	-0.014157	33.4452	-0.622599	-1.703561E+8	8.310497E-11	NaN
246	1.000000	0.548694	7.36746e+06	-50939.1	955.818	-29754.3	0.000000	0.000000	6.548931	-0.006307	NaN	0.000000	0.001624	0.001609	28.0787	0.152060	0.002128	71.4638	-159.873	13.037	-0.031515	0.547355	-0.580937	-0.582276	-0.006307	71.4638	-0.580870	-4.536675E+7	1.390167E-10	NaN
246	1.000000	0.590765	7.36746e+06	-50939.1	955.818	-29754.3	0.000000	0.000000	6.591001	-0.019411	NaN	0.000000	0.001621	0.001654	28.0786	0.085228	0.002027	42.0404	-15.802	-163.446	-0.091344	0.589414	-0.538866	-0.540216	-0.019411	42.0404	-0.538519	-1.177122E+7	1.649028E-9	NaN
246	1.000000	0.632769	7.36746e+06	-50939.1	955.818	-29754.3	0.000000	0.000000	6.633006	0.009187	NaN	0.000000	0.001620	0.001630	28.0785	0.048404	0.001897	25.5211	-143.981	17.2258	0.016895	0.631403	-0.496862	-0.498228	0.009187	25.5211	-0.497132	-3.12603e+06	-2.938981E-9	NaN
246	1.000000	0.674766	7.36746e+06	-50939.1	955.819	-29754.3	0.000000	0.000000	6.675002	-0.016316	NaN	0.000000	0.001591	0.001607	28.0787	0.113116	0.001943	58.2194	120.504	-167.334	-0.003592	0.673431	-0.454865	-0.456200	-0.016316	58.2194	-0.454654	-794064	2.054697E-8	NaN
246	1.000000	0.716816	7.36746e+06	-50939.1	955.819	-29754.3	0.000000	0.000000	6.717053	0.012524	NaN	0.000000	0.001561	0.001609	28.0801	0.063504	0.001932	32.8729	-83.9744	15.72	-0.093072	0.715460	-0.412815	-0.414171	0.012524	32.8729	-0.413100	-205338	-6.099025E-8	NaN
246	1.000000	0.758832	7.36746e+06	-50939.1	955.819	-29754.3	0.000000	0.000000	6.759070	0.029625	NaN	0.000000	0.001599	0.001587	28.0802	0.047151	0.002017	23.3753	139.193	-166.762	0.002002	0.757516	-0.370798	-0.372115	0.029625	23.3753	-0.371749	-52638.9	-5.627916E-7	NaN
246	1.000000	0.800831	7.36746e+06	-50939.1	955.819	-29754.3	0.000000	0.000000	6.801069	0.018819	NaN	0.000000	0.001595	0.001619	28.0802	0.051946	0.001869	27.7988	-131.346	14.5546	0.011551	0.799434	-0.328799	-0.330197	0.018819	27.7988	-0.329307	-12743.9	-1.476718E-6	NaN
246	1.000000	0.842813	7.36746e+06	-50939.1	955.819	-29754.3	0.000000	0.000000	6.843052	0.047104	NaN	0.000000	0.001669	0.001597	28.0786	0.055554	0.002099	26.4682	-90.396	-168.104	-0.011757	0.841566	-0.286818	-0.288065	0.047104	26.4682	-0.288152	-3130.44	-1.504715E-5	NaN
246	1.000000	0.884890	7.36746e+06	-50939.1	955.818	-29754.3	0.000000	0.000000	6.885129	0.057273	NaN	0.000000	0.001625	0.001665	28.0786	0.082142	0.001926	42.6546	-158.16	14.666	-0.038057	0.883477	-0.244741	-0.246154	0.057273	42.6546	-0.245748	-706.426	-8.107408E-5	NaN
246	1.000000	0.926895	7.36746e+06	-50939.1	955.817	-29754.3	0.000000	0.000000	6.927130	-0.034737	NaN	0.000000	0.001608	0.001672	28.0785	0.056459	0.001987	28.4186	157.158	-164.751	0.012244	0.925591	-0.202736	-0.204040	-0.034737	28.4186	-0.201819	-141.11	0.000246	NaN
246	1.000000	0.968893	7.36746e+06	-50939.1	955.818	-29754.3	0.000000	0.000000	6.969129	-0.019740	NaN	0.000000	0.001665	0.001658	28.0797	0.035653	0.001791	19.9028	-65.6646	12.6156	-0.007456	0.967557	-0.160738	-0.162074	-0.019740	19.9028	-0.159994	-27.4083	0.000720	NaN
246	1.000000	1.010906	7.36746e+06	-50939.1	955.816	-29754.3	0.000000	0.000000	7.011138	-0.095652	NaN	0.000000	0.001628	0.001686	28.0795	0.078454	0.002088	37.5691	-93.9283	-168.803	-0.042927	1.009538	-0.118725	-0.120093	-0.095652	37.5691	-0.116816	-4.162797	0.022978	NaN
246	1.000000	1.052917	7.36746e+06	-50939.1	955.817	-29754.3	0.000000	0.000000	7.053154	0.003081	NaN	0.000000	0.001603	0.001664	28.0794	0.147960	0.002085	70.9609	-61.4337	12.0858	0.012762	1.051606	-0.076714	-0.078025	0.003081	70.9609	-0.076746	-0.512189	-0.006016	NaN
246	1.000000	1.094925	7.36746e+06	-50939.1	955.818	-29754.3	0.000000	0.000000	7.095159	-0.053557	NaN	0.000000	0.001619	0.001648	28.0784	0.064022	0.002076	30.8463	-39.6464	-163.764	-0.025956	1.093662	-0.034706	-0.035969	-0.053557	30.8463	-0.033404	-0.028763	1.862035	NaN
246	1.000000	1.136917	7.36746e+06	-50939.1	955.817	-29754.3	0.000000	0.000000	7.137465	7.585162	NaN	0.000000	0.001638	0.001685	28.0786	7.100514	0.001904	3729.56	12.9618	5.525266	6.710654	1.135531	0.007286	0.005900	7.585162	3729.56	0.005760	0.004838	1567.8	48988.4
246	2.000000	1.148469	7.36746e+06	-50939.1	955.817	-29754.3	0.000000	0.000000	7.149752	25.4378	NaN	0.000000	0.001595	0.001650	28.0786	19.3817	0.001709	11337.9	8.484318	-179.176	25.2292	1.148160	0.018838	0.018529	25.4378	11337.9	0.017155	0.018268	1392.48	76640.7
246	2.000000	1.158946	7.36746e+06	-50939.1	955.818	-29754.3	0.000000	0.000000	7.161405	54.0466	NaN	0.000000	0.001589	0.001635	28.0786	29.3037	0.001811	16179.2	3.758609	1.700631	52.6055	1.158644	0.029315	0.029014	54.0466	16179.2	0.026809	0.034390	1571.59	79710.5
246	2.000000	1.169436	7.36746e+06	-50939.1	955.818	-29754.3	0.000000	0.000000	7.173486	92.7252	NaN	0.000000	0.001637	0.001669	28.0797	39.6006	0.001710	23157.2	5.587845	175.564	91.2741	1.169053	0.039805	0.039422	92.7252	23157.2	0.036802	0.056026	1655.04	89385.1
246	2.000000	1.179894	7.36746e+06	-50939.1	955.817	-29754.3	0.000000	0.000000	7.185771	137.158	NaN	0.000000	0.001570	0.001658	28.0797	49.6116	0.001800	27563.1	3.346012	-2.450738	135.808	1.179561	0.050263	0.049931	137.158	27563.1	0.046531	0.081993	1672.79	87945.1
246	2.000000	1.190345	7.36746e+06	-50939.1	955.817	-29754.3	0.000000	0.000000	7.198264	186.804	NaN	0.000000	0.001639	0.001628	28.0799	61.0688	0.001805	33830.1	5.216247	173.067	182.733	1.190101	0.060714	0.060470	186.804	33830.1	0.056573	0.113807	1641.41	91620.2
246	2.000000	1.200900	7.36746e+06	-50939.1	955.819	-29754.3	0.000000	0.000000	7.211692	256.673	NaN	0.000000	0.001628	0.001606	28.0786	71.2645	0.001901	37488.5	6.747859	-8.611507	255.304	1.200478	0.071269	0.070847	256.673	37488.5	0.066134	0.148719	1725.9	88815.4
246	2.000000	1.211357	7.36746e+06	-50939.1	955.818	-29754.3	0.000000	0.000000	7.224865	322.74	NaN	0.000000	0.001637	0.001602	28.0786	82.5199	0.001929	42788.1	2.566330	174.742	322.295	1.211006	0.081726	0.081375	322.74	42788.1	0.076069	0.189647	1701.79	89768.5
246	2.000000	1.221823	7.36746e+06	-50939.1	955.818	-29754.3	0.000000	0.000000	7.238482	399.34	NaN	0.000000	0.001616	0.001617	28.0787	91.1488	0.001740	52393.5	6.193296	-10.8774	395.461	1.221500	0.092192	0.091869	399.34	52393.5	0.086476	0.237493	1681.48	98225.8
246	2.000000	1.232412	7.36746e+06	-50939.1	955.819	-29754.3	0.000000	0.000000	7.252876	491.869	NaN	0.000000	0.001613	0.001611	28.0797	99.0791	0.001715	57764.7	1.755982	174.035	493.054	1.231954	0.102782	0.102323	491.869	57764.7	0.096395	0.287744	1709.4	98385.7
246	2.000000	1.236892	7.36746e+06	-50939.1	955.818	-29754.3	0.000000	0.000000	7.259007	532.017	NaN	0.000000	0.001591	0.001606	28.0798	105.492	0.001763	59847	7.975641	-12.8032	530.906	1.236497	0.107262	0.106866	532.017	59847	0.100594	0.310371	1714.14	98146.6