Folder: unikorn_login/remote_trans/data/nanoindenter/0828-1/data/Data_2025-08-06,11h17m57s (part 53)

File: 2025-07-22_16-23-58_1_123.txt
2025-07-22, 16:23:58, 1
Index	Phase	Displacement	Time	Pos X	Pos Y	Pos Z	Rot A	Rot B	Piezo Z	Force A	Force B	Gripper	Voltage A	Voltage B	Temperature	Amplitude force	Amplitude pos	Stiffness	Phase shift	Phase excitation	Force A raw	Displacement raw	HMax	HMax raw	Real Force	Real Stiffness	Contact Depth	Area	Hardness	Reduced Mod.
[#]	[#]	[um]	[s]	[um]	[um]	[um]	[m°]	[m°]	[um]	[uN]	[uN]	[V]	[V]	[V]	[°C]	[uN]	[um]	[N/m]	[°]	[°]	[uN]	[um]	[um]	[um]	[uN]	[N/m]	[um]	[um^2]	[MPa]	[MPa]
123	1.000000	0.002241	7.36624e+06	-44789.1	955.819	-29775.1	0.000000	0.000000	6.002820	-0.078322	NaN	0.000000	0.001504	0.001673	28.0926	0.171746	0.000913	188.059	-153.935	-161.569	-0.091868	0.000935	-1.209800	-1.211106	-0.078322	188.059	-1.209487	-1.471565E+16	5.322391E-18	NaN
123	1.000000	0.046118	7.36624e+06	-44789.1	955.818	-29775.1	0.000000	0.000000	6.046697	-0.077990	NaN	0.000000	0.001543	0.001701	28.1021	0.090702	0.001866	48.6096	-141.027	-162.23	-0.114942	0.044845	-1.165923	-1.167196	-0.077990	48.6096	-1.164720	-3.699360E+15	2.108209E-17	NaN
123	1.000000	0.090157	7.36624e+06	-44789.1	955.818	-29775.1	0.000000	0.000000	6.090739	-0.003687	NaN	0.000000	0.001598	0.001670	28.0907	0.063339	0.001993	31.7818	135.582	-167.087	0.002068	0.088858	-1.121884	-1.123183	-0.003687	31.7818	-1.121797	-9.830625E+14	3.750197E-18	NaN
123	1.000000	0.134177	7.36624e+06	-44789.1	955.818	-29775.1	0.000000	0.000000	6.134756	-0.061116	NaN	0.000000	0.001568	0.001685	28.1024	0.046871	0.002055	22.8031	70.2003	-164.818	-0.075347	0.132906	-1.077864	-1.079135	-0.061116	22.8031	-1.075854	-2.375926E+14	2.572299E-16	NaN
123	1.000000	0.178218	7.36624e+06	-44789.1	955.819	-29775.1	0.000000	0.000000	6.178799	-0.036422	NaN	0.000000	0.001587	0.001688	28.09	0.158504	0.002065	76.754	122.803	-164.985	0.010606	0.176902	-1.033823	-1.035139	-0.036422	76.754	-1.033467	-6.399058E+13	5.691743E-16	NaN
123	1.000000	0.222234	7.36624e+06	-44789.1	955.818	-29775.1	0.000000	0.000000	6.222815	-0.036845	NaN	0.000000	0.001619	0.001669	28.1042	0.061034	0.002081	29.3332	-19.9911	-160.747	-0.058350	0.221002	-0.989807	-0.991039	-0.036845	29.3332	-0.988865	-1.606277E+13	2.293814E-15	NaN
123	1.000000	0.266293	7.36624e+06	-44789.1	955.819	-29775.1	0.000000	0.000000	6.266871	-0.095919	NaN	0.000000	0.001578	0.001703	28.092	0.202468	0.001897	106.749	-75.3238	-163.511	0.008263	0.264930	-0.945748	-0.947111	-0.095919	106.749	-0.945074	-4.126553E+12	2.324431E-14	NaN
123	1.000000	0.310291	7.36624e+06	-44789.1	955.818	-29775.1	0.000000	0.000000	6.310871	-0.070916	NaN	0.000000	0.001643	0.001693	28.1046	0.033296	0.001920	17.3403	54.6389	-164.311	-0.064993	0.308971	-0.901750	-0.903070	-0.070916	17.3403	-0.898682	-9.755780E+11	7.269134E-14	NaN
123	1.000000	0.354303	7.36624e+06	-44789.1	955.818	-29775.1	0.000000	0.000000	6.354881	-0.103680	NaN	0.000000	0.001586	0.001645	28.0898	0.090784	0.001914	47.443	125.801	-162.838	-0.009808	0.352983	-0.857738	-0.859058	-0.103680	47.443	-0.856099	-2.590052E+11	4.003014E-13	NaN
123	1.000000	0.398325	7.36624e+06	-44789.1	955.817	-29775.1	0.000000	0.000000	6.398907	-0.014459	NaN	0.000000	0.001567	0.001692	28.1039	0.120921	0.002045	59.1206	58.3227	-165.763	-0.036938	0.397037	-0.813715	-0.815004	-0.014459	59.1206	-0.813532	-6.862589E+10	2.106863E-13	NaN
123	1.000000	0.442350	7.36624e+06	-44789.1	955.819	-29775.1	0.000000	0.000000	6.442932	-0.013775	NaN	0.000000	0.001577	0.001734	28.09	0.071179	0.002024	35.1693	133.742	-165.135	-0.051076	0.441019	-0.769691	-0.771022	-0.013775	35.1693	-0.769397	-1.726280E+10	7.979671E-13	NaN
123	1.000000	0.486349	7.36624e+06	-44789.1	955.819	-29775.1	0.000000	0.000000	6.486929	-0.050716	NaN	0.000000	0.001549	0.001703	28.1041	0.088179	0.001965	44.8738	134.048	-164.794	-0.058211	0.485026	-0.725692	-0.727015	-0.050716	44.8738	-0.724844	-4.271019E+9	1.187435E-11	NaN
123	1.000000	0.530375	7.36624e+06	-44789.1	955.818	-29775.1	0.000000	0.000000	6.530957	-0.016001	NaN	0.000000	0.001561	0.001749	28.0914	0.033061	0.002017	16.3928	168.278	-167.088	0.034254	0.529041	-0.681666	-0.683000	-0.016001	16.3928	-0.680934	-1.073932E+9	1.489901E-11	NaN
123	1.000000	0.574407	7.36624e+06	-44789.1	955.818	-29775.1	0.000000	0.000000	6.574988	-0.045550	NaN	0.000000	0.001594	0.001654	28.1047	0.036070	0.002141	16.8505	-151.722	-158.493	-0.018077	0.573141	-0.637634	-0.638900	-0.045550	16.8505	-0.635606	-2.570365E+8	1.772131E-10	NaN
123	1.000000	0.618379	7.36624e+06	-44789.1	955.818	-29775.1	0.000000	0.000000	6.618957	-0.115241	NaN	0.000000	0.001572	0.001621	28.0895	0.070431	0.002089	33.709	-108.385	-163.88	-0.047292	0.617131	-0.593662	-0.594910	-0.115241	33.709	-0.591098	-6.277657E+7	1.835738E-9	NaN
123	1.000000	0.662458	7.36624e+06	-44789.1	955.818	-29775.1	0.000000	0.000000	6.663038	-0.053189	NaN	0.000000	0.001571	0.001657	28.1049	0.098735	0.001851	53.3356	-51.3831	-164.417	0.112757	0.661136	-0.549583	-0.550905	-0.053189	53.3356	-0.548835	-1.636116E+7	3.250947E-9	NaN
123	1.000000	0.706433	7.36624e+06	-44789.1	955.818	-29775.1	0.000000	0.000000	6.707011	-0.081793	NaN	0.000000	0.001522	0.001704	28.0902	0.050747	0.001878	27.0166	0.706142	-161.936	-0.101541	0.705104	-0.505608	-0.506937	-0.081793	27.0166	-0.503338	-3.81567e+06	2.143603E-8	NaN
123	1.000000	0.750472	7.36624e+06	-44789.1	955.818	-29775.1	0.000000	0.000000	6.751053	-0.028938	NaN	0.000000	0.001558	0.001690	28.1069	0.082681	0.001982	41.7159	-6.551262	-163.299	-0.058421	0.749194	-0.461569	-0.462847	-0.028938	41.7159	-0.461049	-976692	2.962891E-8	NaN
123	1.000000	0.794512	7.36624e+06	-44789.1	955.818	-29775.1	0.000000	0.000000	6.795093	-0.023458	NaN	0.000000	0.001554	0.001716	28.0909	0.063979	0.002118	30.2024	1.156819	-162.879	0.010767	0.793161	-0.417529	-0.418880	-0.023458	30.2024	-0.416947	-232859	1.007384E-7	NaN
123	1.000000	0.838488	7.36624e+06	-44789.1	955.818	-29775.1	0.000000	0.000000	6.839070	-0.003610	NaN	0.000000	0.001502	0.001686	28.1072	0.100897	0.002040	49.4502	-165.306	-164.47	-0.031686	0.837212	-0.373553	-0.374829	-0.003610	49.4502	-0.373498	-55779.5	6.471931E-8	NaN
123	1.000000	0.882533	7.36624e+06	-44789.1	955.818	-29775.1	0.000000	0.000000	6.883114	-0.042614	NaN	0.000000	0.001559	0.001689	28.0887	0.018071	0.001984	9.106961	-123.915	-164.202	0.001593	0.881254	-0.329508	-0.330787	-0.042614	9.106961	-0.325998	-11397	3.739013E-6	NaN
123	1.000000	0.926552	7.36624e+06	-44789.1	955.819	-29775.1	0.000000	0.000000	6.927134	-0.002273	NaN	0.000000	0.001585	0.001695	28.1084	0.034868	0.002011	17.3359	-56.8273	-159.555	-0.058615	0.925253	-0.285489	-0.286788	-0.002273	17.3359	-0.285391	-2845.39	7.987896E-7	NaN
123	1.000000	0.970540	7.36624e+06	-44789.1	955.819	-29775.1	0.000000	0.000000	6.971120	-0.048512	NaN	0.000000	0.001553	0.001677	28.087	0.021590	0.002061	10.4756	110.318	-164.34	-0.016601	0.969246	-0.241501	-0.242795	-0.048512	10.4756	-0.238028	-535.449	9.060144E-5	NaN
123	1.000000	1.014583	7.36624e+06	-44789.1	955.819	-29775.1	0.000000	0.000000	7.015161	-0.091692	NaN	0.000000	0.001563	0.001710	28.1098	0.126248	0.001908	66.1529	-71.6285	-164.93	-0.090722	1.013248	-0.197458	-0.198793	-0.091692	66.1529	-0.196419	-114.994	0.000797	NaN
123	1.000000	1.058554	7.36624e+06	-44789.1	955.818	-29775.1	0.000000	0.000000	7.059132	-0.103047	NaN	0.000000	0.001577	0.001682	28.0883	0.039039	0.002015	19.3749	-43.2183	-166.758	-0.163027	1.057237	-0.153487	-0.154804	-0.103047	19.3749	-0.149498	-17.7358	0.005810	NaN
123	1.000000	1.102612	7.36624e+06	-44789.1	955.819	-29775.1	0.000000	0.000000	7.103192	-0.064766	NaN	0.000000	0.001544	0.001665	28.1092	0.068558	0.002010	34.1146	30.4937	-164.514	-0.033122	1.101330	-0.109429	-0.110711	-0.064766	34.1146	-0.108005	-2.726489	0.023755	NaN
123	1.000000	1.146637	7.36625e+06	-44789.1	955.819	-29775.1	0.000000	0.000000	7.147215	-0.099678	NaN	0.000000	0.001585	0.001691	28.0874	0.029833	0.001980	15.0671	21.1614	-164.333	-0.077497	1.145288	-0.065404	-0.066753	-0.099678	15.0671	-0.060442	-0.185426	0.537563	NaN
123	1.000000	1.190660	7.36625e+06	-44789.1	955.818	-29775.1	0.000000	0.000000	7.191238	-0.096009	NaN	0.000000	0.001573	0.001668	28.1093	0.079325	0.001921	41.3018	-128.127	-167.582	-0.106348	1.189316	-0.021381	-0.022725	-0.096009	41.3018	-0.019637	-0.012297	7.807647	NaN
123	2.000000	1.225101	7.36625e+06	-44789.1	955.819	-29775.1	0.000000	0.000000	7.226201	12.5812	NaN	0.000000	0.001519	0.001703	28.0872	12.3688	0.001662	7442.9	8.873345	-173.786	12.6597	1.224848	0.013061	0.012807	12.5812	7442.9	0.011793	0.011243	1119.04	64132.5
123	2.000000	1.236081	7.36625e+06	-44789.1	955.819	-29775.1	0.000000	0.000000	7.238188	37.0931	NaN	0.000000	0.001568	0.001710	28.1108	23.1436	0.001811	12778.1	2.220843	-172.906	36.6446	1.235721	0.024040	0.023680	37.0931	12778.1	0.021862	0.025554	1451.56	73031.7
123	2.000000	1.247038	7.36625e+06	-44789.1	955.819	-29775.1	0.000000	0.000000	7.250224	63.3407	NaN	0.000000	0.001564	0.001675	28.0886	35.1175	0.001736	20225.5	4.925186	179.767	63.3075	1.246818	0.034997	0.034777	63.3407	20225.5	0.032648	0.046412	1364.75	85774.6
123	2.000000	1.257957	7.36625e+06	-44789.1	955.819	-29775.1	0.000000	0.000000	7.262884	105.708	NaN	0.000000	0.001557	0.001707	28.1103	45.3857	0.001776	25560.9	7.124925	174.667	102.547	1.257739	0.045916	0.045698	105.708	25560.9	0.042814	0.071503	1478.37	87334.5
123	2.000000	1.269029	7.36625e+06	-44789.1	955.82	-29775.1	0.000000	0.000000	7.275875	152.388	NaN	0.000000	0.001540	0.001699	28.0875	55.3304	0.001789	30921.8	6.533546	174.526	153.295	1.268725	0.056988	0.056684	152.388	30921.8	0.053292	0.102859	1481.53	88088.1
123	2.000000	1.280054	7.36625e+06	-44789.1	955.819	-29775.1	0.000000	0.000000	7.289231	209.083	NaN	0.000000	0.001593	0.001724	28.1094	66.6958	0.001765	37789.2	4.526617	175.274	214.428	1.279748	0.068013	0.067707	209.083	37789.2	0.063863	0.140025	1493.18	92265.2
123	2.000000	1.290887	7.36625e+06	-44789.1	955.819	-29775.1	0.000000	0.000000	7.302846	276.765	NaN	0.000000	0.001554	0.001734	28.0866	75.4599	0.001773	42552	4.392688	174.121	273.222	1.290608	0.078846	0.078567	276.765	42552	0.073968	0.180601	1532.47	91481.4
123	2.000000	1.302019	7.36625e+06	-44789.1	955.819	-29775.1	0.000000	0.000000	7.317244	356.221	NaN	0.000000	0.001578	0.001776	28.1101	86.6163	0.001771	48921.5	8.582295	168.875	357.393	1.301632	0.089978	0.089591	356.221	48921.5	0.084517	0.228102	1561.67	93585.4
123	2.000000	1.313004	7.36625e+06	-44789.1	955.819	-29775.1	0.000000	0.000000	7.331993	447.789	NaN	0.000000	0.001560	0.001739	28.088	98.1596	0.001896	51777.9	6.266908	171.31	448.383	1.312605	0.100963	0.100564	447.789	51777.9	0.094477	0.277674	1612.64	89773.8
123	2.000000	1.320482	7.36625e+06	-44789.1	955.819	-29775.1	0.000000	0.000000	7.342013	509.626	NaN	0.000000	0.001623	0.001695	28.0827	105.589	0.001777	59432.1	8.041874	-11.1955	510.123	1.320034	0.108441	0.107993	509.626	59432.1	0.102010	0.318180	1601.69	96262.6

File: 2025-07-22_16-23-58_1_124.txt
2025-07-22, 16:23:58, 1
Index	Phase	Displacement	Time	Pos X	Pos Y	Pos Z	Rot A	Rot B	Piezo Z	Force A	Force B	Gripper	Voltage A	Voltage B	Temperature	Amplitude force	Amplitude pos	Stiffness	Phase shift	Phase excitation	Force A raw	Displacement raw	HMax	HMax raw	Real Force	Real Stiffness	Contact Depth	Area	Hardness	Reduced Mod.
[#]	[#]	[um]	[s]	[um]	[um]	[um]	[m°]	[m°]	[um]	[uN]	[uN]	[V]	[V]	[V]	[°C]	[uN]	[um]	[N/m]	[°]	[°]	[uN]	[um]	[um]	[um]	[uN]	[N/m]	[um]	[um^2]	[MPa]	[MPa]
124	1.000000	0.002084	7.36625e+06	-44839.1	955.818	-29775	0.000000	0.000000	6.002780	0.064498	NaN	0.000000	0.001614	0.001808	28.0852	0.096544	0.000872	110.653	153.048	-165.154	0.018676	0.000861	-1.111887	-1.113110	0.064498	110.653	-1.112325	-7.336408E+14	-8.791495E-17	NaN
124	1.000000	0.044042	7.36625e+06	-44839.1	955.818	-29775	0.000000	0.000000	6.044736	-0.010055	NaN	0.000000	0.001521	0.001795	28.1232	0.036077	0.002040	17.6815	-32.0212	18.7871	0.052537	0.042749	-1.069929	-1.071223	-0.010055	17.6815	-1.069503	-1.952129E+14	5.150679E-17	NaN
124	1.000000	0.086084	7.36625e+06	-44839.1	955.819	-29775	0.000000	0.000000	6.086777	-0.025776	NaN	0.000000	0.001538	0.001747	28.1169	0.096495	0.001984	48.6427	-40.6908	-165.81	0.054692	0.084789	-1.027888	-1.029183	-0.025776	48.6427	-1.027490	-5.317657E+13	4.847196E-16	NaN
124	1.000000	0.128103	7.36625e+06	-44839.1	955.818	-29775	0.000000	0.000000	6.128797	-0.000743	NaN	0.000000	0.001524	0.001757	28.0833	0.043461	0.001949	22.3036	-155.954	15.989	0.002415	0.126749	-0.985868	-0.987222	-0.000743	22.3036	-0.985843	-1.462597E+13	5.079046E-17	NaN
124	1.000000	0.170119	7.36625e+06	-44839.1	955.818	-29775	0.000000	0.000000	6.170816	0.073188	NaN	0.000000	0.001527	0.001784	28.0864	0.058443	0.002082	28.0741	-167.93	-162.429	0.083480	0.168793	-0.943852	-0.945178	0.073188	28.0741	-0.945807	-4.221597E+12	-1.733664E-14	NaN
124	1.000000	0.212111	7.36625e+06	-44839.1	955.819	-29775	0.000000	0.000000	6.212806	0.030596	NaN	0.000000	0.001529	0.001792	28.1222	0.099800	0.002064	48.3419	-12.6945	12.6769	0.083744	0.210775	-0.901861	-0.903197	0.030596	48.3419	-0.902336	-1.093009E+12	-2.799207E-14	NaN
124	1.000000	0.254121	7.36625e+06	-44839.1	955.817	-29775	0.000000	0.000000	6.254816	0.034062	NaN	0.000000	0.001557	0.001785	28.1167	0.043668	0.002008	21.7504	-37.7578	-161.437	0.030227	0.252846	-0.859850	-0.861125	0.034062	21.7504	-0.861025	-3.019892E+11	-1.127911E-13	NaN
124	1.000000	0.296173	7.36625e+06	-44839.1	955.818	-29775	0.000000	0.000000	6.296869	0.046879	NaN	0.000000	0.001560	0.001786	28.081	0.101241	0.001926	52.5711	-154.745	12.929	-0.048840	0.294748	-0.817798	-0.819223	0.046879	52.5711	-0.818467	-8.006087E+10	-5.855378E-13	NaN
124	1.000000	0.338202	7.36625e+06	-44839.1	955.818	-29775	0.000000	0.000000	6.338898	0.056941	NaN	0.000000	0.001574	0.001757	28.0861	0.111371	0.002034	54.7447	111.143	-166.778	-0.009276	0.336892	-0.775769	-0.777079	0.056941	54.7447	-0.776549	-2.159413E+10	-2.636851E-12	NaN
124	1.000000	0.380181	7.36625e+06	-44839.1	955.818	-29775	0.000000	0.000000	6.380877	0.043499	NaN	0.000000	0.001560	0.001780	28.1224	0.131066	0.002028	64.6329	118.926	16.0045	0.107614	0.378874	-0.733790	-0.735097	0.043499	64.6329	-0.734295	-5.745661E+9	-7.570770E-12	NaN
124	1.000000	0.422206	7.36625e+06	-44839.1	955.818	-29775	0.000000	0.000000	6.422903	0.059694	NaN	0.000000	0.001638	0.001759	28.1187	0.037747	0.002044	18.4702	137.614	-162.697	0.017290	0.420902	-0.691765	-0.693069	0.059694	18.4702	-0.694189	-1.629885E+9	-3.662455E-11	NaN
124	1.000000	0.464237	7.36625e+06	-44839.1	955.819	-29775	0.000000	0.000000	6.464935	0.099274	NaN	0.000000	0.001579	0.001761	28.0812	0.100380	0.001986	50.5349	-93.8521	17.3862	0.131800	0.462865	-0.649735	-0.651107	0.099274	50.5349	-0.651208	-4.207243E+8	-2.359603E-10	NaN
124	1.000000	0.506241	7.36625e+06	-44839.1	955.819	-29775	0.000000	0.000000	6.506934	-0.031765	NaN	0.000000	0.001602	0.001778	28.0838	0.158662	0.001932	82.1044	-157.13	-169.772	-0.043776	0.504935	-0.607730	-0.609036	-0.031765	82.1044	-0.607440	-1.054115E+8	3.013396E-10	NaN
124	1.000000	0.548241	7.36625e+06	-44839.1	955.818	-29775	0.000000	0.000000	6.548938	0.078574	NaN	0.000000	0.001583	0.001786	28.1213	0.060802	0.002010	30.2437	-167.492	15.2574	-0.046101	0.546889	-0.565731	-0.567082	0.078574	30.2437	-0.567679	-2.982380E+7	-2.634607E-9	NaN
124	1.000000	0.590296	7.36625e+06	-44839.1	955.819	-29775	0.000000	0.000000	6.590992	0.048848	NaN	0.000000	0.001649	0.001758	28.1187	0.098896	0.001942	50.9217	-49.5601	-167.688	-0.002728	0.588950	-0.523675	-0.525022	0.048848	50.9217	-0.524395	-7.49373e+06	-6.518546E-9	NaN
124	1.000000	0.632316	7.36625e+06	-44839.1	955.818	-29775	0.000000	0.000000	6.633013	0.060733	NaN	0.000000	0.001619	0.001827	28.0827	0.024375	0.001802	13.5288	-49.7053	12.979	0.055913	0.630897	-0.481655	-0.483074	0.060733	13.5288	-0.485022	-2.11738e+06	-2.868296E-8	NaN
124	1.000000	0.674307	7.36625e+06	-44839.1	955.819	-29775	0.000000	0.000000	6.675004	0.057604	NaN	0.000000	0.001618	0.001822	28.0842	0.083995	0.001968	42.6887	171.538	-164.064	0.057684	0.673002	-0.439664	-0.440970	0.057604	42.6887	-0.440676	-504552	-1.141695E-7	NaN
124	1.000000	0.716342	7.36625e+06	-44839.1	955.818	-29775	0.000000	0.000000	6.717039	0.067676	NaN	0.000000	0.001502	0.001796	28.1223	0.109960	0.002021	54.396	-121.972	17.6908	0.071391	0.714974	-0.397629	-0.398997	0.067676	54.396	-0.398562	-127493	-5.308212E-7	NaN
124	1.000000	0.758347	7.36625e+06	-44839.1	955.819	-29775	0.000000	0.000000	6.759042	0.046672	NaN	0.000000	0.001515	0.001825	28.1181	0.048115	0.001982	24.2736	-177.515	-167.299	0.009054	0.757067	-0.355625	-0.356904	0.046672	24.2736	-0.357067	-32316.3	-1.444211E-6	NaN
124	1.000000	0.800388	7.36625e+06	-44839.1	955.818	-29775	0.000000	0.000000	6.801086	0.104257	NaN	0.000000	0.001547	0.001817	28.082	0.025661	0.001976	12.9885	-94.1318	17.0999	0.150821	0.799007	-0.313584	-0.314964	0.104257	12.9885	-0.319604	-9179.23	-1.135795E-5	NaN
124	1.000000	0.842393	7.36625e+06	-44839.1	955.818	-29775	0.000000	0.000000	6.843091	0.100375	NaN	0.000000	0.001605	0.001811	28.0824	0.020667	0.001879	10.9989	-144.058	-165.72	0.081317	0.841093	-0.271578	-0.272879	0.100375	10.9989	-0.278423	-2234.41	-4.492236E-5	NaN
124	1.000000	0.884394	7.36625e+06	-44839.1	955.818	-29775	0.000000	0.000000	6.885090	0.054799	NaN	0.000000	0.001531	0.001764	28.1212	0.058347	0.002088	27.9483	64.0281	13.307	0.102567	0.883026	-0.229577	-0.230945	0.054799	27.9483	-0.231048	-415.964	-0.000132	NaN
124	1.000000	0.926444	7.36625e+06	-44839.1	955.818	-29775	0.000000	0.000000	6.927140	0.042314	NaN	0.000000	0.001547	0.001744	28.1201	0.013239	0.001996	6.633033	54.6741	-163.476	0.118937	0.925081	-0.187527	-0.188890	0.042314	6.633033	-0.192312	-98.3044	-0.000430	NaN
124	1.000000	0.968462	7.36625e+06	-44839.1	955.818	-29775	0.000000	0.000000	6.969159	0.073900	NaN	0.000000	0.001586	0.001752	28.0852	0.058264	0.002058	28.3098	28.8993	13.8705	0.048666	0.967045	-0.145509	-0.146926	0.073900	28.3098	-0.147467	-16.2796	-0.004539	NaN
124	1.000000	1.010446	7.36625e+06	-44839.1	955.818	-29775	0.000000	0.000000	7.011140	0.013870	NaN	0.000000	0.001650	0.001769	28.0824	0.048749	0.002018	24.1559	7.208825	-165.633	0.044478	1.009123	-0.103525	-0.104849	0.013870	24.1559	-0.103956	-2.231320	-0.006216	NaN
124	1.000000	1.052494	7.36625e+06	-44839.1	955.818	-29775	0.000000	0.000000	7.053193	0.134620	NaN	0.000000	0.001556	0.001766	28.1196	0.099267	0.002050	48.4124	-48.4873	13.639	0.123830	1.051138	-0.061477	-0.062833	0.134620	48.4124	-0.063563	-0.227255	-0.592374	NaN
124	1.000000	1.094493	7.36626e+06	-44839.1	955.818	-29775	0.000000	0.000000	7.095190	0.068027	NaN	0.000000	0.001591	0.001756	28.1195	0.026653	0.001915	13.9163	60.1227	-162.224	0.044288	1.093179	-0.019478	-0.020793	0.068027	13.9163	-0.023145	-0.015105	-4.503646	NaN
124	2.000000	1.127497	7.36626e+06	-44839.1	955.819	-29775	0.000000	0.000000	7.128840	15.7958	NaN	0.000000	0.001518	0.001763	28.0837	14.0647	0.001639	8582.32	5.043111	5.764498	14.758	1.127121	0.013525	0.013149	15.7958	8582.32	0.012145	0.011664	1354.24	72602.9
124	2.000000	1.137944	7.36626e+06	-44839.1	955.818	-29775	0.000000	0.000000	7.140068	34.7981	NaN	0.000000	0.001594	0.001732	28.0837	24.3321	0.001810	13446.2	5.202099	-177.773	33.5511	1.137669	0.023972	0.023697	34.7981	13446.2	0.022031	0.025835	1346.91	76430
124	2.000000	1.148413	7.36626e+06	-44839.1	955.819	-29775	0.000000	0.000000	7.151833	66.3011	NaN	0.000000	0.001540	0.001791	28.1195	33.1183	0.001801	18388.2	4.490233	0.943016	63.6591	1.148089	0.034442	0.034118	66.3011	18388.2	0.031738	0.044422	1492.51	79709.7
124	2.000000	1.158884	7.36626e+06	-44839.1	955.819	-29775	0.000000	0.000000	7.163723	100.845	NaN	0.000000	0.001539	0.001766	28.1213	44.108	0.001793	24601.7	3.449392	179.118	99.9418	1.158697	0.044912	0.044725	100.845	24601.7	0.041838	0.068864	1464.4	85652.9
124	2.000000	1.169435	7.36626e+06	-44839.1	955.818	-29775	0.000000	0.000000	7.176278	149.604	NaN	0.000000	0.001569	0.001840	28.0838	53.6466	0.001823	29435	8.864179	-6.408724	151.239	1.168926	0.055463	0.054955	149.604	29435	0.051652	0.097586	1533.04	86088.1
124	2.000000	1.179872	7.36626e+06	-44839.1	955.819	-29775	0.000000	0.000000	7.188829	201.016	NaN	0.000000	0.001520	0.001768	28.0824	63.0861	0.001722	36632.4	4.882454	174.679	199.239	1.179592	0.065900	0.065620	201.016	36632.4	0.061785	0.132286	1519.55	92019.7
124	2.000000	1.190445	7.36626e+06	-44839.1	955.819	-29775	0.000000	0.000000	7.201214	245.095	NaN	0.000000	0.001573	0.001756	28.1179	74.5739	0.001862	40060.8	3.843472	-5.144474	246.906	1.190209	0.076474	0.076237	245.095	40060.8	0.071885	0.171841	1426.29	88293.5
124	2.000000	1.200817	7.36626e+06	-44839.1	955.818	-29775	0.000000	0.000000	7.214981	327.694	NaN	0.000000	0.001529	0.001768	28.1224	83.1445	0.001780	46711.6	4.075229	174.656	325.299	1.200486	0.086846	0.086515	327.694	46711.6	0.081584	0.214377	1528.59	92174.1
124	2.000000	1.211302	7.36626e+06	-44839.1	955.818	-29775	0.000000	0.000000	7.228358	398.046	NaN	0.000000	0.001515	0.001755	28.085	94.4109	0.001900	49700.8	5.726946	-7.698718	392.728	1.210844	0.097331	0.096873	398.046	49700.8	0.091324	0.261491	1522.22	88799
124	2.000000	1.221741	7.36626e+06	-44839.1	955.818	-29775	0.000000	0.000000	7.242165	479.982	NaN	0.000000	0.001538	0.001793	28.0833	102.46	0.001898	53993.9	4.507904	172.38	473.566	1.221403	0.107770	0.107431	479.982	53993.9	0.101103	0.313164	1532.69	88151.9
124	2.000000	1.222864	7.36626e+06	-44839.1	955.818	-29775	0.000000	0.000000	7.243561	486.639	NaN	0.000000	0.001566	0.001778	28.1238	102.552	0.001789	57325.4	4.967372	171.795	489.314	1.222540	0.108892	0.108569	486.639	57325.4	0.102525	0.321045	1515.8	92435.2