Folder: unikorn_login/remote_trans/data/nanoindenter/0828-1/data/Data_2025-08-06,11h17m57s (part 121)

File: 2025-07-22_16-23-58_1_259.txt
2025-07-22, 16:23:58, 1
Index	Phase	Displacement	Time	Pos X	Pos Y	Pos Z	Rot A	Rot B	Piezo Z	Force A	Force B	Gripper	Voltage A	Voltage B	Temperature	Amplitude force	Amplitude pos	Stiffness	Phase shift	Phase excitation	Force A raw	Displacement raw	HMax	HMax raw	Real Force	Real Stiffness	Contact Depth	Area	Hardness	Reduced Mod.
[#]	[#]	[um]	[s]	[um]	[um]	[um]	[m°]	[m°]	[um]	[uN]	[uN]	[V]	[V]	[V]	[°C]	[uN]	[um]	[N/m]	[°]	[°]	[uN]	[um]	[um]	[um]	[uN]	[N/m]	[um]	[um^2]	[MPa]	[MPa]
259	1.000000	0.002406	7.36759e+06	-51589.1	955.818	-29752	0.000000	0.000000	6.002800	0.020205	NaN	0.000000	0.001619	0.001661	28.0789	0.082932	0.000906	91.5836	42.8183	-174.94	0.014942	0.001172	-1.154486	-1.155720	0.020205	91.5836	-1.154652	-2.711301E+15	-7.452132E-18	NaN
259	1.000000	0.044360	7.36759e+06	-51589.1	955.819	-29752	0.000000	0.000000	6.044755	0.067337	NaN	0.000000	0.001547	0.001669	28.0776	0.022822	0.002085	10.9455	28.333	13.6722	0.073266	0.042985	-1.112533	-1.113907	0.067337	10.9455	-1.117147	-8.515109E+14	-7.907892E-17	NaN
259	1.000000	0.086342	7.36759e+06	-51589.1	955.819	-29752	0.000000	0.000000	6.086737	0.063130	NaN	0.000000	0.001580	0.001640	28.0775	0.047738	0.002019	23.6422	140.318	-166.681	0.057904	0.085066	-1.070551	-1.071826	0.063130	23.6422	-1.072553	-2.145309E+14	-2.942700E-16	NaN
259	1.000000	0.128383	7.36759e+06	-51589.1	955.818	-29752	0.000000	0.000000	6.128780	0.107004	NaN	0.000000	0.001583	0.001638	28.0774	0.048280	0.001869	25.8364	-66.9304	12.3828	0.089053	0.127044	-1.028510	-1.029848	0.107004	25.8364	-1.031616	-6.042529E+13	-1.770848E-15	NaN
259	1.000000	0.170422	7.36759e+06	-51589.1	955.818	-29752	0.000000	0.000000	6.170815	0.012836	NaN	0.000000	0.001598	0.001678	28.0786	0.060232	0.001995	30.194	-20.7209	-165.828	0.013145	0.169065	-0.986471	-0.987827	0.012836	30.194	-0.986790	-1.506165E+13	-8.522285E-16	NaN
259	1.000000	0.212422	7.36759e+06	-51589.1	955.819	-29752	0.000000	0.000000	6.212816	0.030698	NaN	0.000000	0.001602	0.001670	28.0782	0.012175	0.002047	5.947815	2.532040	14.169	0.048396	0.211066	-0.944470	-0.945827	0.030698	5.947815	-0.948341	-4.567247E+12	-6.721333E-15	NaN
259	1.000000	0.254435	7.36759e+06	-51589.1	955.819	-29752	0.000000	0.000000	6.254827	-0.010469	NaN	0.000000	0.001641	0.001708	28.0784	0.044519	0.001991	22.3561	-140.248	-164.439	0.037053	0.253129	-0.902457	-0.903764	-0.010469	22.3561	-0.902106	-1.085239E+12	9.646401E-15	NaN
259	1.000000	0.296466	7.36759e+06	-51589.1	955.818	-29752	0.000000	0.000000	6.296860	0.031225	NaN	0.000000	0.001601	0.001649	28.077	0.069979	0.002013	34.7689	-86.4324	14.3601	-0.021602	0.295121	-0.860426	-0.861771	0.031225	34.7689	-0.861100	-3.026965E+11	-1.031565E-13	NaN
259	1.000000	0.338462	7.36759e+06	-51589.1	955.818	-29752	0.000000	0.000000	6.338857	0.040457	NaN	0.000000	0.001582	0.001664	28.0772	0.025227	0.002021	12.4845	46.9693	-164.449	0.130410	0.337221	-0.818430	-0.819672	0.040457	12.4845	-0.820860	-8.627400E+10	-4.689358E-13	NaN
259	1.000000	0.380493	7.36759e+06	-51589.1	955.818	-29752	0.000000	0.000000	6.380888	0.051798	NaN	0.000000	0.001590	0.001677	28.077	0.060419	0.002009	30.0733	174.585	13.4079	-0.025123	0.379157	-0.776399	-0.777735	0.051798	30.0733	-0.777691	-2.237956E+10	-2.314524E-12	NaN
259	1.000000	0.422488	7.36759e+06	-51589.1	955.818	-29752	0.000000	0.000000	6.422883	0.057036	NaN	0.000000	0.001590	0.001643	28.0774	0.038773	0.002017	19.2226	126.605	-164.462	0.121255	0.421188	-0.734404	-0.735705	0.057036	19.2226	-0.736630	-6.182210E+9	-9.225828E-12	NaN
259	1.000000	0.464539	7.36759e+06	-51589.1	955.818	-29752	0.000000	0.000000	6.464934	0.049343	NaN	0.000000	0.001585	0.001668	28.0786	0.148685	0.001902	78.1768	138.102	14.2219	0.043078	0.463135	-0.692353	-0.693757	0.049343	78.1768	-0.692826	-1.561498E+9	-3.159988E-11	NaN
259	1.000000	0.506558	7.36759e+06	-51589.1	955.819	-29752	0.000000	0.000000	6.506953	0.064982	NaN	0.000000	0.001593	0.001639	28.0781	0.098812	0.001953	50.583	43.9899	-168.567	0.011923	0.505256	-0.650335	-0.651636	0.064982	50.583	-0.651298	-4.219221E+8	-1.540138E-10	NaN
259	1.000000	0.548579	7.36759e+06	-51589.1	955.818	-29752	0.000000	0.000000	6.548972	0.005531	NaN	0.000000	0.001616	0.001640	28.0781	0.057087	0.002123	26.8928	-27.6573	13.4778	-0.034369	0.547189	-0.608314	-0.609704	0.005531	26.8928	-0.608468	-1.089010E+8	-5.079199E-11	NaN
259	1.000000	0.590580	7.36759e+06	-51589.1	955.817	-29752	0.000000	0.000000	6.590974	0.026500	NaN	0.000000	0.001582	0.001649	28.077	0.057600	0.002046	28.1545	142.685	-169.036	-0.002067	0.589285	-0.566313	-0.567608	0.026500	28.1545	-0.567019	-2.920318E+7	-9.074233E-10	NaN
259	1.000000	0.632597	7.36759e+06	-51589.1	955.818	-29752	0.000000	0.000000	6.632992	0.074156	NaN	0.000000	0.001589	0.001614	28.0774	0.079650	0.001986	40.0979	-68.487	14.0862	0.020578	0.631269	-0.524296	-0.525624	0.074156	40.0979	-0.525683	-7.80913e+06	-9.496122E-9	NaN
259	1.000000	0.674622	7.36759e+06	-51589.1	955.818	-29752	0.000000	0.000000	6.675014	-0.008053	NaN	0.000000	0.001567	0.001637	28.0771	0.105160	0.001956	53.7606	-147.309	-168.228	-0.013030	0.673310	-0.482271	-0.483583	-0.008053	53.7606	-0.482158	-1.9308e+06	4.170793E-9	NaN
259	1.000000	0.716649	7.36759e+06	-51589.1	955.819	-29752	0.000000	0.000000	6.717041	0.004221	NaN	0.000000	0.001568	0.001666	28.0783	0.054207	0.002085	25.9963	1.719146	13.4483	0.027038	0.715244	-0.440244	-0.441649	0.004221	25.9963	-0.440366	-499489	-8.451105E-9	NaN
259	1.000000	0.758618	7.36759e+06	-51589.1	955.819	-29752	0.000000	0.000000	6.759011	0.015178	NaN	0.000000	0.001634	0.001659	28.0782	0.039796	0.002081	19.1267	156.969	-164.867	0.002618	0.757355	-0.398274	-0.399538	0.015178	19.1267	-0.398870	-128787	-1.178571E-7	NaN
259	1.000000	0.800672	7.36759e+06	-51589.1	955.819	-29752	0.000000	0.000000	6.801069	0.110032	NaN	0.000000	0.001649	0.001615	28.0782	0.050537	0.002048	24.6715	-90.7247	13.4935	0.128619	0.799315	-0.356221	-0.357577	0.110032	24.6715	-0.359566	-35120.8	-3.132960E-6	NaN
259	1.000000	0.842679	7.36759e+06	-51589.1	955.819	-29752	0.000000	0.000000	6.843076	0.096674	NaN	0.000000	0.001614	0.001654	28.0771	0.018762	0.002022	9.279691	29.7717	-163.443	0.058994	0.841409	-0.314214	-0.315484	0.096674	9.279691	-0.322027	-9964.52	-9.701813E-6	NaN
259	1.000000	0.884726	7.36759e+06	-51589.1	955.818	-29752	0.000000	0.000000	6.885121	0.050664	NaN	0.000000	0.001578	0.001645	28.0773	0.059946	0.001877	31.9419	-59.8299	12.8679	0.028851	0.883321	-0.272166	-0.273572	0.050664	31.9419	-0.273356	-1872.8	-2.705253E-5	NaN
259	1.000000	0.926747	7.36759e+06	-51589.1	955.819	-29752	0.000000	0.000000	6.927143	0.080232	NaN	0.000000	0.001615	0.001655	28.0774	0.130224	0.002068	62.9638	-80.5129	-167.245	0.088705	0.925390	-0.230146	-0.231502	0.080232	62.9638	-0.231101	-416.77	-0.000193	NaN
259	1.000000	0.968744	7.36759e+06	-51589.1	955.818	-29752	0.000000	0.000000	6.969138	0.020191	NaN	0.000000	0.001665	0.001667	28.0775	0.046448	0.001893	24.5416	-47.4526	12.6624	0.079808	0.967379	-0.188148	-0.189514	0.020191	24.5416	-0.188765	-85.7788	-0.000235	NaN
259	1.000000	1.010759	7.36759e+06	-51589.1	955.819	-29752	0.000000	0.000000	7.011157	0.129201	NaN	0.000000	0.001604	0.001643	28.0787	0.100637	0.002053	49.0172	47.0764	-163.634	0.110074	1.009409	-0.146134	-0.147483	0.129201	49.0172	-0.148111	-16.7286	-0.007723	NaN
259	1.000000	1.052754	7.36759e+06	-51589.1	955.819	-29752	0.000000	0.000000	7.053151	0.097304	NaN	0.000000	0.001584	0.001668	28.0786	0.055342	0.001971	28.0727	24.8558	14.412	0.056452	1.051424	-0.104138	-0.105468	0.097304	28.0727	-0.106738	-2.561872	-0.037981	NaN
259	1.000000	1.094780	7.36759e+06	-51589.1	955.819	-29752	0.000000	0.000000	7.095173	0.006818	NaN	0.000000	0.001596	0.001634	28.0786	0.029335	0.002108	13.9148	63.5749	-166.771	0.012222	1.093506	-0.062112	-0.063386	0.006818	13.9148	-0.062480	-0.211863	-0.032183	NaN
259	1.000000	1.136805	7.36759e+06	-51589.1	955.819	-29752	0.000000	0.000000	7.137199	0.029142	NaN	0.000000	0.001557	0.001628	28.0771	0.057845	0.001952	29.6325	-51.3916	14.0359	0.109201	1.135410	-0.020088	-0.021482	0.029142	29.6325	-0.020825	-0.013183	-2.210651	NaN
259	2.000000	1.169329	7.36759e+06	-51589.1	955.82	-29752	0.000000	0.000000	7.170226	12.2505	NaN	0.000000	0.001579	0.001649	28.0773	12.4141	0.001753	7081.53	10.9527	-179.803	11.4948	1.169031	0.012437	0.012138	12.2505	7081.53	0.011139	0.010476	1169.44	63213.8
259	2.000000	1.179771	7.36759e+06	-51589.1	955.819	-29752	0.000000	0.000000	7.181476	31.9182	NaN	0.000000	0.001563	0.001614	28.0775	22.3856	0.001739	12875.6	4.144398	2.605541	31.073	1.179498	0.022878	0.022606	31.9182	12875.6	0.021019	0.024169	1320.63	75667.8
259	2.000000	1.190250	7.36759e+06	-51589.1	955.82	-29752	0.000000	0.000000	7.193218	62.6344	NaN	0.000000	0.001525	0.001642	28.0788	32.5588	0.001842	17676	3.317279	-179.394	61.7342	1.189915	0.033357	0.033022	62.6344	17676	0.030700	0.042206	1484.01	78608.4
259	2.000000	1.200674	7.36759e+06	-51589.1	955.82	-29752	0.000000	0.000000	7.205032	96.4306	NaN	0.000000	0.001554	0.001656	28.0785	39.9893	0.001759	22740	2.835422	-0.813682	93.706	1.200394	0.043781	0.043501	96.4306	22740	0.040601	0.065590	1470.2	81123.1
259	2.000000	1.211240	7.36759e+06	-51589.1	955.82	-29752	0.000000	0.000000	7.217312	138.097	NaN	0.000000	0.001580	0.001655	28.0787	50.9637	0.001683	30290.3	7.067597	172.047	136.985	1.210888	0.054348	0.053996	138.097	30290.3	0.050928	0.095304	1449.01	89644.2
259	2.000000	1.221706	7.36759e+06	-51589.1	955.82	-29752	0.000000	0.000000	7.229471	179.258	NaN	0.000000	0.001535	0.001649	28.0778	60.551	0.001796	33720.6	5.294440	-6.968676	176.872	1.221374	0.064813	0.064481	179.258	33720.6	0.060826	0.128789	1391.88	85848
259	2.000000	1.232177	7.36759e+06	-51589.1	955.821	-29752	0.000000	0.000000	7.242119	232.198	NaN	0.000000	0.001521	0.001691	28.0773	69.0382	0.001851	37295.1	6.118572	172.631	230.121	1.231804	0.075285	0.074911	232.198	37295.1	0.070615	0.166600	1393.75	83481
259	2.000000	1.242694	7.36759e+06	-51589.1	955.82	-29752	0.000000	0.000000	7.254785	284.439	NaN	0.000000	0.001587	0.001632	28.0773	78.0618	0.001872	41696.8	5.554251	-8.767401	282.748	1.242345	0.085802	0.085452	284.439	41696.8	0.080686	0.210252	1352.85	83081.9
259	2.000000	1.253133	7.36759e+06	-51589.1	955.82	-29752	0.000000	0.000000	7.267628	342.912	NaN	0.000000	0.001548	0.001628	28.0775	86.156	0.001785	48258.1	5.294276	171.002	339.421	1.252835	0.096240	0.095942	342.912	48258.1	0.090911	0.259402	1321.93	86567.7
259	2.000000	1.263695	7.36759e+06	-51589.1	955.82	-29752	0.000000	0.000000	7.280379	396.141	NaN	0.000000	0.001633	0.001661	28.0786	94.7765	0.001790	52956	5.026931	-9.754856	394.829	1.263364	0.106803	0.106472	396.141	52956	0.101192	0.313657	1262.97	86389.5
259	2.000000	1.264536	7.36759e+06	-51589.1	955.82	-29752	0.000000	0.000000	7.281901	412.699	NaN	0.000000	0.001659	0.001643	28.0785	96.4902	0.001777	54298.8	6.541777	-10.8115	403.269	1.264177	0.107643	0.107285	412.699	54298.8	0.101943	0.317807	1298.58	87999.9

File: 2025-07-22_16-23-58_1_260.txt
2025-07-22, 16:23:58, 1
Index	Phase	Displacement	Time	Pos X	Pos Y	Pos Z	Rot A	Rot B	Piezo Z	Force A	Force B	Gripper	Voltage A	Voltage B	Temperature	Amplitude force	Amplitude pos	Stiffness	Phase shift	Phase excitation	Force A raw	Displacement raw	HMax	HMax raw	Real Force	Real Stiffness	Contact Depth	Area	Hardness	Reduced Mod.
[#]	[#]	[um]	[s]	[um]	[um]	[um]	[m°]	[m°]	[um]	[uN]	[uN]	[V]	[V]	[V]	[°C]	[uN]	[um]	[N/m]	[°]	[°]	[uN]	[um]	[um]	[um]	[uN]	[N/m]	[um]	[um^2]	[MPa]	[MPa]
260	1.000000	0.002507	7.3676e+06	-51639.1	955.819	-29751.9	0.000000	0.000000	6.002811	-0.003129	NaN	0.000000	0.001542	0.001703	28.0782	0.004868	0.001001	4.863917	-132.584	-160.918	-0.002604	0.001221	-1.022935	-1.024221	-0.003129	4.863917	-1.022452	-4.549308E+13	6.878771E-17	NaN
260	1.000000	0.042479	7.3676e+06	-51639.1	955.82	-29751.9	0.000000	0.000000	6.042784	0.034089	NaN	0.000000	0.001589	0.001636	28.0786	0.078975	0.001940	40.704	118.661	-160.482	-0.016826	0.041150	-0.982963	-0.984292	0.034089	40.704	-0.983591	-1.363917E+13	-2.499312E-15	NaN
260	1.000000	0.082479	7.3676e+06	-51639.1	955.819	-29751.9	0.000000	0.000000	6.082783	-0.000805	NaN	0.000000	0.001623	0.001662	28.08	0.148735	0.002084	71.3707	116.943	-163.356	-0.060979	0.081119	-0.942963	-0.944324	-0.000805	71.3707	-0.942954	-3.863623E+12	2.083537E-16	NaN
260	1.000000	0.122500	7.3676e+06	-51639.1	955.819	-29751.9	0.000000	0.000000	6.122800	-0.081828	NaN	0.000000	0.001635	0.001651	28.0795	0.053387	0.001964	27.177	-25.1891	-165.455	-0.065751	0.121134	-0.902943	-0.904309	-0.081828	27.177	-0.900684	-1.038280E+12	7.881067E-14	NaN
260	1.000000	0.162499	7.3676e+06	-51639.1	955.819	-29751.9	0.000000	0.000000	6.162800	-0.053146	NaN	0.000000	0.001574	0.001654	28.0795	0.017204	0.002035	8.453657	134.053	-165.859	-0.022682	0.161139	-0.862943	-0.864303	-0.053146	8.453657	-0.858228	-2.767835E+11	1.920139E-13	NaN
260	1.000000	0.202485	7.3676e+06	-51639.1	955.82	-29751.9	0.000000	0.000000	6.202788	-0.003920	NaN	0.000000	0.001593	0.001672	28.0787	0.083338	0.001967	42.362	31.2976	-164.216	0.042344	0.201188	-0.822958	-0.824254	-0.003920	42.362	-0.822888	-9.191244E+10	4.264919E-14	NaN
260	1.000000	0.242509	7.3676e+06	-51639.1	955.819	-29751.9	0.000000	0.000000	6.242811	-0.014408	NaN	0.000000	0.001627	0.001643	28.0781	0.039862	0.002106	18.927	-111.656	-166.722	-0.045395	0.241242	-0.782934	-0.784200	-0.014408	18.927	-0.782363	-2.590221E+10	5.562426E-13	NaN
260	1.000000	0.282533	7.3676e+06	-51639.1	955.818	-29751.9	0.000000	0.000000	6.282838	0.048657	NaN	0.000000	0.001640	0.001656	28.0779	0.159558	0.001934	82.4867	-153.375	-166.001	0.051504	0.281268	-0.742910	-0.744174	0.048657	82.4867	-0.743352	-7.633207E+9	-6.374418E-12	NaN
260	1.000000	0.322588	7.3676e+06	-51639.1	955.819	-29751.9	0.000000	0.000000	6.322889	-0.070544	NaN	0.000000	0.001565	0.001696	28.0781	0.099373	0.001985	50.0705	-176.766	-164.956	-0.093647	0.321275	-0.702854	-0.704167	-0.070544	50.0705	-0.701797	-2.070498E+9	3.407081E-11	NaN
260	1.000000	0.362574	7.3676e+06	-51639.1	955.818	-29751.9	0.000000	0.000000	6.362878	-0.007444	NaN	0.000000	0.001583	0.001660	28.0795	0.047615	0.001881	25.3197	48.9896	-171.489	-0.021336	0.361266	-0.662868	-0.664176	-0.007444	25.3197	-0.662647	-6.035687E+8	1.233269E-11	NaN
260	1.000000	0.402589	7.3676e+06	-51639.1	955.82	-29751.9	0.000000	0.000000	6.402892	-0.002791	NaN	0.000000	0.001571	0.001694	28.0796	0.104267	0.002024	51.5191	-60.6152	-163.917	0.064667	0.401284	-0.622853	-0.624158	-0.002791	51.5191	-0.622813	-1.715095E+8	1.627545E-11	NaN
260	1.000000	0.442610	7.3676e+06	-51639.1	955.819	-29751.9	0.000000	0.000000	6.442914	-0.005968	NaN	0.000000	0.001525	0.001692	28.0792	0.036527	0.002047	17.8446	122.782	-162.846	-0.078142	0.441294	-0.582832	-0.584148	-0.005968	17.8446	-0.582581	-4.790092E+7	1.245901E-10	NaN
260	1.000000	0.482650	7.3676e+06	-51639.1	955.819	-29751.9	0.000000	0.000000	6.482953	-0.022893	NaN	0.000000	0.001527	0.001685	28.0778	0.062114	0.002196	28.2816	68.3611	-163.441	0.019476	0.481282	-0.542792	-0.544160	-0.022893	28.2816	-0.542185	-1.323288E+7	1.729986E-9	NaN
260	1.000000	0.522634	7.3676e+06	-51639.1	955.818	-29751.9	0.000000	0.000000	6.522938	0.017801	NaN	0.000000	0.001554	0.001671	28.0778	0.047066	0.001930	24.384	-129.353	-165.066	-0.026864	0.521375	-0.502808	-0.504067	0.017801	24.384	-0.503356	-3.81787e+06	-4.662598E-9	NaN
260	1.000000	0.562671	7.3676e+06	-51639.1	955.818	-29751.9	0.000000	0.000000	6.562971	-0.090324	NaN	0.000000	0.001538	0.001712	28.0776	0.017235	0.001997	8.628523	65.377	-167.25	-0.036885	0.561387	-0.462771	-0.464055	-0.090324	8.628523	-0.454920	-800932	1.127736E-7	NaN
260	1.000000	0.602677	7.3676e+06	-51639.1	955.82	-29751.9	0.000000	0.000000	6.602980	-0.019731	NaN	0.000000	0.001556	0.001604	28.0782	0.054394	0.002029	26.8097	-15.6142	-164.561	0.010777	0.601374	-0.422765	-0.424068	-0.019731	26.8097	-0.422213	-276559	7.134592E-8	NaN
260	1.000000	0.642706	7.3676e+06	-51639.1	955.819	-29751.9	0.000000	0.000000	6.643010	0.006652	NaN	0.000000	0.001553	0.001689	28.0794	0.076483	0.001924	39.753	-26.2737	-164.229	0.034923	0.641379	-0.382736	-0.384063	0.006652	39.753	-0.382862	-76022.3	-8.750485E-8	NaN
260	1.000000	0.682713	7.3676e+06	-51639.1	955.819	-29751.9	0.000000	0.000000	6.683017	0.011386	NaN	0.000000	0.001573	0.001687	28.0794	0.082069	0.002087	39.3325	89.2972	-167.132	-0.036856	0.681417	-0.342729	-0.344025	0.011386	39.3325	-0.342946	-20159.1	-5.647918E-7	NaN
260	1.000000	0.722717	7.3676e+06	-51639.1	955.818	-29751.9	0.000000	0.000000	6.723023	0.063454	NaN	0.000000	0.001558	0.001656	28.0794	0.121595	0.001789	67.9648	-12.5692	-167.587	0.026353	0.721379	-0.302726	-0.304063	0.063454	67.9648	-0.303426	-5291.51	-1.199160E-5	NaN
260	1.000000	0.762744	7.3676e+06	-51639.1	955.819	-29751.9	0.000000	0.000000	6.763049	0.026584	NaN	0.000000	0.001600	0.001631	28.0779	0.041797	0.002038	20.5066	69.0296	-165.483	-0.090054	0.761456	-0.262698	-0.263986	0.026584	20.5066	-0.263670	-1333.77	-1.993138E-5	NaN
260	1.000000	0.802775	7.3676e+06	-51639.1	955.819	-29751.9	0.000000	0.000000	6.803077	-0.038787	NaN	0.000000	0.001630	0.001607	28.0779	0.055086	0.001908	28.875	-82.3717	-165.18	0.003370	0.801426	-0.222667	-0.224016	-0.038787	28.875	-0.221660	-295.241	0.000131	NaN
260	1.000000	0.842769	7.3676e+06	-51639.1	955.819	-29751.9	0.000000	0.000000	6.843071	-0.037488	NaN	0.000000	0.001568	0.001620	28.0779	0.138066	0.001941	71.1446	117.391	-167.014	0.003730	0.841470	-0.182673	-0.183972	-0.037488	71.1446	-0.182278	-66.7018	0.000562	NaN
260	1.000000	0.882790	7.3676e+06	-51639.1	955.819	-29751.9	0.000000	0.000000	6.883095	0.031568	NaN	0.000000	0.001573	0.001589	28.078	0.085481	0.001968	43.4273	-147.24	-163.893	0.003680	0.881464	-0.142653	-0.143978	0.031568	43.4273	-0.143198	-13.5749	-0.002325	NaN
260	1.000000	0.922811	7.3676e+06	-51639.1	955.819	-29751.9	0.000000	0.000000	6.923114	-0.020052	NaN	0.000000	0.001545	0.001611	28.0792	0.063165	0.001801	35.0716	110.359	-165.139	0.012439	0.921423	-0.102631	-0.104019	-0.020052	35.0716	-0.102202	-2.043185	0.009814	NaN
260	1.000000	0.962828	7.3676e+06	-51639.1	955.819	-29751.9	0.000000	0.000000	6.963128	-0.085977	NaN	0.000000	0.001600	0.001592	28.0791	0.082282	0.002183	37.6842	-140.358	-162.26	-0.146402	0.961519	-0.062614	-0.063924	-0.085977	37.6842	-0.060903	-0.191130	0.449833	NaN
260	1.000000	1.002871	7.3676e+06	-51639.1	955.818	-29751.9	0.000000	0.000000	7.003177	0.066866	NaN	0.000000	0.001696	0.001553	28.079	0.055861	0.002078	26.8834	12.9322	-168.608	0.031827	1.001514	-0.022572	-0.023928	0.066866	26.8834	-0.024437	-0.016310	-4.099628	NaN
260	2.000000	1.036460	7.3676e+06	-51639.1	955.818	-29751.9	0.000000	0.000000	7.037280	12.5678	NaN	0.000000	0.001582	0.001585	28.0776	8.108444	0.001740	4660.43	4.742957	-170.823	12.1221	1.036135	0.011017	0.010693	12.5678	4660.43	0.008995	0.008086	1554.34	47352.4
260	2.000000	1.046386	7.3676e+06	-51639.1	955.817	-29751.9	0.000000	0.000000	7.047843	28.0509	NaN	0.000000	0.001525	0.001561	28.0779	17.4419	0.001888	9238.22	5.540469	-176.464	27.275	1.046116	0.020944	0.020674	28.0509	9238.22	0.018667	0.020490	1369	58964.3
260	2.000000	1.056357	7.3676e+06	-51639.1	955.817	-29751.9	0.000000	0.000000	7.058884	54.0631	NaN	0.000000	0.001599	0.001546	28.078	26.5354	0.001910	13895.4	5.803961	-177.886	54.0785	1.056014	0.030915	0.030572	54.0631	13895.4	0.027997	0.036694	1473.36	66274.6
260	2.000000	1.066401	7.3676e+06	-51639.1	955.818	-29751.9	0.000000	0.000000	7.069767	74.4479	NaN	0.000000	0.001636	0.001581	28.0794	35.6171	0.001769	20128.6	5.228087	177.954	78.6556	1.066107	0.040959	0.040665	74.4479	20128.6	0.038185	0.059423	1252.86	75441.6
260	2.000000	1.076373	7.3676e+06	-51639.1	955.82	-29751.9	0.000000	0.000000	7.081438	115.779	NaN	0.000000	0.001585	0.001632	28.0792	45.8505	0.001807	25369.3	8.112112	173.029	118.414	1.076014	0.050931	0.050572	115.779	25369.3	0.047508	0.084867	1364.25	79563.5
260	2.000000	1.086318	7.3676e+06	-51639.1	955.819	-29751.9	0.000000	0.000000	7.093311	162.658	NaN	0.000000	0.001596	0.001623	28.0792	54.6525	0.001834	29794	5.351936	173.739	162.122	1.085938	0.060876	0.060496	162.658	29794	0.056781	0.114520	1420.34	80438
260	2.000000	1.096267	7.3676e+06	-51639.1	955.819	-29751.9	0.000000	0.000000	7.104897	202.484	NaN	0.000000	0.001573	0.001611	28.0792	65.8469	0.001901	34639.3	3.360809	175.337	199.073	1.096078	0.070825	0.070636	202.484	34639.3	0.066440	0.149910	1350.7	81738.5
260	2.000000	1.106265	7.3676e+06	-51639.1	955.82	-29751.9	0.000000	0.000000	7.117172	257.838	NaN	0.000000	0.001577	0.001557	28.078	74.0533	0.001945	38073.6	6.034432	171.477	256.437	1.106056	0.080822	0.080613	257.838	38073.6	0.075743	0.188233	1369.78	80176.9
260	2.000000	1.116288	7.3676e+06	-51639.1	955.82	-29751.9	0.000000	0.000000	7.130069	327.721	NaN	0.000000	0.001622	0.001629	28.0781	81.6375	0.001771	46091.5	-0.057098	176.34	328.384	1.116028	0.090845	0.090586	327.721	46091.5	0.085513	0.232854	1407.41	87267.4
260	2.000000	1.126214	7.3676e+06	-51639.1	955.819	-29751.9	0.000000	0.000000	7.142673	392.843	NaN	0.000000	0.001597	0.001531	28.0783	90.1623	0.001618	55714.2	6.919612	167.895	389.414	1.125964	0.100772	0.100522	392.843	55714.2	0.095484	0.282938	1388.44	95695.9
260	2.000000	1.132763	7.3676e+06	-51639.1	955.82	-29751.9	0.000000	0.000000	7.151451	447.039	NaN	0.000000	0.001590	0.001556	28.0781	97.8721	0.001786	54807.5	2.041007	-6.615511	446.261	1.132378	0.107321	0.106936	447.039	54807.5	0.101203	0.313719	1424.97	89401.2