Folder: unikorn_login/remote_trans/data/nanoindenter/0828-1/data/Data_2025-08-06,11h17m57s (part 14)

File: 2025-07-22_16-23-58_1_26.txt
2025-07-22, 16:23:58, 1
Index	Phase	Displacement	Time	Pos X	Pos Y	Pos Z	Rot A	Rot B	Piezo Z	Force A	Force B	Gripper	Voltage A	Voltage B	Temperature	Amplitude force	Amplitude pos	Stiffness	Phase shift	Phase excitation	Force A raw	Displacement raw	HMax	HMax raw	Real Force	Real Stiffness	Contact Depth	Area	Hardness	Reduced Mod.
[#]	[#]	[um]	[s]	[um]	[um]	[um]	[m°]	[m°]	[um]	[uN]	[uN]	[V]	[V]	[V]	[°C]	[uN]	[um]	[N/m]	[°]	[°]	[uN]	[um]	[um]	[um]	[uN]	[N/m]	[um]	[um^2]	[MPa]	[MPa]
26	1.000000	0.002772	7.36529e+06	-39939.1	955.819	-29792.6	0.000000	0.000000	6.002809	0.020325	NaN	0.000000	0.001555	0.001600	28.105	0.097568	0.000961	101.558	22.731	-161.592	0.092978	0.001531	-1.057200	-1.058441	0.020325	101.558	-1.057350	-1.340329E+14	-1.516407E-16	NaN
26	1.000000	0.042728	7.36529e+06	-39939.1	955.818	-29792.6	0.000000	0.000000	6.042768	0.112966	NaN	0.000000	0.001532	0.001607	28.1055	0.068786	0.001974	34.8437	-179.062	-166.081	0.147812	0.041422	-1.017244	-1.018551	0.112966	34.8437	-1.019676	-4.174389E+13	-2.706159E-15	NaN
26	1.000000	0.082743	7.36529e+06	-39939.1	955.818	-29792.6	0.000000	0.000000	6.082782	0.053289	NaN	0.000000	0.001543	0.001599	28.1024	0.073320	0.002082	35.2088	138.063	-168.245	0.111181	0.081393	-0.977229	-0.978579	0.053289	35.2088	-0.978364	-1.159760E+13	-4.594792E-15	NaN
26	1.000000	0.122730	7.36529e+06	-39939.1	955.817	-29792.6	0.000000	0.000000	6.122768	0.032965	NaN	0.000000	0.001519	0.001592	28.1032	0.101325	0.002014	50.3051	-95.6992	-166.906	0.030483	0.121422	-0.937242	-0.938550	0.032965	50.3051	-0.937733	-3.285145E+12	-1.003462E-14	NaN
26	1.000000	0.162775	7.36529e+06	-39939.1	955.819	-29792.6	0.000000	0.000000	6.162814	0.077758	NaN	0.000000	0.001495	0.001565	28.1024	0.036289	0.002093	17.3421	127.817	-164.109	0.023742	0.161408	-0.897197	-0.898564	0.077758	17.3421	-0.900560	-1.034265E+12	-7.518149E-14	NaN
26	1.000000	0.202765	7.36529e+06	-39939.1	955.818	-29792.6	0.000000	0.000000	6.202805	0.115201	NaN	0.000000	0.001556	0.001630	28.1041	0.019876	0.001962	10.1283	4.077953	-168.623	0.096145	0.201448	-0.857208	-0.858524	0.115201	10.1283	-0.865738	-3.497688E+11	-3.293620E-13	NaN
26	1.000000	0.242786	7.36529e+06	-39939.1	955.818	-29792.6	0.000000	0.000000	6.242822	0.016566	NaN	0.000000	0.001551	0.001597	28.102	0.009670	0.001905	5.077288	27.2733	-167.079	-0.018061	0.241514	-0.817187	-0.818458	0.016566	5.077288	-0.819634	-8.303223E+10	-1.995168E-13	NaN
26	1.000000	0.282819	7.36529e+06	-39939.1	955.818	-29792.6	0.000000	0.000000	6.282857	0.061952	NaN	0.000000	0.001512	0.001647	28.103	0.047927	0.002075	23.0972	-105.782	-168.824	0.148455	0.281501	-0.777153	-0.778471	0.061952	23.0972	-0.779165	-2.343600E+10	-2.643450E-12	NaN
26	1.000000	0.322869	7.36529e+06	-39939.1	955.818	-29792.6	0.000000	0.000000	6.322903	-0.058991	NaN	0.000000	0.001540	0.001555	28.1024	0.084647	0.001916	44.1735	102.608	-164.82	-0.111857	0.321512	-0.737103	-0.738460	-0.058991	44.1735	-0.736101	-6.080643E+9	9.701424E-12	NaN
26	1.000000	0.362867	7.36529e+06	-39939.1	955.818	-29792.6	0.000000	0.000000	6.362904	0.006439	NaN	0.000000	0.001569	0.001598	28.1018	0.026622	0.001817	14.6498	31.4538	-166.074	0.035604	0.361427	-0.697105	-0.698545	0.006439	14.6498	-0.697435	-1.805065E+9	-3.567242E-12	NaN
26	1.000000	0.402859	7.3653e+06	-39939.1	955.818	-29792.6	0.000000	0.000000	6.402897	0.035097	NaN	0.000000	0.001533	0.001605	28.1009	0.069608	0.001979	35.17	125.001	-166.532	0.058275	0.401564	-0.657113	-0.658409	0.035097	35.17	-0.657861	-5.190049E+8	-6.762319E-11	NaN
26	1.000000	0.442888	7.3653e+06	-39939.1	955.818	-29792.6	0.000000	0.000000	6.442926	0.063959	NaN	0.000000	0.001574	0.001571	28.1019	0.059866	0.002046	29.2566	166.06	-170.703	0.027609	0.441586	-0.617084	-0.618386	0.063959	29.2566	-0.618724	-1.506934E+8	-4.244292E-10	NaN
26	1.000000	0.482918	7.3653e+06	-39939.1	955.819	-29792.6	0.000000	0.000000	6.482955	0.031440	NaN	0.000000	0.001588	0.001629	28.1013	0.019138	0.001972	9.706547	-178.057	-165.779	0.037305	0.481655	-0.577054	-0.578317	0.031440	9.706547	-0.579484	-4.341076E+7	-7.242414E-10	NaN
26	1.000000	0.522923	7.3653e+06	-39939.1	955.818	-29792.6	0.000000	0.000000	6.522961	0.062523	NaN	0.000000	0.001543	0.001596	28.1027	0.045932	0.001931	23.7902	-134.058	-166.34	0.136077	0.521586	-0.537050	-0.538386	0.062523	23.7902	-0.539021	-1.196119E+7	-5.227115E-9	NaN
26	1.000000	0.562928	7.3653e+06	-39939.1	955.818	-29792.6	0.000000	0.000000	6.562963	-0.015182	NaN	0.000000	0.001560	0.001643	28.1012	0.066951	0.001969	34.003	-26.9793	-166.365	-0.022359	0.561619	-0.497044	-0.498353	-0.015182	34.003	-0.496709	-3.08389e+06	4.923009E-9	NaN
26	1.000000	0.602954	7.3653e+06	-39939.1	955.817	-29792.6	0.000000	0.000000	6.602992	0.059636	NaN	0.000000	0.001541	0.001652	28.1016	0.035167	0.001938	18.1447	143.633	-166.975	0.100760	0.601679	-0.457019	-0.458294	0.059636	18.1447	-0.459484	-928459	-6.423137E-8	NaN
26	1.000000	0.642986	7.3653e+06	-39939.1	955.818	-29792.6	0.000000	0.000000	6.643025	0.076000	NaN	0.000000	0.001512	0.001632	28.1	0.034332	0.002116	16.2238	-12.3203	-166.69	0.079077	0.641636	-0.416986	-0.418336	0.076000	16.2238	-0.420499	-261514	-2.906158E-7	NaN
26	1.000000	0.682969	7.3653e+06	-39939.1	955.82	-29792.7	0.000000	0.000000	6.683007	0.041889	NaN	0.000000	0.001518	0.001630	28.1007	0.020253	0.002053	9.866498	-154.677	-166.481	-0.028114	0.681640	-0.377003	-0.378332	0.041889	9.866498	-0.380187	-69594.6	-6.018987E-7	NaN
26	1.000000	0.723014	7.3653e+06	-39939.1	955.816	-29792.7	0.000000	0.000000	6.723052	0.061332	NaN	0.000000	0.001552	0.001629	28.0993	0.090138	0.001934	46.6002	-67.6182	-168.292	0.006750	0.721736	-0.336959	-0.338236	0.061332	46.6002	-0.337946	-17045	-3.598230E-6	NaN
26	1.000000	0.763032	7.3653e+06	-39939.1	955.818	-29792.7	0.000000	0.000000	6.763069	0.019086	NaN	0.000000	0.001563	0.001626	28.1014	0.088584	0.002090	42.3824	-70.4096	-166.254	0.073994	0.761690	-0.296940	-0.298282	0.019086	42.3824	-0.297278	-4286.31	-4.452719E-6	NaN
26	1.000000	0.803080	7.3653e+06	-39939.1	955.818	-29792.7	0.000000	0.000000	6.803117	0.032942	NaN	0.000000	0.001549	0.001597	28.0996	0.091409	0.002076	44.0379	-53.2894	-166.38	0.029910	0.801705	-0.256892	-0.258267	0.032942	44.0379	-0.257453	-1071.12	-3.075441E-5	NaN
26	1.000000	0.843019	7.3653e+06	-39939.1	955.818	-29792.7	0.000000	0.000000	6.843057	0.060520	NaN	0.000000	0.001584	0.001593	28.1013	0.116058	0.002124	54.6455	-48.8543	-166.3	0.060213	0.841702	-0.216953	-0.218270	0.060520	54.6455	-0.217784	-255.982	-0.000236	NaN
26	1.000000	0.883047	7.3653e+06	-39939.1	955.817	-29792.7	0.000000	0.000000	6.883084	0.043450	NaN	0.000000	0.001561	0.001582	28.0982	0.063885	0.001988	32.1348	-174.443	-167.561	0.040859	0.881757	-0.176926	-0.178216	0.043450	32.1348	-0.177940	-56.2785	-0.000772	NaN
26	1.000000	0.923082	7.3653e+06	-39939.1	955.818	-29792.7	0.000000	0.000000	6.923118	0.013091	NaN	0.000000	0.001690	0.001558	28.0985	0.084166	0.002044	41.1828	-121.433	-167.386	0.000600	0.921744	-0.136891	-0.138228	0.013091	41.1828	-0.137129	-10.4422	-0.001254	NaN
26	1.000000	0.963128	7.3653e+06	-39939.1	955.818	-29792.7	0.000000	0.000000	6.963166	0.038459	NaN	0.000000	0.001596	0.001577	28.0986	0.122597	0.001953	62.781	92.7371	-167.357	0.078057	0.961801	-0.096844	-0.098171	0.038459	62.781	-0.097304	-1.590617	-0.024179	NaN
26	1.000000	1.003098	7.3653e+06	-39939.1	955.817	-29792.7	0.000000	0.000000	7.003134	-0.014192	NaN	0.000000	0.001525	0.001604	28.0986	0.056107	0.001950	28.7702	-120.675	-166.435	-0.013577	1.001797	-0.056874	-0.058175	-0.014192	28.7702	-0.056504	-0.142596	0.099524	NaN
26	1.000000	1.043130	7.3653e+06	-39939.1	955.818	-29792.7	0.000000	0.000000	7.043169	0.068283	NaN	0.000000	0.001567	0.001604	28.0996	0.020960	0.002007	10.4429	93.1961	-164.023	0.076012	1.041797	-0.016842	-0.018175	0.068283	10.4429	-0.021746	-0.013912	-4.908033	NaN
26	2.000000	1.071761	7.3653e+06	-39939.1	955.819	-29792.7	0.000000	0.000000	7.072355	13.5692	NaN	0.000000	0.001539	0.001540	28.1002	12.4139	0.001741	7128.37	8.413265	-177.801	13.3942	1.071409	0.011789	0.011437	13.5692	7128.37	0.010361	0.009586	1415.54	66519.5
26	2.000000	1.081719	7.3653e+06	-39939.1	955.818	-29792.7	0.000000	0.000000	7.083132	33.5158	NaN	0.000000	0.001556	0.001574	28.0986	22.6386	0.001691	13389.8	-0.511224	-172.744	34.8266	1.081395	0.021747	0.021423	33.5158	13389.8	0.019870	0.022338	1500.42	81852.1
26	2.000000	1.091643	7.3653e+06	-39939.1	955.818	-29792.7	0.000000	0.000000	7.094488	68.3462	NaN	0.000000	0.001569	0.001536	28.0987	33.0909	0.001751	18901	4.703436	177.101	66.5764	1.091418	0.031671	0.031446	68.3462	18901	0.028959	0.038613	1770.01	87879.5
26	2.000000	1.101659	7.3653e+06	-39939.1	955.818	-29792.7	0.000000	0.000000	7.106102	107.242	NaN	0.000000	0.001544	0.001566	28.0967	44.6569	0.001879	23760.3	7.533034	173.456	107.986	1.101417	0.041687	0.041445	107.242	23760.3	0.038302	0.059713	1795.95	88836.2
26	2.000000	1.111568	7.3653e+06	-39939.1	955.82	-29792.7	0.000000	0.000000	7.118141	159.074	NaN	0.000000	0.001535	0.001540	28.0974	52.7722	0.001862	28338.6	4.199240	175.829	153.851	1.111274	0.051596	0.051302	159.074	28338.6	0.047386	0.084504	1882.45	89066.3
26	2.000000	1.121628	7.3653e+06	-39939.1	955.818	-29792.7	0.000000	0.000000	7.130396	212.48	NaN	0.000000	0.001499	0.001589	28.0969	61.7796	0.001856	33293.9	8.380108	170.193	211.33	1.121233	0.061656	0.061261	212.48	33293.9	0.056870	0.114823	1850.5	89768.4
26	2.000000	1.131627	7.3653e+06	-39939.1	955.818	-29792.7	0.000000	0.000000	7.143031	276.638	NaN	0.000000	0.001521	0.001596	28.099	71.3045	0.001788	39868.7	6.116440	171.72	276.758	1.131299	0.071654	0.071326	276.638	39868.7	0.066450	0.149949	1844.89	94066.3
26	2.000000	1.141636	7.3653e+06	-39939.1	955.82	-29792.7	0.000000	0.000000	7.155746	342.484	NaN	0.000000	0.001502	0.001556	28.0966	80.7282	0.001677	48144.8	3.891128	171.548	343.033	1.141289	0.081664	0.081317	342.484	48144.8	0.076329	0.190782	1795.16	100706
26	2.000000	1.151554	7.3653e+06	-39939.1	955.818	-29792.7	0.000000	0.000000	7.168936	422.113	NaN	0.000000	0.001533	0.001581	28.0982	90.4162	0.001778	50853.7	5.521923	169.625	420.281	1.151371	0.091581	0.091399	422.113	50853.7	0.085356	0.232103	1818.65	96439.6
26	2.000000	1.161591	7.3653e+06	-39939.1	955.819	-29792.7	0.000000	0.000000	7.182656	511.739	NaN	0.000000	0.001557	0.001588	28.0966	99.7448	0.001734	57528.4	2.140007	172.67	512.343	1.161311	0.101619	0.101339	511.739	57528.4	0.094947	0.280127	1826.81	99306.6
26	2.000000	1.166606	7.3653e+06	-39939.1	955.819	-29792.7	0.000000	0.000000	7.189446	554.92	NaN	0.000000	0.001512	0.001648	28.0977	103.9	0.001881	55225.2	6.883671	169.286	554.345	1.166145	0.106634	0.106173	554.92	55225.2	0.099098	0.302214	1836.19	91781.1

File: 2025-07-22_16-23-58_1_27.txt
2025-07-22, 16:23:58, 1
Index	Phase	Displacement	Time	Pos X	Pos Y	Pos Z	Rot A	Rot B	Piezo Z	Force A	Force B	Gripper	Voltage A	Voltage B	Temperature	Amplitude force	Amplitude pos	Stiffness	Phase shift	Phase excitation	Force A raw	Displacement raw	HMax	HMax raw	Real Force	Real Stiffness	Contact Depth	Area	Hardness	Reduced Mod.
[#]	[#]	[um]	[s]	[um]	[um]	[um]	[m°]	[m°]	[um]	[uN]	[uN]	[V]	[V]	[V]	[°C]	[uN]	[um]	[N/m]	[°]	[°]	[uN]	[um]	[um]	[um]	[uN]	[N/m]	[um]	[um^2]	[MPa]	[MPa]
27	1.000000	0.002870	7.3653e+06	-39989.1	955.82	-29792.3	0.000000	0.000000	6.002806	0.002777	NaN	0.000000	0.001678	0.001611	28.0817	0.133967	0.001076	124.485	-148.129	-172.081	-0.071411	0.001613	-1.069397	-1.070655	0.002777	124.485	-1.069414	-1.946775E+14	-1.426522E-17	NaN
27	1.000000	0.044799	7.3653e+06	-39989.1	955.818	-29792.3	0.000000	0.000000	6.044735	0.011076	NaN	0.000000	0.001644	0.001628	28.0931	0.067893	0.001916	35.44	82.4365	11.463	-0.036739	0.043405	-1.027469	-1.028863	0.011076	35.44	-1.027703	-5.352817E+13	-2.069178E-16	NaN
27	1.000000	0.086836	7.3653e+06	-39989.1	955.819	-29792.3	0.000000	0.000000	6.086772	0.001121	NaN	0.000000	0.001640	0.001608	28.1316	0.045006	0.002162	20.8145	-23.9107	-166.343	0.026198	0.085542	-0.985431	-0.986725	0.001121	20.8145	-0.985472	-1.445843E+13	-7.751154E-17	NaN
27	1.000000	0.128847	7.3653e+06	-39989.1	955.819	-29792.3	0.000000	0.000000	6.128781	-0.043847	NaN	0.000000	0.001670	0.001587	28.1032	0.184421	0.001870	98.6203	1.913137	13.4006	0.005910	0.127538	-0.943420	-0.944730	-0.043847	98.6203	-0.943087	-3.879512E+12	1.130216E-14	NaN
27	1.000000	0.170896	7.3653e+06	-39989.1	955.818	-29792.3	0.000000	0.000000	6.170831	-0.015700	NaN	0.000000	0.001618	0.001584	28.0798	0.104323	0.001965	53.0968	53.3251	-169.862	-0.058951	0.169572	-0.901371	-0.902696	-0.015700	53.0968	-0.901149	-1.053403E+12	1.490434E-14	NaN
27	1.000000	0.212893	7.3653e+06	-39989.1	955.818	-29792.3	0.000000	0.000000	6.212827	-0.018800	NaN	0.000000	0.001586	0.001598	28.0931	0.022573	0.002112	10.6854	-25.8995	14.7584	-0.106950	0.211564	-0.859375	-0.860704	-0.018800	10.6854	-0.858055	-2.752925E+11	6.829178E-14	NaN
27	1.000000	0.254897	7.3653e+06	-39989.1	955.819	-29792.3	0.000000	0.000000	6.254834	0.043730	NaN	0.000000	0.001569	0.001621	28.131	0.075913	0.002031	37.3704	-41.9509	-167.762	0.065291	0.253574	-0.817370	-0.818693	0.043730	37.3704	-0.818248	-7.951579E+10	-5.499532E-13	NaN
27	1.000000	0.296905	7.3653e+06	-39989.1	955.818	-29792.3	0.000000	0.000000	6.296842	0.026759	NaN	0.000000	0.001565	0.001613	28.1058	0.100896	0.002017	50.0147	-171.034	13.407	0.012124	0.295532	-0.775362	-0.776736	0.026759	50.0147	-0.775763	-2.106955E+10	-1.270032E-12	NaN
27	1.000000	0.338943	7.3653e+06	-39989.1	955.819	-29792.3	0.000000	0.000000	6.338878	-0.010186	NaN	0.000000	0.001537	0.001609	28.0811	0.072051	0.001961	36.7394	-55.2317	-165.705	-0.054677	0.337674	-0.733324	-0.734594	-0.010186	36.7394	-0.733116	-5.536985E+9	1.839603E-12	NaN
27	1.000000	0.380946	7.3653e+06	-39989.1	955.819	-29792.3	0.000000	0.000000	6.380881	0.002682	NaN	0.000000	0.001566	0.001611	28.0918	0.084827	0.002009	42.2168	-45.7798	10.0756	-0.026484	0.379613	-0.691322	-0.692654	0.002682	42.2168	-0.691369	-1.491528E+9	-1.798463E-12	NaN
27	1.000000	0.422970	7.3653e+06	-39989.1	955.819	-29792.3	0.000000	0.000000	6.422906	0.009380	NaN	0.000000	0.001578	0.001587	28.1294	0.086467	0.001994	43.3634	96.8336	-167.639	-0.047936	0.421673	-0.649298	-0.650595	0.009380	43.3634	-0.649460	-3.981365E+8	-2.355955E-11	NaN
27	1.000000	0.464993	7.3653e+06	-39989.1	955.819	-29792.3	0.000000	0.000000	6.464931	0.047518	NaN	0.000000	0.001566	0.001645	28.1054	0.039631	0.001956	20.2614	62.3596	14.9567	-0.041600	0.463685	-0.607274	-0.608583	0.047518	20.2614	-0.609033	-1.108692E+8	-4.285973E-10	NaN
27	1.000000	0.506998	7.36531e+06	-39989.1	955.818	-29792.3	0.000000	0.000000	6.506936	0.049749	NaN	0.000000	0.001577	0.001616	28.0804	0.081324	0.002018	40.2991	-172.547	-162.882	0.063697	0.505703	-0.565269	-0.566564	0.049749	40.2991	-0.566195	-2.844739E+7	-1.748814E-9	NaN
27	1.000000	0.549031	7.36531e+06	-39989.1	955.817	-29792.3	0.000000	0.000000	6.548965	-0.018441	NaN	0.000000	0.001587	0.001635	28.0938	0.032271	0.002022	15.961	-88.7084	11.6074	0.060369	0.547643	-0.523237	-0.524624	-0.018441	15.961	-0.522370	-7.02354e+06	2.625587E-9	NaN
27	1.000000	0.591042	7.36531e+06	-39989.1	955.818	-29792.3	0.000000	0.000000	6.590977	-0.014293	NaN	0.000000	0.001582	0.001621	28.1311	0.084507	0.001959	43.1279	-132.802	-169.375	0.062615	0.589762	-0.481225	-0.482505	-0.014293	43.1279	-0.480977	-1.85865e+06	7.690132E-9	NaN
27	1.000000	0.633062	7.36531e+06	-39989.1	955.819	-29792.3	0.000000	0.000000	6.632998	0.011681	NaN	0.000000	0.001613	0.001572	28.1075	0.042873	0.002063	20.7779	19.1447	10.8934	0.058089	0.631704	-0.439205	-0.440564	0.011681	20.7779	-0.439627	-487635	-2.395380E-8	NaN
27	1.000000	0.675086	7.36531e+06	-39989.1	955.819	-29792.3	0.000000	0.000000	6.675021	-0.020391	NaN	0.000000	0.001578	0.001597	28.0813	0.131037	0.002014	65.0584	-138.665	-167.634	0.055810	0.673798	-0.397181	-0.398470	-0.020391	65.0584	-0.396946	-120900	1.686598E-7	NaN
27	1.000000	0.717092	7.36531e+06	-39989.1	955.819	-29792.3	0.000000	0.000000	6.717027	-0.015942	NaN	0.000000	0.001527	0.001578	28.0908	0.064849	0.001888	34.3519	-59.5753	12.7259	-0.068621	0.715738	-0.355176	-0.356529	-0.015942	34.3519	-0.354828	-29991.5	5.315399E-7	NaN
27	1.000000	0.759137	7.36531e+06	-39989.1	955.818	-29792.3	0.000000	0.000000	6.759075	0.059280	NaN	0.000000	0.001588	0.001624	28.1283	0.073674	0.002041	36.0948	90.5088	-166.515	0.044088	0.757847	-0.313130	-0.314421	0.059280	36.0948	-0.314362	-7683	-7.715684E-6	NaN
27	1.000000	0.801114	7.36531e+06	-39989.1	955.819	-29792.3	0.000000	0.000000	6.801051	0.038963	NaN	0.000000	0.001588	0.001638	28.1081	0.071091	0.002091	34.0035	80.3361	13.3001	0.015261	0.799811	-0.271153	-0.272456	0.038963	34.0035	-0.272013	-1786.96	-2.180415E-5	NaN
27	1.000000	0.843157	7.36531e+06	-39989.1	955.818	-29792.3	0.000000	0.000000	6.843092	-0.010540	NaN	0.000000	0.001519	0.001652	28.0807	0.094703	0.001794	52.7744	-125.448	-169.105	0.046370	0.841872	-0.229110	-0.230396	-0.010540	52.7744	-0.228960	-385.557	2.733652E-5	NaN
27	1.000000	0.885170	7.36531e+06	-39989.1	955.819	-29792.3	0.000000	0.000000	6.885105	-0.011612	NaN	0.000000	0.001610	0.001621	28.0903	0.034504	0.002059	16.7569	-62.9844	14.851	0.032476	0.883775	-0.187097	-0.188492	-0.011612	16.7569	-0.186577	-78.8277	0.000147	NaN
27	1.000000	0.927165	7.36531e+06	-39989.1	955.819	-29792.3	0.000000	0.000000	6.927102	0.032226	NaN	0.000000	0.001549	0.001566	28.1285	0.054629	0.002127	25.6817	85.5789	-165.635	-0.018085	0.925908	-0.145102	-0.146360	0.032226	25.6817	-0.146043	-15.3265	-0.002103	NaN
27	1.000000	0.969207	7.36531e+06	-39989.1	955.817	-29792.3	0.000000	0.000000	6.969144	0.018251	NaN	0.000000	0.001560	0.001642	28.1068	0.030312	0.001989	15.2404	71.9349	12.871	0.027919	0.967845	-0.103060	-0.104422	0.018251	15.2404	-0.103958	-2.231557	-0.008178	NaN
27	1.000000	1.011193	7.36531e+06	-39989.1	955.817	-29792.3	0.000000	0.000000	7.011129	0.008609	NaN	0.000000	0.001551	0.001611	28.0803	0.101710	0.002044	49.7653	-120.846	-164.417	-0.016463	1.009859	-0.061075	-0.062408	0.008609	49.7653	-0.061204	-0.194946	-0.044162	NaN
27	1.000000	1.053227	7.36531e+06	-39989.1	955.817	-29792.3	0.000000	0.000000	7.053164	0.036264	NaN	0.000000	0.001588	0.001634	28.0892	0.028926	0.002016	14.3462	119.597	15.2503	0.012905	1.051844	-0.019040	-0.020423	0.036264	14.3462	-0.020936	-0.013268	-2.733170	NaN
27	1.000000	1.095248	7.36531e+06	-39989.1	955.818	-29792.3	0.000000	0.000000	7.095183	-0.021107	NaN	0.000000	0.001574	0.001627	28.1301	0.056932	0.002144	26.5535	3.412219	-166.799	0.003013	1.093977	0.022981	0.021710	-0.021107	26.5535	0.023577	0.028477	-0.741188	143.762
27	1.000000	1.137225	7.36531e+06	-39989.1	955.819	-29792.3	0.000000	0.000000	7.137398	5.776973	NaN	0.000000	0.001651	0.001632	28.1105	2.304175	0.001991	1157.21	10.8599	11.4951	4.990044	1.135914	0.064957	0.063646	5.776973	1157.21	0.061213	0.130195	44.3718	2930.14
27	2.000000	1.152701	7.36531e+06	-39989.1	955.818	-29792.3	0.000000	0.000000	7.153214	14.052	NaN	0.000000	0.001602	0.001651	28.0827	5.259922	0.002015	2610.08	8.288019	-170.363	13.9361	1.152390	0.080434	0.080123	14.052	2610.08	0.076396	0.191075	73.5416	5455.37
27	2.000000	1.163180	7.36531e+06	-39989.1	955.817	-29792.3	0.000000	0.000000	7.163697	14.1486	NaN	0.000000	0.001577	0.001680	28.0878	6.333355	0.001918	3302.9	9.537614	7.726323	14.2815	1.162790	0.090912	0.090523	14.1486	3302.9	0.087699	0.243447	58.1177	6115.99
27	2.000000	1.173668	7.36531e+06	-39989.1	955.817	-29792.3	0.000000	0.000000	7.173821	5.290845	NaN	0.000000	0.001587	0.001639	28.1285	5.839438	0.002044	2856.42	14.3583	-170.8	5.336146	1.173353	0.101400	0.101086	5.290845	2856.42	0.100011	0.307179	17.224	4708.69
27	2.000000	1.184117	7.36531e+06	-39989.1	955.818	-29792.3	0.000000	0.000000	7.184983	22.6355	NaN	0.000000	0.001565	0.001610	28.1095	16.3935	0.001675	9788.47	10.4818	-0.363243	20.7503	1.183780	0.111850	0.111513	22.6355	9788.47	0.110115	0.364638	62.0766	14810.1
27	2.000000	1.194608	7.36531e+06	-39989.1	955.817	-29792.3	0.000000	0.000000	7.197737	77.7189	NaN	0.000000	0.001580	0.001639	28.0828	28.501	0.001826	15607.8	7.472658	178.652	75.4865	1.194298	0.122340	0.122031	77.7189	15607.8	0.118606	0.416500	186.6	22095.7
27	2.000000	1.205058	7.36531e+06	-39989.1	955.818	-29792.3	0.000000	0.000000	7.211459	157.32	NaN	0.000000	0.001566	0.001617	28.0888	38.5262	0.001778	21672.9	3.904213	-2.083865	154.758	1.204714	0.132791	0.132446	157.32	21672.9	0.127347	0.473313	332.381	28781.7
27	2.000000	1.215502	7.36531e+06	-39989.1	955.817	-29792.3	0.000000	0.000000	7.225789	251.899	NaN	0.000000	0.001616	0.001630	28.1289	47.8661	0.001823	26250.6	3.678402	176.338	247.431	1.215204	0.143235	0.142937	251.899	26250.6	0.136038	0.533255	472.379	32843.1
27	2.000000	1.226027	7.36531e+06	-39989.1	955.818	-29792.3	0.000000	0.000000	7.240689	358.367	NaN	0.000000	0.001572	0.001641	28.1107	56.9628	0.001839	30977.1	1.390625	-2.213603	353.825	1.225733	0.153760	0.153466	358.367	30977.1	0.145083	0.599328	597.948	36558
27	2.000000	1.236508	7.36531e+06	-39989.1	955.82	-29792.3	0.000000	0.000000	7.255856	472.377	NaN	0.000000	0.001582	0.001662	28.0816	62.8298	0.001755	35799.9	0.758445	176.892	468.853	1.236178	0.164241	0.163911	472.377	35799.9	0.154345	0.670908	704.087	39932.2
27	2.000000	1.242572	7.36531e+06	-39989.1	955.819	-29792.3	0.000000	0.000000	7.265031	548.098	NaN	0.000000	0.001597	0.001632	28.0787	70.6304	0.001914	36899.8	7.398651	171.804	546.934	1.242089	0.170305	0.169822	548.098	36899.8	0.159164	0.709744	772.247	40017.2