Folder: unikorn_login/remote_trans/data/nanoindenter/0828-1/data/Data_2025-08-06,11h17m57s (part 9)

File: 2025-07-22_16-23-58_1_16.txt
2025-07-22, 16:23:58, 1
Index	Phase	Displacement	Time	Pos X	Pos Y	Pos Z	Rot A	Rot B	Piezo Z	Force A	Force B	Gripper	Voltage A	Voltage B	Temperature	Amplitude force	Amplitude pos	Stiffness	Phase shift	Phase excitation	Force A raw	Displacement raw	HMax	HMax raw	Real Force	Real Stiffness	Contact Depth	Area	Hardness	Reduced Mod.
[#]	[#]	[um]	[s]	[um]	[um]	[um]	[m°]	[m°]	[um]	[uN]	[uN]	[V]	[V]	[V]	[°C]	[uN]	[um]	[N/m]	[°]	[°]	[uN]	[um]	[um]	[um]	[uN]	[N/m]	[um]	[um^2]	[MPa]	[MPa]
16	1.000000	0.003176	7.3652e+06	-39439.1	955.818	-29794.5	0.000000	0.000000	6.002803	0.081949	NaN	0.000000	0.001582	0.001802	28.1231	0.074449	0.000964	77.2198	-76.4081	-164.869	0.030576	0.001910	-1.080856	-1.082122	0.081949	77.2198	-1.081651	-2.842498E+14	-2.882984E-16	NaN
16	1.000000	0.043138	7.3652e+06	-39439.1	955.818	-29794.5	0.000000	0.000000	6.042760	-0.017138	NaN	0.000000	0.001516	0.001797	28.1239	0.089994	0.002186	41.1684	64.9338	-162.852	0.020592	0.041838	-1.040894	-1.042194	-0.017138	41.1684	-1.040582	-7.976085E+13	2.148710E-16	NaN
16	1.000000	0.083114	7.3652e+06	-39439.1	955.818	-29794.5	0.000000	0.000000	6.082737	-0.010361	NaN	0.000000	0.001567	0.001773	28.1228	0.025908	0.001971	13.1436	118.956	-164.462	-0.050005	0.081870	-1.000917	-1.002162	-0.010361	13.1436	-1.000326	-2.291715E+13	4.521232E-16	NaN
16	1.000000	0.123178	7.3652e+06	-39439.1	955.818	-29794.5	0.000000	0.000000	6.122800	-0.032743	NaN	0.000000	0.001551	0.001797	28.1251	0.046049	0.001887	24.4039	119.682	-167.613	0.022241	0.121843	-0.960854	-0.962189	-0.032743	24.4039	-0.959847	-6.528459E+12	5.015385E-15	NaN
16	1.000000	0.163179	7.3652e+06	-39439.1	955.818	-29794.5	0.000000	0.000000	6.162801	-0.026574	NaN	0.000000	0.001610	0.001803	28.1242	0.170462	0.002013	84.6713	-114.238	-168.853	-0.070402	0.161839	-0.920853	-0.922193	-0.026574	84.6713	-0.920618	-1.929959E+12	1.376913E-14	NaN
16	1.000000	0.203201	7.3652e+06	-39439.1	955.817	-29794.5	0.000000	0.000000	6.202824	0.010102	NaN	0.000000	0.001543	0.001836	28.1254	0.085771	0.002054	41.7598	161.742	-166.609	-0.049730	0.201888	-0.880831	-0.882143	0.010102	41.7598	-0.881013	-5.628624E+11	-1.794838E-14	NaN
16	1.000000	0.243186	7.3652e+06	-39439.1	955.819	-29794.5	0.000000	0.000000	6.242810	0.023564	NaN	0.000000	0.001546	0.001817	28.1229	0.033800	0.001896	17.8278	-152.332	-169.619	-0.000699	0.241892	-0.840846	-0.842140	0.023564	17.8278	-0.841837	-1.660280E+11	-1.419268E-13	NaN
16	1.000000	0.283214	7.3652e+06	-39439.1	955.818	-29794.5	0.000000	0.000000	6.282840	0.051240	NaN	0.000000	0.001523	0.001786	28.1247	0.017877	0.002010	8.894320	71.4434	-166.23	0.074616	0.281925	-0.800818	-0.802107	0.051240	8.894320	-0.805138	-5.279601E+10	-9.705188E-13	NaN
16	1.000000	0.323247	7.3652e+06	-39439.1	955.818	-29794.5	0.000000	0.000000	6.322870	0.001623	NaN	0.000000	0.001524	0.001811	28.1237	0.081945	0.002022	40.5291	-78.1969	-165.898	0.007561	0.321928	-0.760785	-0.762104	0.001623	40.5291	-0.760815	-1.319451E+10	-1.229732E-13	NaN
16	1.000000	0.363260	7.3652e+06	-39439.1	955.818	-29794.5	0.000000	0.000000	6.362883	0.000933	NaN	0.000000	0.001552	0.001787	28.1256	0.099297	0.002062	48.1548	27.8484	-166.783	0.054583	0.361975	-0.720772	-0.722057	0.000933	48.1548	-0.720786	-3.760085E+9	-2.480399E-13	NaN
16	1.000000	0.403271	7.3652e+06	-39439.1	955.818	-29794.5	0.000000	0.000000	6.402895	0.004168	NaN	0.000000	0.001642	0.001796	28.1254	0.072556	0.002072	35.0168	43.996	-169.387	-0.059147	0.401999	-0.680760	-0.682033	0.004168	35.0168	-0.680850	-1.071090E+9	-3.891599E-12	NaN
16	1.000000	0.443320	7.3652e+06	-39439.1	955.817	-29794.5	0.000000	0.000000	6.442941	-0.036868	NaN	0.000000	0.001576	0.001820	28.1264	0.067285	0.002085	32.2755	-112.323	-170.289	0.023698	0.441971	-0.640712	-0.642061	-0.036868	32.2755	-0.639855	-2.939717E+8	1.254140E-10	NaN
16	1.000000	0.483311	7.3652e+06	-39439.1	955.817	-29794.5	0.000000	0.000000	6.482932	-0.048392	NaN	0.000000	0.001509	0.001830	28.1258	0.098404	0.001990	49.4438	-159.211	-167.526	-0.062966	0.482018	-0.600721	-0.602014	-0.048392	49.4438	-0.599987	-8.322954E+7	5.814303E-10	NaN
16	1.000000	0.523323	7.3652e+06	-39439.1	955.818	-29794.5	0.000000	0.000000	6.522944	-0.066111	NaN	0.000000	0.001533	0.001870	28.1259	0.085742	0.001928	44.4819	-26.9319	-171.36	-0.032311	0.522014	-0.560708	-0.562018	-0.066111	44.4819	-0.559594	-2.305457E+7	2.867573E-9	NaN
16	1.000000	0.563343	7.3652e+06	-39439.1	955.819	-29794.5	0.000000	0.000000	6.562967	0.014808	NaN	0.000000	0.001538	0.001819	28.1247	0.148763	0.001963	75.7972	156.075	-163.935	-0.020597	0.562000	-0.520689	-0.522032	0.014808	75.7972	-0.520835	-6.68669e+06	-2.214596E-9	NaN
16	1.000000	0.603364	7.3652e+06	-39439.1	955.818	-29794.5	0.000000	0.000000	6.602987	0.002951	NaN	0.000000	0.001533	0.001852	28.1259	0.003582	0.002051	1.746104	-38.5781	-164.532	-0.010677	0.602089	-0.480668	-0.481942	0.002951	1.746104	-0.481936	-1.91699e+06	-1.539533E-9	NaN
16	1.000000	0.643378	7.3652e+06	-39439.1	955.819	-29794.5	0.000000	0.000000	6.642998	-0.089834	NaN	0.000000	0.001529	0.001826	28.1251	0.051175	0.001950	26.2393	75.7824	-166.832	-0.163875	0.642078	-0.440654	-0.441954	-0.089834	26.2393	-0.438086	-463814	1.936848E-7	NaN
16	1.000000	0.683387	7.3652e+06	-39439.1	955.818	-29794.5	0.000000	0.000000	6.683009	-0.041243	NaN	0.000000	0.001529	0.001801	28.1275	0.134166	0.001971	68.0639	173.267	-165.067	-0.033720	0.682070	-0.400645	-0.401962	-0.041243	68.0639	-0.400190	-134496	3.066520E-7	NaN
16	1.000000	0.723417	7.3652e+06	-39439.1	955.819	-29794.5	0.000000	0.000000	6.723038	-0.051934	NaN	0.000000	0.001519	0.001818	28.1264	0.058728	0.002000	29.357	-69.158	-168.21	-0.077283	0.722165	-0.360615	-0.361867	-0.051934	29.357	-0.359288	-34798.3	1.492426E-6	NaN
16	1.000000	0.763448	7.3652e+06	-39439.1	955.819	-29794.5	0.000000	0.000000	6.763072	0.008770	NaN	0.000000	0.001591	0.001844	28.1277	0.135380	0.001971	68.7031	122.097	-166.274	-0.013555	0.762050	-0.320584	-0.321982	0.008770	68.7031	-0.320679	-9519.98	-9.212314E-7	NaN
16	1.000000	0.803486	7.3652e+06	-39439.1	955.819	-29794.5	0.000000	0.000000	6.803110	0.020646	NaN	0.000000	0.001563	0.001857	28.1257	0.103315	0.001985	52.0495	107.199	-170.346	-0.056162	0.802140	-0.280546	-0.281891	0.020646	52.0495	-0.280843	-2430.44	-8.494559E-6	NaN
16	1.000000	0.843480	7.3652e+06	-39439.1	955.818	-29794.5	0.000000	0.000000	6.843103	0.010570	NaN	0.000000	0.001539	0.001804	28.1274	0.065325	0.001972	33.1266	54.7102	-168.485	0.049108	0.842111	-0.240552	-0.241921	0.010570	33.1266	-0.240791	-591.439	-1.787125E-5	NaN
16	1.000000	0.883478	7.3652e+06	-39439.1	955.818	-29794.5	0.000000	0.000000	6.883097	-0.093118	NaN	0.000000	0.001573	0.001787	28.1263	0.050803	0.001910	26.6037	-67.7846	-167.792	-0.046998	0.882191	-0.200554	-0.201841	-0.093118	26.6037	-0.197929	-121.788	0.000765	NaN
16	1.000000	0.923485	7.3652e+06	-39439.1	955.819	-29794.5	0.000000	0.000000	6.923108	-0.005078	NaN	0.000000	0.001509	0.001810	28.1289	0.146037	0.001966	74.2792	116.957	-168.877	0.006408	0.922178	-0.160547	-0.161853	-0.005078	74.2792	-0.160496	-27.9763	0.000182	NaN
16	1.000000	0.963507	7.3652e+06	-39439.1	955.818	-29794.5	0.000000	0.000000	6.963125	-0.128496	NaN	0.000000	0.001535	0.001776	28.1278	0.091056	0.001928	47.2376	-153.188	-167.714	-0.068356	0.962236	-0.120525	-0.121796	-0.128496	47.2376	-0.118485	-4.502043	0.028542	NaN
16	1.000000	1.003518	7.3652e+06	-39439.1	955.818	-29794.5	0.000000	0.000000	7.003139	-0.053699	NaN	0.000000	0.001608	0.001803	28.1293	0.078824	0.001921	41.025	9.794642	-165.849	0.066964	1.002239	-0.080514	-0.081793	-0.053699	41.025	-0.079532	-0.602521	0.089123	NaN
16	1.000000	1.043580	7.3652e+06	-39439.1	955.817	-29794.5	0.000000	0.000000	7.043202	-0.019003	NaN	0.000000	0.001617	0.001824	28.1278	0.132429	0.002050	64.5913	-84.4016	-166.157	0.005312	1.042226	-0.040452	-0.041806	-0.019003	64.5913	-0.040232	-0.045961	0.413467	NaN
16	1.000000	1.083542	7.3652e+06	-39439.1	955.818	-29794.5	0.000000	0.000000	7.083168	0.070302	NaN	0.000000	0.001590	0.001835	28.1275	0.241090	0.001973	122.22	-10.0021	-167.201	0.012481	1.082261	-0.000490	-0.001771	0.070302	122.22	-0.000921	-0.000676	-103.934	NaN
16	2.000000	1.101146	7.3652e+06	-39439.1	955.817	-29794.5	0.000000	0.000000	7.101767	24.2839	NaN	0.000000	0.001610	0.001749	28.1267	17.5303	0.001813	9668.58	7.974388	-179.6	23.9572	1.100815	0.017114	0.016783	24.2839	9668.58	0.015231	0.015594	1557.24	70738.4
16	2.000000	1.111081	7.3652e+06	-39439.1	955.819	-29794.5	0.000000	0.000000	7.112625	46.7498	NaN	0.000000	0.001615	0.001759	28.128	27.1807	0.001746	15570.7	5.501223	178.636	44.8932	1.110789	0.027049	0.026757	46.7498	15570.7	0.024797	0.030647	1525.42	81261.8
16	2.000000	1.121086	7.3652e+06	-39439.1	955.819	-29794.5	0.000000	0.000000	7.123916	78.0383	NaN	0.000000	0.001636	0.001723	28.1283	36.7095	0.001897	19353.2	3.406015	-179.988	77.0735	1.120778	0.037054	0.036746	78.0383	19353.2	0.034030	0.049512	1576.15	79464.3
16	2.000000	1.131072	7.3652e+06	-39439.1	955.819	-29794.5	0.000000	0.000000	7.134967	103.973	NaN	0.000000	0.001608	0.001711	28.1296	44.7663	0.001915	23378.4	2.810632	178.743	103.476	1.130776	0.047040	0.046744	103.973	23378.4	0.043704	0.073951	1405.97	78544.3
16	2.000000	1.141101	7.3652e+06	-39439.1	955.819	-29794.5	0.000000	0.000000	7.146734	146.236	NaN	0.000000	0.001514	0.001696	28.1288	54.2757	0.001759	30863.1	5.299229	173.541	147.169	1.140727	0.057069	0.056695	146.236	30863.1	0.053515	0.103588	1411.7	87610.7
16	2.000000	1.150995	7.3652e+06	-39439.1	955.819	-29794.5	0.000000	0.000000	7.158924	202.135	NaN	0.000000	0.001589	0.001755	28.1298	63.8403	0.001825	34987.9	3.622203	174.604	198.643	1.150632	0.066963	0.066601	202.135	34987.9	0.062630	0.135408	1492.79	86870
16	2.000000	1.161029	7.3652e+06	-39439.1	955.818	-29794.5	0.000000	0.000000	7.171171	255.964	NaN	0.000000	0.001573	0.001710	28.1277	73.2431	0.001794	40821	4.961769	172.034	253.634	1.160720	0.076997	0.076688	255.964	40821	0.072294	0.173546	1474.9	89526.1
16	2.000000	1.170936	7.3652e+06	-39439.1	955.819	-29794.5	0.000000	0.000000	7.183903	324.716	NaN	0.000000	0.001548	0.001723	28.1288	82.0003	0.001827	44883.5	1.626835	175.22	320.919	1.170719	0.086904	0.086687	324.716	44883.5	0.081478	0.213889	1518.15	88667.6
16	2.000000	1.181002	7.3652e+06	-39439.1	955.819	-29794.5	0.000000	0.000000	7.196878	395.507	NaN	0.000000	0.001548	0.001760	28.1278	91.0369	0.001783	51063.7	2.760840	172.95	394.568	1.180740	0.096970	0.096708	395.507	51063.7	0.091161	0.260664	1517.3	91378.6
16	2.000000	1.191043	7.3652e+06	-39439.1	955.819	-29794.5	0.000000	0.000000	7.210433	481.009	NaN	0.000000	0.001538	0.001763	28.1305	102.817	0.001817	56583.3	6.617543	168.016	481.018	1.190735	0.107011	0.106703	481.009	56583.3	0.100635	0.310596	1548.66	92760.6
16	2.000000	1.191912	7.3652e+06	-39439.1	955.819	-29794.5	0.000000	0.000000	7.211702	490.758	NaN	0.000000	0.001571	0.001754	28.0816	102.327	0.001828	55985.7	6.120052	169.306	485.829	1.191595	0.107880	0.107563	490.758	55985.7	0.101306	0.314283	1561.52	91241

File: 2025-07-22_16-23-58_1_17.txt
2025-07-22, 16:23:58, 1
Index	Phase	Displacement	Time	Pos X	Pos Y	Pos Z	Rot A	Rot B	Piezo Z	Force A	Force B	Gripper	Voltage A	Voltage B	Temperature	Amplitude force	Amplitude pos	Stiffness	Phase shift	Phase excitation	Force A raw	Displacement raw	HMax	HMax raw	Real Force	Real Stiffness	Contact Depth	Area	Hardness	Reduced Mod.
[#]	[#]	[um]	[s]	[um]	[um]	[um]	[m°]	[m°]	[um]	[uN]	[uN]	[V]	[V]	[V]	[°C]	[uN]	[um]	[N/m]	[°]	[°]	[uN]	[um]	[um]	[um]	[uN]	[N/m]	[um]	[um^2]	[MPa]	[MPa]
17	1.000000	0.002952	7.36521e+06	-39489.1	955.82	-29794.3	0.000000	0.000000	6.002831	-0.026592	NaN	0.000000	0.001552	0.001634	28.1062	0.027799	0.000886	31.3623	99.6774	-166.791	0.017131	0.001656	-1.097403	-1.098700	-0.026592	31.3623	-1.096767	-4.535995E+14	5.862468E-17	NaN
17	1.000000	0.044855	7.36521e+06	-39489.1	955.819	-29794.3	0.000000	0.000000	6.044735	0.007964	NaN	0.000000	0.001518	0.001661	28.1313	0.100108	0.001969	50.8443	35.0675	12.238	0.038694	0.043504	-1.055501	-1.056852	0.007964	50.8443	-1.055619	-1.270388E+14	-6.268956E-17	NaN
17	1.000000	0.086870	7.36521e+06	-39489.1	955.819	-29794.3	0.000000	0.000000	6.086749	-0.015833	NaN	0.000000	0.001569	0.001662	28.0932	0.087647	0.001913	45.8073	-102.935	-165.616	-0.022327	0.085581	-1.013486	-1.014774	-0.015833	45.8073	-1.013226	-3.418264E+13	4.631847E-16	NaN
17	1.000000	0.128902	7.36521e+06	-39489.1	955.818	-29794.3	0.000000	0.000000	6.128782	0.010778	NaN	0.000000	0.001550	0.001667	28.0815	0.180756	0.002044	88.4167	164.652	15.5049	-1.111977E-5	0.127490	-0.971454	-0.972865	0.010778	88.4167	-0.971545	-9.386120E+12	-1.148329E-15	NaN
17	1.000000	0.170918	7.36521e+06	-39489.1	955.817	-29794.3	0.000000	0.000000	6.170797	-0.016515	NaN	0.000000	0.001531	0.001712	28.1062	0.007912	0.002048	3.863545	-12.8515	-168.398	-0.023964	0.169623	-0.929438	-0.930733	-0.016515	3.863545	-0.926232	-2.297920E+12	7.187099E-15	NaN
17	1.000000	0.212920	7.36521e+06	-39489.1	955.819	-29794.3	0.000000	0.000000	6.212799	-0.019981	NaN	0.000000	0.001518	0.001677	28.1311	0.029915	0.002003	14.9361	152.837	15.9522	-0.026488	0.211586	-0.887435	-0.888770	-0.019981	14.9361	-0.886432	-6.663139E+11	2.998717E-14	NaN
17	1.000000	0.254991	7.36521e+06	-39489.1	955.818	-29794.3	0.000000	0.000000	6.254870	-0.006950	NaN	0.000000	0.001574	0.001663	28.0924	0.108357	0.001954	55.4572	140.684	-164.17	0.035352	0.253651	-0.845365	-0.846705	-0.006950	55.4572	-0.845271	-1.847964E+11	3.761097E-14	NaN
17	1.000000	0.297000	7.36521e+06	-39489.1	955.818	-29794.3	0.000000	0.000000	6.296878	-0.051604	NaN	0.000000	0.001580	0.001661	28.0822	0.053523	0.002059	25.9906	17.6249	12.4882	-0.122321	0.295585	-0.803356	-0.804771	-0.051604	25.9906	-0.801866	-4.766469E+10	1.082637E-12	NaN
17	1.000000	0.338990	7.36521e+06	-39489.1	955.819	-29794.3	0.000000	0.000000	6.338869	-0.011464	NaN	0.000000	0.001511	0.001659	28.1046	0.075720	0.002050	36.9291	144.008	-168.004	-0.095562	0.337640	-0.761366	-0.762716	-0.011464	36.9291	-0.761133	-1.332647E+10	8.602202E-13	NaN
17	1.000000	0.381025	7.36521e+06	-39489.1	955.818	-29794.3	0.000000	0.000000	6.380903	-0.042938	NaN	0.000000	0.001527	0.001618	28.1335	0.101395	0.001952	51.9388	110.549	14.9495	-0.076085	0.379692	-0.719331	-0.720663	-0.042938	51.9388	-0.718711	-3.522822E+9	1.218852E-11	NaN
17	1.000000	0.423064	7.36521e+06	-39489.1	955.818	-29794.3	0.000000	0.000000	6.422946	0.048504	NaN	0.000000	0.001588	0.001620	28.0934	0.026476	0.001980	13.375	58.4151	-167.169	0.012098	0.421686	-0.677291	-0.678670	0.048504	13.375	-0.680011	-1.043182E+9	-4.649657E-11	NaN
17	1.000000	0.465069	7.36521e+06	-39489.1	955.819	-29794.3	0.000000	0.000000	6.464949	-0.011366	NaN	0.000000	0.001603	0.001635	28.081	0.015852	0.001919	8.260699	41.3753	13.0132	-0.080821	0.463736	-0.635286	-0.636619	-0.011366	8.260699	-0.634254	-2.462850E+8	4.615157E-11	NaN
17	1.000000	0.507070	7.36521e+06	-39489.1	955.819	-29794.3	0.000000	0.000000	6.506950	0.001781	NaN	0.000000	0.001601	0.001647	28.1037	0.054046	0.002018	26.7769	22.2213	-162.096	0.060523	0.505776	-0.593285	-0.594580	0.001781	26.7769	-0.593335	-6.739719E+7	-2.642368E-11	NaN
17	1.000000	0.549073	7.36521e+06	-39489.1	955.818	-29794.3	0.000000	0.000000	6.548952	-0.030452	NaN	0.000000	0.001591	0.001599	28.1316	0.068142	0.001912	35.6402	66.2429	15.7528	0.053928	0.547737	-0.551283	-0.552619	-0.030452	35.6402	-0.550642	-1.733187E+7	1.756975E-9	NaN
17	1.000000	0.591115	7.36521e+06	-39489.1	955.819	-29794.3	0.000000	0.000000	6.590991	-0.069920	NaN	0.000000	0.001516	0.001595	28.0918	0.014432	0.001913	7.545560	-81.5113	-166.45	0.013267	0.589745	-0.509241	-0.510611	-0.069920	7.545560	-0.502291	-3.68959e+06	1.895075E-8	NaN
17	1.000000	0.633111	7.36521e+06	-39489.1	955.819	-29794.3	0.000000	0.000000	6.632988	-0.053782	NaN	0.000000	0.001483	0.001567	28.0815	0.032918	0.001971	16.7027	86.9088	11.383	-0.052950	0.631769	-0.467245	-0.468587	-0.053782	16.7027	-0.464830	-1.10373e+06	4.872790E-8	NaN
17	1.000000	0.675140	7.36521e+06	-39489.1	955.818	-29794.3	0.000000	0.000000	6.675018	-0.046081	NaN	0.000000	0.001603	0.001626	28.1027	0.074070	0.001904	38.9063	-148.934	-165.443	-0.045929	0.673850	-0.425216	-0.426505	-0.046081	38.9063	-0.424327	-296315	1.555123E-7	NaN
17	1.000000	0.717142	7.36521e+06	-39489.1	955.819	-29794.3	0.000000	0.000000	6.717023	0.032580	NaN	0.000000	0.001531	0.001632	28.1334	0.012863	0.001970	6.529054	125.136	10.1083	-0.080918	0.715843	-0.383213	-0.384513	0.032580	6.529054	-0.386956	-87016.3	-3.744118E-7	NaN
17	1.000000	0.759174	7.36521e+06	-39489.1	955.818	-29794.3	0.000000	0.000000	6.759051	-0.054853	NaN	0.000000	0.001538	0.001640	28.0934	0.079367	0.001975	40.1956	-156.881	-169.004	-0.092142	0.757867	-0.341182	-0.342489	-0.054853	40.1956	-0.340158	-18359.6	2.987684E-6	NaN
17	1.000000	0.801222	7.36521e+06	-39489.1	955.817	-29794.3	0.000000	0.000000	6.801101	-0.022759	NaN	0.000000	0.001535	0.001653	28.0806	0.095269	0.001911	49.862	136.954	11.8056	-0.020789	0.799806	-0.299134	-0.300550	-0.022759	49.862	-0.298791	-4514.79	5.040977E-6	NaN
17	1.000000	0.843221	7.36521e+06	-39489.1	955.818	-29794.3	0.000000	0.000000	6.843099	-0.041797	NaN	0.000000	0.001460	0.001656	28.1006	0.031060	0.001968	15.7797	96.5771	-165.91	0.026428	0.841923	-0.257134	-0.258432	-0.041797	15.7797	-0.255148	-987.168	4.234008E-5	NaN
17	1.000000	0.885229	7.36521e+06	-39489.1	955.817	-29794.3	0.000000	0.000000	6.885110	0.018988	NaN	0.000000	0.001526	0.001662	28.133	0.084354	0.002045	41.2502	-81.4379	13.9493	-0.008173	0.883817	-0.215127	-0.216539	0.018988	41.2502	-0.215472	-235.017	-8.079603E-5	NaN
17	1.000000	0.927235	7.36521e+06	-39489.1	955.818	-29794.3	0.000000	0.000000	6.927113	-0.023044	NaN	0.000000	0.001513	0.001668	28.0952	0.053226	0.001890	28.1564	-113.988	-166.716	-0.065095	0.925908	-0.173121	-0.174448	-0.023044	28.1564	-0.172507	-45.398	0.000508	NaN
17	1.000000	0.969243	7.36521e+06	-39489.1	955.818	-29794.3	0.000000	0.000000	6.969122	-0.021440	NaN	0.000000	0.001479	0.001656	28.0806	0.105335	0.001815	58.0458	-38.2671	11.3405	-0.030233	0.967943	-0.131112	-0.132413	-0.021440	58.0458	-0.130835	-7.910633	0.002710	NaN
17	1.000000	1.011283	7.36521e+06	-39489.1	955.817	-29794.3	0.000000	0.000000	7.011162	-0.005814	NaN	0.000000	0.001553	0.001630	28.1004	0.036520	0.001934	18.8811	125.316	-166.983	-0.008919	1.009925	-0.089073	-0.090430	-0.005814	18.8811	-0.088842	-1.015205	0.005727	NaN
17	1.000000	1.053295	7.36521e+06	-39489.1	955.817	-29794.3	0.000000	0.000000	7.053173	-0.030465	NaN	0.000000	0.001515	0.001601	28.1323	0.068456	0.002006	34.1174	-24.6833	12.5582	-0.063703	1.051926	-0.047061	-0.048430	-0.030465	34.1174	-0.046391	-0.070879	0.429811	NaN
17	1.000000	1.095318	7.36521e+06	-39489.1	955.818	-29794.3	0.000000	0.000000	7.095199	0.014933	NaN	0.000000	0.001512	0.001655	28.0951	0.101163	0.002037	49.6568	-28.4987	-166.17	-0.063341	1.094039	-0.005037	-0.006316	0.014933	49.6568	-0.005263	-0.003581	-4.169661	NaN
17	2.000000	1.116298	7.36521e+06	-39489.1	955.816	-29794.3	0.000000	0.000000	7.117033	20.8183	NaN	0.000000	0.001510	0.001634	28.0798	16.8953	0.001832	9222.66	5.138660	3.902782	19.8644	1.115984	0.015942	0.015628	20.8183	9222.66	0.014249	0.014297	1456.14	70470.8
17	2.000000	1.126720	7.36521e+06	-39489.1	955.817	-29794.3	0.000000	0.000000	7.128267	40.5835	NaN	0.000000	0.001499	0.001709	28.1019	26.2513	0.001794	14633.9	5.882093	-179.12	37.9079	1.126316	0.026364	0.025960	40.5835	14633.9	0.024284	0.029726	1365.25	77546.7
17	2.000000	1.137272	7.36521e+06	-39489.1	955.819	-29794.3	0.000000	0.000000	7.139699	62.0002	NaN	0.000000	0.001533	0.001751	28.1323	35.4726	0.001981	17902.1	9.390993	-4.555937	64.2854	1.136880	0.036916	0.036524	62.0002	17902.1	0.034318	0.050171	1235.78	73021.4
17	2.000000	1.147717	7.36521e+06	-39489.1	955.818	-29794.3	0.000000	0.000000	7.151704	99.932	NaN	0.000000	0.001503	0.001730	28.0977	42.8209	0.001707	25088.6	3.667804	177.112	98.2643	1.147322	0.047362	0.046966	99.932	25088.6	0.044374	0.075821	1317.99	83244.3
17	2.000000	1.158154	7.36521e+06	-39489.1	955.818	-29794.3	0.000000	0.000000	7.163898	142.702	NaN	0.000000	0.001494	0.001680	28.0812	52.61	0.001835	28674	8.309826	-8.272244	138.425	1.157892	0.057798	0.057536	142.702	28674	0.054066	0.105394	1353.99	80696.4
17	2.000000	1.168783	7.36521e+06	-39489.1	955.819	-29794.3	0.000000	0.000000	7.176466	189.899	NaN	0.000000	0.001558	0.001704	28.0989	63.2567	0.001863	33959.1	7.121609	172.914	192.574	1.168304	0.068427	0.067948	189.899	33959.1	0.064233	0.141424	1342.76	82502.6
17	2.000000	1.179241	7.36521e+06	-39489.1	955.818	-29794.3	0.000000	0.000000	7.189161	244.323	NaN	0.000000	0.001586	0.001784	28.1312	73.5669	0.001777	41406.1	4.896382	-7.902270	245.917	1.178963	0.078885	0.078607	244.323	41406.1	0.074460	0.182702	1337.28	88504.7
17	2.000000	1.189622	7.36521e+06	-39489.1	955.819	-29794.3	0.000000	0.000000	7.202455	315.221	NaN	0.000000	0.001501	0.001701	28.0983	81.6793	0.001813	45062.1	2.171568	174.618	312.33	1.189361	0.089266	0.089005	315.221	45062.1	0.084020	0.225748	1396.34	86650.8
17	2.000000	1.200148	7.36521e+06	-39489.1	955.817	-29794.3	0.000000	0.000000	7.216011	388.94	NaN	0.000000	0.001515	0.001710	28.0795	92.139	0.001785	51610.3	4.504458	-9.015888	385.334	1.199789	0.099792	0.099433	388.94	51610.3	0.094140	0.275926	1409.58	89766.3
17	2.000000	1.207558	7.36521e+06	-39489.1	955.82	-29794.3	0.000000	0.000000	7.225821	447.361	NaN	0.000000	0.001541	0.001709	28.0993	97.5006	0.001693	57583.8	4.627571	170.174	442.164	1.207396	0.107202	0.107040	447.361	57583.8	0.101375	0.314666	1421.7	93788.2