Folder: unikorn_login/remote_trans/data/nanoindenter/0828-1/data/Data_2025-08-06,11h17m57s (part 58)

File: 2025-07-22_16-23-58_1_133.txt
2025-07-22, 16:23:58, 1
Index	Phase	Displacement	Time	Pos X	Pos Y	Pos Z	Rot A	Rot B	Piezo Z	Force A	Force B	Gripper	Voltage A	Voltage B	Temperature	Amplitude force	Amplitude pos	Stiffness	Phase shift	Phase excitation	Force A raw	Displacement raw	HMax	HMax raw	Real Force	Real Stiffness	Contact Depth	Area	Hardness	Reduced Mod.
[#]	[#]	[um]	[s]	[um]	[um]	[um]	[m°]	[m°]	[um]	[uN]	[uN]	[V]	[V]	[V]	[°C]	[uN]	[um]	[N/m]	[°]	[°]	[uN]	[um]	[um]	[um]	[uN]	[N/m]	[um]	[um^2]	[MPa]	[MPa]
133	1.000000	0.002649	7.36634e+06	-45289.1	955.819	-29773.4	0.000000	0.000000	6.002795	-0.046362	NaN	0.000000	0.001492	0.001688	28.1188	0.057746	0.000837	68.9821	139.321	-156.414	-0.033378	0.001384	-1.093957	-1.095223	-0.046362	68.9821	-1.093453	-4.094306E+14	1.132348E-16	NaN
133	1.000000	0.044610	7.36634e+06	-45289.1	955.818	-29773.4	0.000000	0.000000	6.044758	0.001507	NaN	0.000000	0.001565	0.001692	28.0811	0.056245	0.001893	29.7187	52.1929	14.5988	0.022288	0.043249	-1.051997	-1.053358	0.001507	29.7187	-1.052035	-1.137018E+14	-1.325648E-17	NaN
133	1.000000	0.086643	7.36634e+06	-45289.1	955.818	-29773.4	0.000000	0.000000	6.086791	0.005451	NaN	0.000000	0.001518	0.001683	28.0813	0.053909	0.001944	27.7302	-12.6897	-163.891	0.032061	0.085275	-1.009963	-1.011332	0.005451	27.7302	-1.010111	-3.103666E+13	-1.756372E-16	NaN
133	1.000000	0.128641	7.36634e+06	-45289.1	955.818	-29773.4	0.000000	0.000000	6.128787	-0.023009	NaN	0.000000	0.001562	0.001648	28.1162	0.037451	0.001870	20.0235	-27.3245	16.2289	-0.007341	0.127275	-0.967966	-0.969332	-0.023009	20.0235	-0.967104	-8.177830E+12	2.813596E-15	NaN
133	1.000000	0.170659	7.36634e+06	-45289.1	955.818	-29773.4	0.000000	0.000000	6.170805	-0.030732	NaN	0.000000	0.001538	0.001615	28.1187	0.102526	0.002141	47.8804	-152.744	-164.267	0.011775	0.169367	-0.925948	-0.927240	-0.030732	47.8804	-0.925467	-2.243936E+12	1.369575E-14	NaN
133	1.000000	0.212670	7.36634e+06	-45289.1	955.818	-29773.5	0.000000	0.000000	6.212816	-0.030080	NaN	0.000000	0.001522	0.001640	28.0813	0.036554	0.001973	18.5227	42.245	12.9965	-0.043973	0.211332	-0.883937	-0.885275	-0.030080	18.5227	-0.882719	-5.935728E+11	5.067665E-14	NaN
133	1.000000	0.254724	7.36634e+06	-45289.1	955.819	-29773.5	0.000000	0.000000	6.254870	-0.037827	NaN	0.000000	0.001527	0.001703	28.0812	0.061244	0.002106	29.0833	8.945897	-165.667	-0.005501	0.253385	-0.841883	-0.843221	-0.037827	29.0833	-0.840907	-1.612822E+11	2.345385E-13	NaN
133	1.000000	0.296701	7.36634e+06	-45289.1	955.818	-29773.5	0.000000	0.000000	6.296844	-0.102637	NaN	0.000000	0.001549	0.001734	28.1167	0.157410	0.001936	81.3197	-97.6241	15.4814	-0.042533	0.295340	-0.799906	-0.801267	-0.102637	81.3197	-0.798959	-4.352467E+10	2.358127E-12	NaN
133	1.000000	0.338753	7.36634e+06	-45289.1	955.819	-29773.5	0.000000	0.000000	6.338900	-0.021048	NaN	0.000000	0.001534	0.001726	28.1208	0.064057	0.001991	32.1796	-50.6554	-163.275	-0.041885	0.337460	-0.757854	-0.759147	-0.021048	32.1796	-0.757363	-1.184202E+10	1.777363E-12	NaN
133	1.000000	0.380741	7.36634e+06	-45289.1	955.819	-29773.5	0.000000	0.000000	6.380886	-0.047331	NaN	0.000000	0.001548	0.001745	28.0812	0.096630	0.002030	47.605	-19.9787	15.9567	-0.031807	0.379381	-0.715866	-0.717226	-0.047331	47.605	-0.715121	-3.147150E+9	1.503917E-11	NaN
133	1.000000	0.422752	7.36634e+06	-45289.1	955.818	-29773.5	0.000000	0.000000	6.422899	-0.020666	NaN	0.000000	0.001564	0.001720	28.0805	0.070167	0.002029	34.577	-124.756	-164.616	-0.042279	0.421409	-0.673854	-0.675198	-0.020666	34.577	-0.673406	-8.472356E+8	2.439198E-11	NaN
133	1.000000	0.464780	7.36634e+06	-45289.1	955.819	-29773.5	0.000000	0.000000	6.464927	-0.008732	NaN	0.000000	0.001496	0.001748	28.1146	0.079342	0.002112	37.563	-115.481	13.3819	-0.007683	0.463425	-0.631827	-0.633182	-0.008732	37.563	-0.631653	-2.268408E+8	3.849287E-11	NaN
133	1.000000	0.506795	7.36634e+06	-45289.1	955.819	-29773.5	0.000000	0.000000	6.506940	-0.059781	NaN	0.000000	0.001519	0.001768	28.12	0.020938	0.001839	11.3846	-148.809	-162.167	0.029819	0.505516	-0.589812	-0.591091	-0.059781	11.3846	-0.585873	-5.318141E+7	1.124103E-9	NaN
133	1.000000	0.548814	7.36634e+06	-45289.1	955.818	-29773.5	0.000000	0.000000	6.548962	0.025684	NaN	0.000000	0.001517	0.001729	28.0831	0.047263	0.002052	23.0361	101.224	16.0701	-0.004018	0.547494	-0.547793	-0.549113	0.025684	23.0361	-0.548629	-1.625432E+7	-1.580141E-9	NaN
133	1.000000	0.590837	7.36634e+06	-45289.1	955.819	-29773.5	0.000000	0.000000	6.590984	-0.007523	NaN	0.000000	0.001546	0.001748	28.0809	0.047745	0.002075	23.0073	165.836	-163.209	-0.024180	0.589540	-0.505770	-0.507067	-0.007523	23.0073	-0.505525	-4.09322e+06	1.837799E-9	NaN
133	1.000000	0.632843	7.36634e+06	-45289.1	955.818	-29773.5	0.000000	0.000000	6.632990	-0.006365	NaN	0.000000	0.001570	0.001727	28.115	0.037125	0.002105	17.6355	-16.2577	13.4917	-0.009104	0.631444	-0.463764	-0.465163	-0.006365	17.6355	-0.463494	-1.05705e+06	6.021321E-9	NaN
133	1.000000	0.674858	7.36634e+06	-45289.1	955.817	-29773.5	0.000000	0.000000	6.675007	0.034666	NaN	0.000000	0.001567	0.001736	28.119	0.086527	0.001995	43.3776	-111.93	-164.839	0.042773	0.673555	-0.421748	-0.423052	0.034666	43.3776	-0.422348	-277781	-1.247974E-7	NaN
133	1.000000	0.716886	7.36634e+06	-45289.1	955.819	-29773.5	0.000000	0.000000	6.717034	0.008293	NaN	0.000000	0.001562	0.001766	28.082	0.113552	0.001864	60.9051	-73.8056	14.9079	-0.097633	0.715505	-0.379721	-0.381102	0.008293	60.9051	-0.379823	-68762.6	-1.205969E-7	NaN
133	1.000000	0.758908	7.36634e+06	-45289.1	955.818	-29773.5	0.000000	0.000000	6.759054	-0.031324	NaN	0.000000	0.001541	0.001750	28.0785	0.099347	0.002062	48.1871	163.264	-164.267	-0.035433	0.757621	-0.337699	-0.338986	-0.031324	48.1871	-0.337211	-16629.3	1.883672E-6	NaN
133	1.000000	0.800912	7.36634e+06	-45289.1	955.817	-29773.5	0.000000	0.000000	6.801058	-0.044449	NaN	0.000000	0.001617	0.001744	28.1148	0.064542	0.002235	28.883	-98.7391	18.8193	0.031057	0.799583	-0.295695	-0.297024	-0.044449	28.883	-0.294541	-3901.47	1.139275E-5	NaN
133	1.000000	0.842949	7.36634e+06	-45289.1	955.818	-29773.5	0.000000	0.000000	6.843098	0.017474	NaN	0.000000	0.001615	0.001726	28.1214	0.072188	0.001991	36.2578	-130.577	-161.904	0.050253	0.841617	-0.253657	-0.254990	0.017474	36.2578	-0.254019	-948.431	-1.842363E-5	NaN
133	1.000000	0.884968	7.36634e+06	-45289.1	955.818	-29773.5	0.000000	0.000000	6.885113	-0.044134	NaN	0.000000	0.001647	0.001733	28.0831	0.080114	0.002111	37.9491	-160.28	17.8689	-0.105643	0.883612	-0.211639	-0.212995	-0.044134	37.9491	-0.210767	-197.349	0.000224	NaN
133	1.000000	0.926964	7.36634e+06	-45289.1	955.817	-29773.5	0.000000	0.000000	6.927111	-0.010472	NaN	0.000000	0.001638	0.001762	28.0782	0.015358	0.001852	8.292794	-20.3663	-167.099	-0.057515	0.925672	-0.169643	-0.170935	-0.010472	8.292794	-0.168696	-38.9883	0.000269	NaN
133	1.000000	0.968981	7.36634e+06	-45289.1	955.818	-29773.5	0.000000	0.000000	6.969128	-0.018158	NaN	0.000000	0.001559	0.001735	28.1127	0.045574	0.002042	22.3195	26.0795	15.764	-0.022018	0.967707	-0.127626	-0.128899	-0.018158	22.3195	-0.127016	-6.663893	0.002725	NaN
133	1.000000	1.011022	7.36634e+06	-45289.1	955.819	-29773.5	0.000000	0.000000	7.011167	-0.058110	NaN	0.000000	0.001587	0.001779	28.1209	0.035804	0.002105	17.0096	-69.7718	-165.543	-0.110688	1.009665	-0.085585	-0.086942	-0.058110	17.0096	-0.083023	-0.735403	0.079018	NaN
133	1.000000	1.053052	7.36634e+06	-45289.1	955.819	-29773.5	0.000000	0.000000	7.053197	-0.056972	NaN	0.000000	0.001575	0.001731	28.0844	0.041021	0.001926	21.3032	44.5558	13.6883	-0.072844	1.051633	-0.043555	-0.044974	-0.056972	21.3032	-0.041549	-0.050409	1.130197	NaN
133	1.000000	1.095075	7.36634e+06	-45289.1	955.82	-29773.5	0.000000	0.000000	7.095222	-0.000712	NaN	0.000000	0.001527	0.001735	28.0788	0.015821	0.001962	8.064310	-53.9967	-163.632	0.149538	1.093760	-0.001532	-0.002847	-0.000712	8.064310	-0.001466	-0.001065	0.668167	NaN
133	2.000000	1.115095	7.36634e+06	-45289.1	955.82	-29773.5	0.000000	0.000000	7.115913	16.3164	NaN	0.000000	0.001619	0.001746	28.1134	15.455	0.001941	7960.76	9.932097	4.806186	15.729	1.114778	0.018488	0.018171	16.3164	7960.76	0.016950	0.017975	907.731	54249.3
133	2.000000	1.125520	7.36634e+06	-45289.1	955.82	-29773.5	0.000000	0.000000	7.127338	40.6284	NaN	0.000000	0.001584	0.001747	28.1214	26.6951	0.001872	14261.2	6.989738	-178.319	39.7498	1.125256	0.028913	0.028649	40.6284	14261.2	0.026777	0.034327	1183.57	70325.2
133	2.000000	1.135997	7.36634e+06	-45289.1	955.82	-29773.5	0.000000	0.000000	7.139097	71.811	NaN	0.000000	0.001565	0.001736	28.0829	36.5136	0.001784	20469.1	4.496812	0.000983	69.8034	1.135681	0.039390	0.039074	71.811	20469.1	0.036759	0.055921	1284.14	79083.1
133	2.000000	1.146477	7.36635e+06	-45289.1	955.821	-29773.5	0.000000	0.000000	7.151079	108.377	NaN	0.000000	0.001623	0.001717	28.0782	47.7455	0.001869	25551.1	6.117700	177.49	106.298	1.146146	0.049870	0.049539	108.377	25551.1	0.046689	0.082454	1314.39	81297.3
133	2.000000	1.156968	7.36635e+06	-45289.1	955.821	-29773.5	0.000000	0.000000	7.163275	149.846	NaN	0.000000	0.001558	0.001735	28.1113	56.6595	0.001753	32327	5.641324	-5.019345	146.524	1.156705	0.060361	0.060098	149.846	32327	0.056885	0.114875	1304.43	87141.5
133	2.000000	1.167510	7.36635e+06	-45289.1	955.821	-29773.5	0.000000	0.000000	7.175980	202.476	NaN	0.000000	0.001563	0.001718	28.1234	66.4366	0.001665	39890.4	4.497426	175.645	201.121	1.167062	0.070903	0.070455	202.476	39890.4	0.067096	0.152476	1327.92	93334.2
133	2.000000	1.177963	7.36635e+06	-45289.1	955.821	-29773.5	0.000000	0.000000	7.188593	255.013	NaN	0.000000	0.001542	0.001767	28.0831	77.8186	0.001819	42787.5	6.953610	-8.822398	252.844	1.177682	0.081356	0.081075	255.013	42787.5	0.076886	0.193224	1319.78	88932.5
133	2.000000	1.188478	7.36635e+06	-45289.1	955.821	-29773.5	0.000000	0.000000	7.202043	326.41	NaN	0.000000	0.001519	0.001787	28.0803	87.2139	0.001802	48391.5	4.158566	173.785	328.043	1.188085	0.091871	0.091478	326.41	48391.5	0.086812	0.239123	1365.03	90413.2
133	2.000000	1.199014	7.36635e+06	-45289.1	955.821	-29773.5	0.000000	0.000000	7.215738	403.261	NaN	0.000000	0.001519	0.001761	28.1087	97.3182	0.001714	56780.2	7.179889	-10.2924	405.212	1.198576	0.102407	0.101969	403.261	56780.2	0.097080	0.291381	1383.96	96103.4
133	2.000000	1.206341	7.36635e+06	-45289.1	955.82	-29773.5	0.000000	0.000000	7.225169	454.445	NaN	0.000000	0.001505	0.001740	28.0777	103.17	0.001716	60131.9	6.205698	170.081	449.622	1.206134	0.109734	0.109527	454.445	60131.9	0.104066	0.329682	1378.43	95682.1

File: 2025-07-22_16-23-58_1_134.txt
2025-07-22, 16:23:58, 1
Index	Phase	Displacement	Time	Pos X	Pos Y	Pos Z	Rot A	Rot B	Piezo Z	Force A	Force B	Gripper	Voltage A	Voltage B	Temperature	Amplitude force	Amplitude pos	Stiffness	Phase shift	Phase excitation	Force A raw	Displacement raw	HMax	HMax raw	Real Force	Real Stiffness	Contact Depth	Area	Hardness	Reduced Mod.
[#]	[#]	[um]	[s]	[um]	[um]	[um]	[m°]	[m°]	[um]	[uN]	[uN]	[V]	[V]	[V]	[°C]	[uN]	[um]	[N/m]	[°]	[°]	[uN]	[um]	[um]	[um]	[uN]	[N/m]	[um]	[um^2]	[MPa]	[MPa]
134	1.000000	0.002695	7.36635e+06	-45339.1	955.819	-29773.2	0.000000	0.000000	6.002797	-0.018079	NaN	0.000000	0.001561	0.001712	28.0832	0.048917	0.000945	51.7881	125.805	-168.965	-0.042277	0.001426	-1.096738	-1.098008	-0.018079	51.7881	-1.096477	-4.495395E+14	4.021573E-17	NaN
134	1.000000	0.044654	7.36635e+06	-45339.1	955.818	-29773.2	0.000000	0.000000	6.044758	0.028528	NaN	0.000000	0.001533	0.001774	28.1111	0.123982	0.001999	62.0068	134.988	16.775	-0.006458	0.043315	-1.054780	-1.056118	0.028528	62.0068	-1.055125	-1.251124E+14	-2.280209E-16	NaN
134	1.000000	0.086646	7.36635e+06	-45339.1	955.818	-29773.2	0.000000	0.000000	6.086748	-0.035303	NaN	0.000000	0.001550	0.001724	28.1288	0.036214	0.001987	18.2225	-139.74	-164.881	-0.017113	0.085355	-1.012787	-1.014079	-0.035303	18.2225	-1.011334	-3.223600E+13	1.095137E-15	NaN
134	1.000000	0.128724	7.36635e+06	-45339.1	955.819	-29773.2	0.000000	0.000000	6.128826	-0.025630	NaN	0.000000	0.001568	0.001730	28.0876	0.066546	0.001947	34.1843	130.573	14.1426	-0.072352	0.127311	-0.970710	-0.972123	-0.025630	34.1843	-0.970148	-8.987770E+12	2.851640E-15	NaN
134	1.000000	0.170707	7.36635e+06	-45339.1	955.818	-29773.2	0.000000	0.000000	6.170808	-0.055916	NaN	0.000000	0.001541	0.001720	28.0829	0.156086	0.001942	80.3695	10.3895	-162.645	-0.062516	0.169375	-0.928727	-0.930059	-0.055916	80.3695	-0.928205	-2.443254E+12	2.288592E-14	NaN
134	1.000000	0.212712	7.36635e+06	-45339.1	955.818	-29773.2	0.000000	0.000000	6.212815	0.006731	NaN	0.000000	0.001546	0.001775	28.1112	0.092732	0.001937	47.8717	110.375	14.3706	-0.034435	0.211358	-0.886722	-0.888076	0.006731	47.8717	-0.886827	-6.745690E+11	-9.977846E-15	NaN
134	1.000000	0.254753	7.36635e+06	-45339.1	955.818	-29773.2	0.000000	0.000000	6.254857	0.021020	NaN	0.000000	0.001541	0.001792	28.1301	0.083495	0.002012	41.5019	-140.813	-166.643	0.042431	0.253432	-0.844681	-0.846001	0.021020	41.5019	-0.845061	-1.835878E+11	-1.144953E-13	NaN
134	1.000000	0.296718	7.36635e+06	-45339.1	955.818	-29773.2	0.000000	0.000000	6.296820	-0.001203	NaN	0.000000	0.001651	0.001760	28.0901	0.063500	0.002041	31.1049	39.3407	15.6329	-0.015113	0.295381	-0.802716	-0.804053	-0.001203	31.1049	-0.802687	-4.890299E+10	2.460065E-14	NaN
134	1.000000	0.338771	7.36635e+06	-45339.1	955.818	-29773.2	0.000000	0.000000	6.338871	-0.054380	NaN	0.000000	0.001653	0.001687	28.0804	0.096534	0.002006	48.1226	103.637	-167.047	-0.012468	0.337415	-0.760663	-0.762019	-0.054380	48.1226	-0.759815	-1.278761E+10	4.252544E-12	NaN
134	1.000000	0.380817	7.36635e+06	-45339.1	955.819	-29773.2	0.000000	0.000000	6.380919	-0.018005	NaN	0.000000	0.001586	0.001767	28.1089	0.077465	0.001926	40.2259	140.474	16.5001	0.030752	0.379456	-0.718617	-0.719978	-0.018005	40.2259	-0.718281	-3.475637E+9	5.180243E-12	NaN
134	1.000000	0.422797	7.36635e+06	-45339.1	955.819	-29773.2	0.000000	0.000000	6.422898	-0.036792	NaN	0.000000	0.001538	0.001754	28.1286	0.092131	0.002147	42.9134	-93.5043	-166.788	-0.099525	0.421494	-0.676637	-0.677940	-0.036792	42.9134	-0.675994	-9.192035E+8	4.002551E-11	NaN
134	1.000000	0.464818	7.36635e+06	-45339.1	955.818	-29773.2	0.000000	0.000000	6.464917	-0.093453	NaN	0.000000	0.001581	0.001755	28.0907	0.062528	0.002010	31.1084	-34.819	15.969	-0.040972	0.463483	-0.634615	-0.635951	-0.093453	31.1084	-0.632362	-2.319848E+8	4.028417E-10	NaN
134	1.000000	0.506839	7.36635e+06	-45339.1	955.818	-29773.2	0.000000	0.000000	6.506943	0.034530	NaN	0.000000	0.001564	0.001732	28.0827	0.049691	0.002005	24.7821	-163.65	-165.695	-0.009741	0.505553	-0.592595	-0.593880	0.034530	24.7821	-0.593640	-6.805190E+7	-5.074044E-10	NaN
134	1.000000	0.548855	7.36635e+06	-45339.1	955.819	-29773.2	0.000000	0.000000	6.548955	-0.060796	NaN	0.000000	0.001539	0.001734	28.1093	0.094537	0.001909	49.526	136.57	15.4524	-0.027420	0.547471	-0.550579	-0.551962	-0.060796	49.526	-0.549658	-1.679668E+7	3.619498E-9	NaN
134	1.000000	0.590896	7.36635e+06	-45339.1	955.817	-29773.2	0.000000	0.000000	6.590997	-0.033903	NaN	0.000000	0.001569	0.001748	28.1299	0.126826	0.002015	62.9566	90.5173	-167.952	-0.049303	0.589513	-0.508538	-0.509920	-0.033903	62.9566	-0.508134	-4.45066e+06	7.617623E-9	NaN
134	1.000000	0.632929	7.36635e+06	-45339.1	955.818	-29773.2	0.000000	0.000000	6.633030	-0.049220	NaN	0.000000	0.001644	0.001763	28.0908	0.023177	0.001912	12.1218	-39.35	18.8892	-0.037408	0.631541	-0.466505	-0.467893	-0.049220	12.1218	-0.463459	-1.05588e+06	4.661518E-8	NaN
134	1.000000	0.674928	7.36635e+06	-45339.1	955.818	-29773.2	0.000000	0.000000	6.675031	0.000665	NaN	0.000000	0.001628	0.001751	28.0813	0.083404	0.001952	42.7261	-72.9183	-166.334	0.005398	0.673587	-0.424506	-0.425846	0.000665	42.7261	-0.424518	-298159	-2.229237E-9	NaN
134	1.000000	0.716921	7.36635e+06	-45339.1	955.818	-29773.2	0.000000	0.000000	6.717024	-0.005498	NaN	0.000000	0.001664	0.001765	28.1072	0.057232	0.002033	28.1521	148.152	15.2948	-0.026613	0.715584	-0.382512	-0.383850	-0.005498	28.1521	-0.382366	-74787.5	7.350903E-8	NaN
134	1.000000	0.758948	7.36635e+06	-45339.1	955.818	-29773.2	0.000000	0.000000	6.759048	-0.050034	NaN	0.000000	0.001592	0.001776	28.13	0.058301	0.002090	27.8934	-47.6982	-165.885	-0.024961	0.757651	-0.340486	-0.341783	-0.050034	27.8934	-0.339141	-17743	2.819954E-6	NaN
134	1.000000	0.800982	7.36635e+06	-45339.1	955.818	-29773.2	0.000000	0.000000	6.801085	0.014635	NaN	0.000000	0.001588	0.001782	28.0923	0.065616	0.002018	32.5106	-160.304	11.7835	0.003513	0.799578	-0.298452	-0.299855	0.014635	32.5106	-0.298789	-4514.49	-3.241727E-6	NaN
134	1.000000	0.842990	7.36635e+06	-45339.1	955.818	-29773.2	0.000000	0.000000	6.843088	-0.121315	NaN	0.000000	0.001609	0.001767	28.0811	0.067122	0.001840	36.4731	117.748	-165.587	-0.098318	0.841691	-0.256443	-0.257743	-0.121315	36.4731	-0.253949	-946.073	0.000128	NaN
134	1.000000	0.885022	7.36635e+06	-45339.1	955.818	-29773.2	0.000000	0.000000	6.885122	-0.060524	NaN	0.000000	0.001579	0.001781	28.1062	0.063653	0.001962	32.4389	165.977	18.5784	-0.121560	0.883647	-0.214412	-0.215787	-0.060524	32.4389	-0.213012	-214.536	0.000282	NaN
134	1.000000	0.927009	7.36635e+06	-45339.1	955.818	-29773.2	0.000000	0.000000	6.927114	0.056969	NaN	0.000000	0.001548	0.001768	28.1294	0.050797	0.001993	25.4896	-94.751	-166.133	0.033134	0.925751	-0.172425	-0.173683	0.056969	25.4896	-0.174101	-48.3633	-0.001178	NaN
134	1.000000	0.969047	7.36635e+06	-45339.1	955.818	-29773.2	0.000000	0.000000	6.969150	-0.003271	NaN	0.000000	0.001544	0.001807	28.0922	0.069036	0.001921	35.9455	138.992	15.6394	-0.023378	0.967666	-0.130387	-0.131768	-0.003271	35.9455	-0.130318	-7.730200	0.000423	NaN
134	1.000000	1.011072	7.36635e+06	-45339.1	955.818	-29773.2	0.000000	0.000000	7.011176	0.036025	NaN	0.000000	0.001542	0.001778	28.08	0.017012	0.001993	8.535805	25.2132	-164.66	0.024989	1.009777	-0.088362	-0.089657	0.036025	8.535805	-0.091527	-1.173520	-0.030698	NaN
134	1.000000	1.053071	7.36635e+06	-45339.1	955.82	-29773.2	0.000000	0.000000	7.053173	-0.004741	NaN	0.000000	0.001640	0.001737	28.106	0.163360	0.002083	78.4415	-141.183	17.7753	-0.010779	1.051764	-0.046363	-0.047669	-0.004741	78.4415	-0.046318	-0.070512	0.067241	NaN
134	1.000000	1.095082	7.36635e+06	-45339.1	955.82	-29773.2	0.000000	0.000000	7.095224	0.942374	NaN	0.000000	0.001647	0.001757	28.1308	0.700937	0.002000	350.489	10.226	-164.973	0.977284	1.093817	-0.004351	-0.005617	0.942374	350.489	-0.006368	-0.004260	-221.206	NaN
134	2.000000	1.123072	7.36635e+06	-45339.1	955.819	-29773.2	0.000000	0.000000	7.123996	19.966	NaN	0.000000	0.001645	0.001760	28.0918	13.3487	0.001703	7839.74	5.260007	8.385408	18.0155	1.122670	0.023639	0.023237	19.966	7839.74	0.021729	0.025332	788.184	45003.2
134	2.000000	1.133499	7.36635e+06	-45339.1	955.819	-29773.2	0.000000	0.000000	7.136731	76.126	NaN	0.000000	0.001594	0.001754	28.0798	24.5996	0.001748	14073.8	2.014165	-174.522	73.5035	1.133197	0.034065	0.033763	76.126	14073.8	0.030009	0.040762	1867.59	63688
134	2.000000	1.144004	7.36635e+06	-45339.1	955.818	-29773.2	0.000000	0.000000	7.151124	170.699	NaN	0.000000	0.001619	0.001758	28.1029	35.77	0.001658	21571	1.182586	2.272785	167.789	1.143635	0.044570	0.044201	170.699	21571	0.038635	0.060549	2819.18	80092
134	2.000000	1.154436	7.36635e+06	-45339.1	955.819	-29773.2	0.000000	0.000000	7.166289	285.854	NaN	0.000000	0.001624	0.001750	28.1306	46.0622	0.001637	28145.8	1.973200	179.152	281.318	1.154157	0.055002	0.054724	285.854	28145.8	0.047385	0.084502	3382.79	88461.1
134	2.000000	1.164916	7.36636e+06	-45339.1	955.819	-29773.2	0.000000	0.000000	7.183014	437.771	NaN	0.000000	0.001615	0.001734	28.0935	57.0318	0.001753	32526	2.803685	-2.792749	430.844	1.164522	0.065482	0.065088	437.771	32526	0.055388	0.109791	3987.33	89685.2
134	2.000000	1.175307	7.36636e+06	-45339.1	955.818	-29773.2	0.000000	0.000000	7.200446	609.05	NaN	0.000000	0.001607	0.001743	28.0823	65.4367	0.001687	38787.8	0.342700	178.447	599.568	1.175036	0.075873	0.075602	609.05	38787.8	0.064096	0.140906	4322.4	94406.9
134	2.000000	1.185971	7.36636e+06	-45339.1	955.818	-29773.2	0.000000	0.000000	7.218761	795.158	NaN	0.000000	0.001587	0.001760	28.1036	75.6569	0.001891	40011.8	6.080019	-6.297893	792.108	1.185537	0.086538	0.086104	795.158	40011.8	0.071633	0.170793	4655.68	88455.8
134	2.000000	1.196325	7.36636e+06	-45339.1	955.82	-29773.2	0.000000	0.000000	7.233872	910.888	NaN	0.000000	0.001619	0.001722	28.1307	82.7524	0.001861	44465.4	3.335670	174.871	903.488	1.195943	0.096891	0.096509	910.888	44465.4	0.081527	0.214115	4254.2	87795.4
134	2.000000	1.206748	7.36636e+06	-45339.1	955.819	-29773.2	0.000000	0.000000	7.246912	974.544	NaN	0.000000	0.001611	0.001762	28.0925	89.8968	0.001820	49380.7	3.692167	-6.649273	961.657	1.206376	0.107314	0.106942	974.544	49380.7	0.092513	0.267540	3642.61	87224
134	2.000000	1.216868	7.36636e+06	-45339.1	955.82	-29773.2	0.000000	0.000000	7.264195	1148.81	NaN	0.000000	0.001594	0.001724	28.0932	97.8138	0.001920	50940.3	4.680758	-7.665764	1141.97	1.216509	0.117434	0.117075	1148.81	50940.3	0.100520	0.309962	3706.29	83595