Folder: unikorn_login/remote_trans/data/nanoindenter/0828-1/data/Data_2025-08-06,11h17m57s (part 52)

File: 2025-07-22_16-23-58_1_121.txt
2025-07-22, 16:23:58, 1
Index	Phase	Displacement	Time	Pos X	Pos Y	Pos Z	Rot A	Rot B	Piezo Z	Force A	Force B	Gripper	Voltage A	Voltage B	Temperature	Amplitude force	Amplitude pos	Stiffness	Phase shift	Phase excitation	Force A raw	Displacement raw	HMax	HMax raw	Real Force	Real Stiffness	Contact Depth	Area	Hardness	Reduced Mod.
[#]	[#]	[um]	[s]	[um]	[um]	[um]	[m°]	[m°]	[um]	[uN]	[uN]	[V]	[V]	[V]	[°C]	[uN]	[um]	[N/m]	[°]	[°]	[uN]	[um]	[um]	[um]	[uN]	[N/m]	[um]	[um^2]	[MPa]	[MPa]
121	1.000000	0.002555	7.36622e+06	-44689.1	955.818	-29775.5	0.000000	0.000000	6.002827	0.035350	NaN	0.000000	0.001636	0.001702	28.1136	0.097068	0.000997	97.3195	153.564	-162.929	0.017502	0.001325	-1.042312	-1.043543	0.035350	97.3195	-1.042584	-8.486286E+13	-4.165593E-16	NaN
121	1.000000	0.042501	7.36622e+06	-44689.1	955.817	-29775.5	0.000000	0.000000	6.042773	0.042746	NaN	0.000000	0.001636	0.001694	28.1129	0.054443	0.001917	28.4026	177.788	-169.181	0.097121	0.041186	-1.002366	-1.003682	0.042746	28.4026	-1.003495	-2.528262E+13	-1.690738E-15	NaN
121	1.000000	0.082478	7.36622e+06	-44689.1	955.817	-29775.5	0.000000	0.000000	6.082750	0.048814	NaN	0.000000	0.001621	0.001674	28.112	0.086801	0.001895	45.7999	-53.2717	-168.929	0.009985	0.081225	-0.962390	-0.963643	0.048814	45.7999	-0.963189	-7.242055E+12	-6.740394E-15	NaN
121	1.000000	0.122497	7.36622e+06	-44689.1	955.818	-29775.5	0.000000	0.000000	6.122768	0.019059	NaN	0.000000	0.001664	0.001667	28.1129	0.061060	0.002191	27.8747	155.106	-163.287	0.051108	0.121236	-0.922370	-0.923632	0.019059	27.8747	-0.922883	-2.070759E+12	-9.204046E-15	NaN
121	1.000000	0.162527	7.36622e+06	-44689.1	955.819	-29775.5	0.000000	0.000000	6.162796	-0.014340	NaN	0.000000	0.001649	0.001660	28.1113	0.019213	0.002067	9.296437	66.1385	-167.896	-0.026500	0.161247	-0.882341	-0.883620	-0.014340	9.296437	-0.881184	-5.658675E+11	2.534150E-14	NaN
121	1.000000	0.202553	7.36622e+06	-44689.1	955.818	-29775.5	0.000000	0.000000	6.202824	0.018200	NaN	0.000000	0.001669	0.001706	28.1133	0.038334	0.002063	18.5833	105.66	-166.555	-0.016765	0.201252	-0.842314	-0.843615	0.018200	18.5833	-0.843048	-1.724208E+11	-1.055567E-13	NaN
121	1.000000	0.242554	7.36622e+06	-44689.1	955.818	-29775.5	0.000000	0.000000	6.242828	0.077878	NaN	0.000000	0.001646	0.001726	28.1118	0.038788	0.001956	19.8265	89.7973	-165.1	0.004785	0.241251	-0.802313	-0.803617	0.077878	19.8265	-0.805259	-5.299565E+10	-1.469520E-12	NaN
121	1.000000	0.282572	7.36622e+06	-44689.1	955.818	-29775.5	0.000000	0.000000	6.282847	0.115401	NaN	0.000000	0.001623	0.001697	28.1127	0.018681	0.002010	9.294014	-95.3332	-165.738	0.044761	0.281282	-0.762296	-0.763586	0.115401	9.294014	-0.771608	-1.849996E+10	-6.237904E-12	NaN
121	1.000000	0.322592	7.36622e+06	-44689.1	955.818	-29775.5	0.000000	0.000000	6.322863	0.006870	NaN	0.000000	0.001600	0.001750	28.1099	0.040058	0.001955	20.4906	-118.644	-169.198	-0.035393	0.321325	-0.722275	-0.723542	0.006870	20.4906	-0.722526	-3.971232E+9	-1.730014E-12	NaN
121	1.000000	0.362618	7.36622e+06	-44689.1	955.819	-29775.5	0.000000	0.000000	6.362888	-0.011705	NaN	0.000000	0.001605	0.001692	28.1106	0.024249	0.001986	12.2074	-111.856	-163.649	0.039574	0.361229	-0.682249	-0.683638	-0.011705	12.2074	-0.681530	-1.094287E+9	1.069664E-11	NaN
121	1.000000	0.402628	7.36622e+06	-44689.1	955.818	-29775.5	0.000000	0.000000	6.402898	-0.002826	NaN	0.000000	0.001558	0.001702	28.1099	0.108132	0.001984	54.4941	125.712	-165.336	-0.007161	0.401312	-0.642240	-0.643555	-0.002826	54.4941	-0.642201	-3.165808E+8	8.925963E-12	NaN
121	1.000000	0.442633	7.36622e+06	-44689.1	955.818	-29775.5	0.000000	0.000000	6.442900	-0.081900	NaN	0.000000	0.001566	0.001674	28.111	0.073161	0.002086	35.0677	88.0055	-168.148	-0.093766	0.441347	-0.602235	-0.603520	-0.081900	35.0677	-0.600483	-8.454966E+7	9.686579E-10	NaN
121	1.000000	0.482657	7.36622e+06	-44689.1	955.817	-29775.5	0.000000	0.000000	6.482930	0.071031	NaN	0.000000	0.001589	0.001671	28.1115	0.092811	0.001965	47.2212	153.197	-165.154	0.035901	0.481322	-0.562210	-0.563546	0.071031	47.2212	-0.563338	-2.597473E+7	-2.734609E-9	NaN
121	1.000000	0.522698	7.36622e+06	-44689.1	955.819	-29775.5	0.000000	0.000000	6.522969	0.024035	NaN	0.000000	0.001576	0.001666	28.112	0.065238	0.001992	32.7566	160.836	-165.196	-0.037050	0.521330	-0.522170	-0.523537	0.024035	32.7566	-0.522720	-7.10263e+06	-3.384004E-9	NaN
121	1.000000	0.562730	7.36622e+06	-44689.1	955.818	-29775.5	0.000000	0.000000	6.562998	-0.048257	NaN	0.000000	0.001557	0.001690	28.1102	0.032137	0.002080	15.4527	-52.755	-163.098	-0.081196	0.561471	-0.482138	-0.483396	-0.048257	15.4527	-0.479796	-1.78923e+06	2.697073E-8	NaN
121	1.000000	0.602692	7.36622e+06	-44689.1	955.819	-29775.5	0.000000	0.000000	6.602962	-0.019982	NaN	0.000000	0.001567	0.001696	28.1103	0.048213	0.001953	24.685	78.3372	-167.825	0.009823	0.601415	-0.442175	-0.443453	-0.019982	24.685	-0.441568	-519383	3.847261E-8	NaN
121	1.000000	0.642738	7.36622e+06	-44689.1	955.818	-29775.5	0.000000	0.000000	6.643008	-0.009914	NaN	0.000000	0.001547	0.001697	28.1081	0.005912	0.002005	2.948565	156.524	-162.53	0.035291	0.641432	-0.402129	-0.403436	-0.009914	2.948565	-0.399607	-131945	7.513414E-8	NaN
121	1.000000	0.682729	7.36622e+06	-44689.1	955.818	-29775.5	0.000000	0.000000	6.682999	0.001205	NaN	0.000000	0.001657	0.001694	28.1099	0.065606	0.001958	33.5031	-174.113	-165.856	-0.008934	0.681463	-0.362138	-0.363405	0.001205	33.5031	-0.362165	-38294.4	-3.145676E-8	NaN
121	1.000000	0.722793	7.36622e+06	-44689.1	955.818	-29775.5	0.000000	0.000000	6.723064	0.017167	NaN	0.000000	0.001664	0.001662	28.1094	0.068277	0.001967	34.7099	179.086	-166.392	-0.038846	0.721526	-0.322074	-0.323342	0.017167	34.7099	-0.322445	-10106.6	-1.698614E-6	NaN
121	1.000000	0.762792	7.36622e+06	-44689.1	955.818	-29775.5	0.000000	0.000000	6.763064	0.048882	NaN	0.000000	0.001645	0.001680	28.1105	0.058755	0.001920	30.5948	-118.112	-169.63	-0.020843	0.761451	-0.282075	-0.283417	0.048882	30.5948	-0.283273	-2644.2	-1.848645E-5	NaN
121	1.000000	0.802799	7.36622e+06	-44689.1	955.818	-29775.5	0.000000	0.000000	6.803071	0.048209	NaN	0.000000	0.001602	0.001657	28.1091	0.062723	0.001978	31.7146	174.239	-166.03	0.040253	0.801492	-0.242068	-0.243375	0.048209	31.7146	-0.243208	-645.036	-7.473790E-5	NaN
121	1.000000	0.842809	7.36622e+06	-44689.1	955.818	-29775.5	0.000000	0.000000	6.843080	0.036260	NaN	0.000000	0.001611	0.001699	28.1093	0.048001	0.002034	23.5946	-137.947	-168.16	0.018680	0.841522	-0.202059	-0.203346	0.036260	23.5946	-0.203211	-148.711	-0.000244	NaN
121	1.000000	0.882830	7.36622e+06	-44689.1	955.819	-29775.5	0.000000	0.000000	6.883101	0.011718	NaN	0.000000	0.001625	0.001713	28.107	0.087772	0.002047	42.8722	-135.518	-166.78	0.127996	0.881556	-0.162037	-0.163311	0.011718	42.8722	-0.162242	-30.0414	-0.000390	NaN
121	1.000000	0.922821	7.36622e+06	-44689.1	955.818	-29775.5	0.000000	0.000000	6.923093	0.036535	NaN	0.000000	0.001636	0.001718	28.1086	0.086633	0.001959	44.2142	-18.1891	-165.621	0.093036	0.921563	-0.122046	-0.123305	0.036535	44.2142	-0.122666	-5.465068	-0.006685	NaN
121	1.000000	0.962858	7.36623e+06	-44689.1	955.818	-29775.5	0.000000	0.000000	6.963128	0.015092	NaN	0.000000	0.001600	0.001722	28.1074	0.116260	0.001990	58.412	65.2066	-169.821	-0.044152	0.961585	-0.082010	-0.083282	0.015092	58.412	-0.082203	-0.702074	-0.021496	NaN
121	1.000000	1.002849	7.36623e+06	-44689.1	955.818	-29775.5	0.000000	0.000000	7.003118	-0.030959	NaN	0.000000	0.001615	0.001696	28.109	0.050212	0.002003	25.0685	-152.244	-165.705	0.001317	1.001593	-0.042018	-0.043274	-0.030959	25.0685	-0.041092	-0.048818	0.634176	NaN
121	1.000000	1.042874	7.36623e+06	-44689.1	955.819	-29775.5	0.000000	0.000000	7.043183	0.955024	NaN	0.000000	0.001633	0.001686	28.1075	0.919765	0.001897	484.726	13.5709	-163.041	0.752667	1.041641	-0.001994	-0.003226	0.955024	484.726	-0.003471	-0.002433	-392.453	NaN
121	2.000000	1.077475	7.36623e+06	-44689.1	955.817	-29775.5	0.000000	0.000000	7.078052	7.466082	NaN	0.000000	0.001692	0.001726	28.1089	8.658725	0.001899	4560.09	14.9261	-171.844	7.518021	1.077196	0.032608	0.032328	7.466082	4560.09	0.031380	0.043652	171.037	19940.9
121	2.000000	1.087361	7.36623e+06	-44689.1	955.817	-29775.5	0.000000	0.000000	7.088604	23.6757	NaN	0.000000	0.001717	0.001690	28.1074	18.5317	0.001768	10480	7.771636	-176.094	23.3371	1.087057	0.042494	0.042190	23.6757	10480	0.040799	0.066110	358.124	37239.3
121	2.000000	1.097311	7.36623e+06	-44689.1	955.819	-29775.5	0.000000	0.000000	7.099746	52.6648	NaN	0.000000	0.001691	0.001725	28.1066	28.7851	0.001711	16821.6	6.148268	179.199	51.5975	1.097082	0.052444	0.052215	52.6648	16821.6	0.050096	0.092710	568.06	50475.2
121	2.000000	1.107275	7.36623e+06	-44689.1	955.819	-29775.5	0.000000	0.000000	7.111144	87.5588	NaN	0.000000	0.001627	0.001680	28.1049	39.8578	0.001910	20868.2	10.0122	173.287	85.0574	1.106932	0.062407	0.062064	87.5588	20868.2	0.059260	0.123170	710.879	54325.8
121	2.000000	1.117284	7.36623e+06	-44689.1	955.819	-29775.5	0.000000	0.000000	7.122747	126.339	NaN	0.000000	0.001621	0.001728	28.1063	47.704	0.001852	25760.3	6.603964	175.078	124.587	1.117017	0.072417	0.072150	126.339	25760.3	0.068738	0.158993	794.619	59024.7
121	2.000000	1.127254	7.36623e+06	-44689.1	955.82	-29775.5	0.000000	0.000000	7.134429	167.994	NaN	0.000000	0.001560	0.001678	28.1058	56.8788	0.002012	28269	6.585408	173.883	165.844	1.127021	0.082386	0.082153	167.994	28269	0.077929	0.197830	849.184	58068.1
121	2.000000	1.137271	7.36623e+06	-44689.1	955.819	-29775.5	0.000000	0.000000	7.146610	220.629	NaN	0.000000	0.001632	0.001682	28.1069	65.0875	0.001770	36766.2	4.749394	173.419	219.464	1.136981	0.092403	0.092114	220.629	36766.2	0.087903	0.244443	902.579	67941.1
121	2.000000	1.147215	7.36623e+06	-44689.1	955.819	-29775.5	0.000000	0.000000	7.158994	279.995	NaN	0.000000	0.001674	0.001681	28.1056	73.3469	0.001767	41517.5	0.762270	176.483	276.657	1.146980	0.102347	0.102113	279.995	41517.5	0.097289	0.292495	957.263	70136.6
121	2.000000	1.157204	7.36623e+06	-44689.1	955.819	-29775.5	0.000000	0.000000	7.171772	347.832	NaN	0.000000	0.001628	0.001752	28.1062	84.6701	0.001874	45171.4	3.242117	173.326	345.088	1.157048	0.112337	0.112181	347.832	45171.4	0.106562	0.343902	1011.43	70375.2
121	2.000000	1.167288	7.36623e+06	-44689.1	955.82	-29775.5	0.000000	0.000000	7.185088	426.455	NaN	0.000000	0.001627	0.001775	28.1033	94.6092	0.001824	51864.7	6.237596	169.264	429.097	1.166993	0.122421	0.122126	426.455	51864.7	0.116254	0.401808	1061.34	74754.1
121	2.000000	1.174255	7.36623e+06	-44689.1	955.819	-29775.5	0.000000	0.000000	7.194354	482.406	NaN	0.000000	0.001614	0.001762	28.0908	100.189	0.001869	53600.9	5.922275	169.647	482.725	1.174031	0.129387	0.129164	482.406	53600.9	0.122637	0.442272	1090.74	73637.7

File: 2025-07-22_16-23-58_1_122.txt
2025-07-22, 16:23:58, 1
Index	Phase	Displacement	Time	Pos X	Pos Y	Pos Z	Rot A	Rot B	Piezo Z	Force A	Force B	Gripper	Voltage A	Voltage B	Temperature	Amplitude force	Amplitude pos	Stiffness	Phase shift	Phase excitation	Force A raw	Displacement raw	HMax	HMax raw	Real Force	Real Stiffness	Contact Depth	Area	Hardness	Reduced Mod.
[#]	[#]	[um]	[s]	[um]	[um]	[um]	[m°]	[m°]	[um]	[uN]	[uN]	[V]	[V]	[V]	[°C]	[uN]	[um]	[N/m]	[°]	[°]	[uN]	[um]	[um]	[um]	[uN]	[N/m]	[um]	[um^2]	[MPa]	[MPa]
122	1.000000	0.002559	7.36623e+06	-44739.1	955.819	-29775.3	0.000000	0.000000	6.002714	-0.065088	NaN	0.000000	0.001582	0.001766	28.1026	0.087932	0.000994	88.4818	-95.4385	176.828	-0.084572	0.001291	-1.049792	-1.051060	-0.065088	88.4818	-1.049240	-1.042806E+14	6.241588E-16	NaN
122	1.000000	0.042528	7.36623e+06	-44739.1	955.819	-29775.3	0.000000	0.000000	6.042687	0.006464	NaN	0.000000	0.001591	0.001765	28.1001	0.082148	0.001948	42.1727	157.158	175.831	-0.014752	0.041244	-1.009823	-1.011106	0.006464	42.1727	-1.009938	-3.087047E+13	-2.093992E-16	NaN
122	1.000000	0.082542	7.36623e+06	-44739.1	955.818	-29775.3	0.000000	0.000000	6.082701	0.019703	NaN	0.000000	0.001551	0.001705	28.0995	0.068597	0.002103	32.6193	134.103	178.17	-0.062482	0.081288	-0.969809	-0.971063	0.019703	32.6193	-0.970262	-9.019679E+12	-2.184455E-15	NaN
122	1.000000	0.122554	7.36623e+06	-44739.1	955.818	-29775.3	0.000000	0.000000	6.122714	0.036700	NaN	0.000000	0.001580	0.001764	28.0982	0.062237	0.001953	31.8611	170.253	175.415	-0.000740	0.121200	-0.929797	-0.931151	0.036700	31.8611	-0.930661	-2.637017E+12	-1.391723E-14	NaN
122	1.000000	0.162579	7.36623e+06	-44739.1	955.819	-29775.3	0.000000	0.000000	6.162733	-0.096800	NaN	0.000000	0.001627	0.001724	28.0999	0.060271	0.001971	30.5821	-105.348	174.055	-0.099752	0.161256	-0.889772	-0.891094	-0.096800	30.5821	-0.887398	-6.866599E+11	1.409725E-13	NaN
122	1.000000	0.202571	7.36623e+06	-44739.1	955.818	-29775.4	0.000000	0.000000	6.202731	0.031182	NaN	0.000000	0.001595	0.001757	28.1011	0.090633	0.001976	45.8625	-32.9488	173.712	0.037471	0.201252	-0.849780	-0.851099	0.031182	45.8625	-0.850290	-2.161046E+11	-1.442932E-13	NaN
122	1.000000	0.242575	7.36623e+06	-44739.1	955.818	-29775.4	0.000000	0.000000	6.242734	0.000175	NaN	0.000000	0.001580	0.001762	28.101	0.031241	0.001843	16.9551	-7.334724	173.369	-0.017952	0.241306	-0.809775	-0.811045	0.000175	16.9551	-0.809783	-6.104179E+10	-2.871525E-15	NaN
122	1.000000	0.282630	7.36623e+06	-44739.1	955.818	-29775.4	0.000000	0.000000	6.282789	0.011600	NaN	0.000000	0.001600	0.001750	28.1004	0.040857	0.002055	19.8862	-55.5422	179.208	0.076674	0.281296	-0.769720	-0.771055	0.011600	19.8862	-0.770158	-1.767874E+10	-6.561654E-13	NaN
122	1.000000	0.322647	7.36623e+06	-44739.1	955.819	-29775.4	0.000000	0.000000	6.322804	-0.033494	NaN	0.000000	0.001643	0.001760	28.099	0.011068	0.001932	5.728398	105.369	172.72	-0.109117	0.321359	-0.729704	-0.730992	-0.033494	5.728398	-0.725319	-4.335111E+9	7.726155E-12	NaN
122	1.000000	0.362664	7.36623e+06	-44739.1	955.818	-29775.4	0.000000	0.000000	6.362823	0.009693	NaN	0.000000	0.001664	0.001747	28.0983	0.049371	0.002015	24.5042	-24.1553	178.458	-0.020912	0.361343	-0.689686	-0.691007	0.009693	24.5042	-0.689983	-1.427861E+9	-6.788743E-12	NaN
122	1.000000	0.402684	7.36623e+06	-44739.1	955.819	-29775.4	0.000000	0.000000	6.402845	0.067652	NaN	0.000000	0.001596	0.001755	28.099	0.082945	0.002191	37.8587	5.610452	174.56	0.053379	0.401340	-0.649667	-0.651010	0.067652	37.8587	-0.651007	-4.180606E+8	-1.618232E-10	NaN
122	1.000000	0.442703	7.36623e+06	-44739.1	955.819	-29775.4	0.000000	0.000000	6.442860	-0.030358	NaN	0.000000	0.001582	0.001790	28.0997	0.089274	0.002078	42.9678	-94.5724	177.155	0.009710	0.441431	-0.609648	-0.610920	-0.030358	42.9678	-0.609118	-1.111683E+8	2.730818E-10	NaN
122	1.000000	0.482749	7.36623e+06	-44739.1	955.818	-29775.4	0.000000	0.000000	6.482903	-0.100280	NaN	0.000000	0.001537	0.001752	28.1	0.051776	0.002101	24.6384	122.784	178.375	-0.089503	0.481395	-0.569602	-0.570955	-0.100280	24.6384	-0.566549	-2.877025E+7	3.485539E-9	NaN
122	1.000000	0.522705	7.36623e+06	-44739.1	955.818	-29775.4	0.000000	0.000000	6.522864	0.003941	NaN	0.000000	0.001567	0.001754	28.0991	0.074885	0.002149	34.8418	2.473786	174.061	-0.022195	0.521387	-0.529645	-0.530964	0.003941	34.8418	-0.529730	-8.88846e+06	-4.434329E-10	NaN
122	1.000000	0.562748	7.36623e+06	-44739.1	955.818	-29775.4	0.000000	0.000000	6.562906	-0.021454	NaN	0.000000	0.001579	0.001745	28.0962	0.036976	0.001922	19.2422	-146.309	174.354	0.025906	0.561377	-0.489602	-0.490973	-0.021454	19.2422	-0.488766	-2.38864e+06	8.981689E-9	NaN
122	1.000000	0.602774	7.36623e+06	-44739.1	955.819	-29775.4	0.000000	0.000000	6.602931	-0.039827	NaN	0.000000	0.001572	0.001741	28.0968	0.073156	0.001864	39.2517	54.6753	175.141	-0.024305	0.601492	-0.449577	-0.450858	-0.039827	39.2517	-0.448816	-657157	6.060542E-8	NaN
122	1.000000	0.642794	7.36623e+06	-44739.1	955.818	-29775.4	0.000000	0.000000	6.642950	-0.069901	NaN	0.000000	0.001612	0.001769	28.0966	0.036396	0.002050	17.7581	-128.996	175.97	-0.090236	0.641434	-0.409557	-0.410916	-0.069901	17.7581	-0.406604	-165993	4.211070E-7	NaN
122	1.000000	0.682797	7.36623e+06	-44739.1	955.819	-29775.4	0.000000	0.000000	6.682953	-0.076597	NaN	0.000000	0.001614	0.001756	28.0968	0.066799	0.001869	35.7496	130.209	175.497	-0.083049	0.681440	-0.369553	-0.370911	-0.076597	35.7496	-0.367946	-46402.5	1.650699E-6	NaN
122	1.000000	0.722810	7.36623e+06	-44739.1	955.818	-29775.4	0.000000	0.000000	6.722967	-0.030968	NaN	0.000000	0.001665	0.001746	28.0976	0.028426	0.001941	14.6439	72.1789	173.905	0.025997	0.721467	-0.329541	-0.330884	-0.030968	14.6439	-0.327955	-12175.4	2.543486E-6	NaN
122	1.000000	0.762811	7.36623e+06	-44739.1	955.819	-29775.4	0.000000	0.000000	6.762970	0.011421	NaN	0.000000	0.001595	0.001787	28.0978	0.054482	0.002064	26.398	164.233	174.766	-0.010664	0.761491	-0.289540	-0.290860	0.011421	26.398	-0.289865	-3321.04	-3.438962E-6	NaN
122	1.000000	0.802850	7.36623e+06	-44739.1	955.819	-29775.4	0.000000	0.000000	6.803005	-0.077357	NaN	0.000000	0.001569	0.001760	28.0967	0.086014	0.001958	43.9367	47.5939	175.346	-0.100571	0.801497	-0.249501	-0.250854	-0.077357	43.9367	-0.248181	-770.555	0.000100	NaN
122	1.000000	0.842848	7.36623e+06	-44739.1	955.819	-29775.4	0.000000	0.000000	6.843003	-0.086276	NaN	0.000000	0.001609	0.001736	28.0963	0.086553	0.001972	43.8916	154.749	179.447	-0.048899	0.841567	-0.209503	-0.210784	-0.086276	43.8916	-0.208028	-178.174	0.000484	NaN
122	1.000000	0.882895	7.36623e+06	-44739.1	955.818	-29775.4	0.000000	0.000000	6.883051	-0.081238	NaN	0.000000	0.001608	0.001750	28.0966	0.015349	0.001922	7.986770	97.2905	174.552	-0.101405	0.881531	-0.169455	-0.170820	-0.081238	7.986770	-0.161827	-29.5374	0.002750	NaN
122	1.000000	0.922892	7.36623e+06	-44739.1	955.818	-29775.4	0.000000	0.000000	6.923049	-0.020635	NaN	0.000000	0.001584	0.001732	28.095	0.055793	0.001993	27.9923	-103.746	177.398	-0.051806	0.921559	-0.129459	-0.130792	-0.020635	27.9923	-0.128906	-7.256411	0.002844	NaN
122	1.000000	0.962934	7.36623e+06	-44739.1	955.818	-29775.4	0.000000	0.000000	6.963091	-0.035785	NaN	0.000000	0.001574	0.001761	28.0959	0.049995	0.001935	25.8353	-59.6453	174.399	-0.042219	0.961624	-0.089417	-0.090727	-0.035785	25.8353	-0.088378	-0.989867	0.036151	NaN
122	1.000000	1.002936	7.36623e+06	-44739.1	955.818	-29775.4	0.000000	0.000000	7.003091	-0.100373	NaN	0.000000	0.001555	0.001779	28.0958	0.118393	0.002023	58.5213	-3.871816	175.982	-0.069782	1.001580	-0.049415	-0.050771	-0.100373	58.5213	-0.048128	-0.080068	1.253603	NaN
122	1.000000	1.042919	7.36624e+06	-44739.1	955.818	-29775.4	0.000000	0.000000	7.043074	-0.081114	NaN	0.000000	0.001553	0.001760	28.0967	0.035852	0.002064	17.3697	17.8546	172.807	-0.068605	1.041620	-0.009432	-0.010731	-0.081114	17.3697	-0.005929	-0.003993	20.3137	NaN
122	2.000000	1.065459	7.36624e+06	-44739.1	955.818	-29775.4	0.000000	0.000000	7.066485	21.1014	NaN	0.000000	0.001576	0.001736	28.0959	16.869	0.001749	9647.3	3.268680	167.097	20.2364	1.065155	0.013109	0.012804	21.1014	9647.3	0.011468	0.010859	1943.18	84582.3
122	2.000000	1.075440	7.36624e+06	-44739.1	955.818	-29775.4	0.000000	0.000000	7.077634	49.523	NaN	0.000000	0.001598	0.001696	28.0956	27.9192	0.001825	15302.3	6.605077	160.813	48.5168	1.075121	0.023089	0.022770	49.523	15302.3	0.020662	0.023593	2099.05	91020.3
122	2.000000	1.085385	7.36624e+06	-44739.1	955.819	-29775.4	0.000000	0.000000	7.089087	86.1975	NaN	0.000000	0.001585	0.001711	28.0954	36.0841	0.001789	20173.8	3.319626	161.404	83.6506	1.085084	0.033034	0.032734	86.1975	20173.8	0.029830	0.040392	2134.04	91709.8
122	2.000000	1.095437	7.36624e+06	-44739.1	955.818	-29775.4	0.000000	0.000000	7.100902	129.097	NaN	0.000000	0.001561	0.001660	28.0939	46.5928	0.001757	26513.2	2.649524	160.866	129.57	1.095167	0.043087	0.042816	129.097	26513.2	0.039435	0.062576	2063.06	96835.1
122	2.000000	1.105404	7.36624e+06	-44739.1	955.818	-29775.4	0.000000	0.000000	7.112851	177.311	NaN	0.000000	0.001554	0.001699	28.0949	55.9974	0.001767	31699	0.909882	160.018	175.422	1.105220	0.053053	0.052869	177.311	31699	0.048858	0.088915	1994.16	97124.8
122	2.000000	1.115353	7.36624e+06	-44739.1	955.819	-29775.4	0.000000	0.000000	7.125886	252.365	NaN	0.000000	0.001702	0.001688	28.0957	66.9264	0.001745	38359.5	5.568385	154.56	250.277	1.114993	0.063003	0.062642	252.365	38359.5	0.058068	0.118973	2121.2	101607
122	2.000000	1.125367	7.36624e+06	-44739.1	955.819	-29775.4	0.000000	0.000000	7.138469	314.901	NaN	0.000000	0.001641	0.001693	28.0949	77.7487	0.001945	39980.6	6.979522	152.982	313.172	1.124999	0.073016	0.072648	314.901	39980.6	0.067109	0.152525	2064.58	93530
122	2.000000	1.135323	7.36624e+06	-44739.1	955.819	-29775.4	0.000000	0.000000	7.151625	392.742	NaN	0.000000	0.001649	0.001696	28.095	86.8977	0.001797	48351.2	5.762591	152.955	390.662	1.135119	0.082972	0.082768	392.742	48351.2	0.076880	0.193195	2032.88	100504
122	2.000000	1.145315	7.36624e+06	-44739.1	955.819	-29775.4	0.000000	0.000000	7.165164	479.026	NaN	0.000000	0.001624	0.001691	28.0939	95.4103	0.001882	50684.7	4.694206	154.51	476.594	1.145016	0.092965	0.092665	479.026	50684.7	0.085876	0.234600	2041.89	95606.4
122	2.000000	1.155294	7.36624e+06	-44739.1	955.818	-29775.4	0.000000	0.000000	7.178908	570.632	NaN	0.000000	0.001680	0.001660	28.0932	104.383	0.001824	57223.7	6.575197	151.296	566.864	1.154944	0.102943	0.102593	570.632	57223.7	0.095464	0.282835	2017.54	98306.6
122	2.000000	1.158334	7.36624e+06	-44739.1	955.819	-29775.4	0.000000	0.000000	7.183403	605.997	NaN	0.000000	0.001687	0.001684	28.1007	107.214	0.001776	60351.2	5.706436	152.315	603.914	1.157928	0.105984	0.105578	605.997	60351.2	0.098453	0.298730	2028.58	100883