Folder: unikorn_login/remote_trans/data/nanoindenter/0828-1/data/Data_2025-08-06,11h17m57s (part 126)

File: 2025-07-22_16-23-58_1_269.txt
2025-07-22, 16:23:58, 1
Index	Phase	Displacement	Time	Pos X	Pos Y	Pos Z	Rot A	Rot B	Piezo Z	Force A	Force B	Gripper	Voltage A	Voltage B	Temperature	Amplitude force	Amplitude pos	Stiffness	Phase shift	Phase excitation	Force A raw	Displacement raw	HMax	HMax raw	Real Force	Real Stiffness	Contact Depth	Area	Hardness	Reduced Mod.
[#]	[#]	[um]	[s]	[um]	[um]	[um]	[m°]	[m°]	[um]	[uN]	[uN]	[V]	[V]	[V]	[°C]	[uN]	[um]	[N/m]	[°]	[°]	[uN]	[um]	[um]	[um]	[uN]	[N/m]	[um]	[um^2]	[MPa]	[MPa]
269	1.000000	0.002569	7.36768e+06	-52089.1	955.818	-29749.9	0.000000	0.000000	6.002823	-0.107996	NaN	0.000000	0.001627	0.001660	28.079	0.071036	0.000831	85.4438	-65.4019	-167.19	-0.095300	0.001278	-1.765205	-1.766496	-0.107996	85.4438	-1.764258	-3.628704E+23	2.976147E-25	NaN
269	1.000000	0.062486	7.36768e+06	-52089.1	955.818	-29749.9	0.000000	0.000000	6.062747	0.031124	NaN	0.000000	0.001615	0.001674	28.0777	0.123688	0.002066	59.8697	-107.888	-164.097	-0.085544	0.061192	-1.705288	-1.706582	0.031124	59.8697	-1.705678	-6.051499E+22	-5.143199E-25	NaN
269	1.000000	0.122517	7.36768e+06	-52089.1	955.817	-29749.9	0.000000	0.000000	6.122775	-0.002974	NaN	0.000000	0.001599	0.001672	28.0783	0.114257	0.001983	57.6237	-25.361	-166.863	-0.012027	0.121202	-1.645258	-1.646573	-0.002974	57.6237	-1.645219	-9.516578E+21	3.125042E-25	NaN
269	1.000000	0.182533	7.36768e+06	-52089.1	955.818	-29749.8	0.000000	0.000000	6.182791	-0.026428	NaN	0.000000	0.001573	0.001687	28.0779	0.039774	0.001834	21.6926	32.8182	-165.071	0.077575	0.181211	-1.585242	-1.586563	-0.026428	21.6926	-1.584328	-1.474892E+21	1.791833E-23	NaN
269	1.000000	0.242571	7.36769e+06	-52089.1	955.818	-29749.8	0.000000	0.000000	6.242827	-0.066441	NaN	0.000000	0.001672	0.001696	28.0791	0.094972	0.002049	46.3507	115.519	-167.213	-0.057852	0.241318	-1.525203	-1.526456	-0.066441	46.3507	-1.524128	-2.331347E+20	2.849913E-22	NaN
269	1.000000	0.302597	7.36769e+06	-52089.1	955.819	-29749.8	0.000000	0.000000	6.302855	-0.022053	NaN	0.000000	0.001609	0.001641	28.0791	0.089094	0.002045	43.5741	126.148	-163.589	-0.043339	0.301304	-1.465178	-1.466470	-0.022053	43.5741	-1.464798	-3.778845E+19	5.836000E-22	NaN
269	1.000000	0.362615	7.36769e+06	-52089.1	955.818	-29749.8	0.000000	0.000000	6.362873	-0.014231	NaN	0.000000	0.001675	0.001677	28.0778	0.085175	0.001948	43.7327	98.906	-165.703	0.015090	0.361381	-1.405159	-1.406393	-0.014231	43.7327	-1.404915	-6.012143E+18	2.367034E-21	NaN
269	1.000000	0.422645	7.36769e+06	-52089.1	955.818	-29749.8	0.000000	0.000000	6.422905	0.008717	NaN	0.000000	0.001676	0.001636	28.0778	0.034818	0.002010	17.3233	-19.4262	-164.367	-0.021081	0.421343	-1.345129	-1.346431	0.008717	17.3233	-1.345507	-9.688070E+17	-8.997971E-21	NaN
269	1.000000	0.482682	7.36769e+06	-52089.1	955.818	-29749.8	0.000000	0.000000	6.482941	-0.009001	NaN	0.000000	0.001661	0.001643	28.079	0.073507	0.001970	37.3129	-114.082	-163.589	-0.021301	0.481344	-1.285092	-1.286430	-0.009001	37.3129	-1.284911	-1.502239E+17	5.991855E-20	NaN
269	1.000000	0.542711	7.36769e+06	-52089.1	955.817	-29749.8	0.000000	0.000000	6.542970	-0.007270	NaN	0.000000	0.001668	0.001648	28.0792	0.071953	0.002042	35.2329	-63.2433	-167.323	0.048942	0.541372	-1.225063	-1.226402	-0.007270	35.2329	-1.224908	-2.366994E+16	3.071315E-19	NaN
269	1.000000	0.602686	7.36769e+06	-52089.1	955.819	-29749.8	0.000000	0.000000	6.602946	0.035161	NaN	0.000000	0.001667	0.001701	28.0784	0.065019	0.002052	31.6918	-103.092	-164.987	0.028805	0.601374	-1.165089	-1.166401	0.035161	31.6918	-1.165921	-3.839035E+15	-9.158769E-18	NaN
269	1.000000	0.662765	7.36769e+06	-52089.1	955.818	-29749.8	0.000000	0.000000	6.663024	0.008279	NaN	0.000000	0.001700	0.001648	28.0782	0.056444	0.001987	28.4101	166.677	-164.188	0.034023	0.661492	-1.105009	-1.106282	0.008279	28.4101	-1.105228	-5.891730E+14	-1.405175E-17	NaN
269	1.000000	0.722784	7.36769e+06	-52089.1	955.819	-29749.8	0.000000	0.000000	6.723043	0.016326	NaN	0.000000	0.001626	0.001635	28.0786	0.044981	0.002141	21.0102	-143.567	-160.969	0.005542	0.721408	-1.044991	-1.046366	0.016326	21.0102	-1.045573	-9.309055E+13	-1.753787E-16	NaN
269	1.000000	0.782803	7.36769e+06	-52089.1	955.818	-29749.8	0.000000	0.000000	6.783060	-0.033314	NaN	0.000000	0.001661	0.001625	28.0793	0.113056	0.001895	59.653	174.565	-165.534	0.016852	0.781521	-0.984972	-0.986254	-0.033314	59.653	-0.984553	-1.405210E+13	2.370726E-15	NaN
269	1.000000	0.842834	7.36769e+06	-52089.1	955.819	-29749.8	0.000000	0.000000	6.843092	-0.025723	NaN	0.000000	0.001656	0.001627	28.0792	0.133963	0.001982	67.5798	85.7722	-165.076	0.045049	0.841550	-0.924940	-0.926225	-0.025723	67.5798	-0.924655	-2.188013E+12	1.175624E-14	NaN
269	1.000000	0.902855	7.36769e+06	-52089.1	955.819	-29749.8	0.000000	0.000000	6.903113	-0.010078	NaN	0.000000	0.001606	0.001555	28.0779	0.038795	0.002045	18.9717	22.8603	-161.843	-0.027864	0.901521	-0.864920	-0.866254	-0.010078	18.9717	-0.864521	-3.367537E+11	2.992555E-14	NaN
269	1.000000	0.962867	7.36769e+06	-52089.1	955.819	-29749.8	0.000000	0.000000	6.963129	0.053644	NaN	0.000000	0.001583	0.001654	28.078	0.041710	0.002012	20.7312	-25.2334	-164.743	0.026009	0.961576	-0.804907	-0.806198	0.053644	20.7312	-0.806848	-5.569293E+10	-9.632055E-13	NaN
269	1.000000	1.022881	7.36769e+06	-52089.1	955.819	-29749.8	0.000000	0.000000	7.023140	-0.001533	NaN	0.000000	0.001599	0.001688	28.0795	0.067056	0.001817	36.9025	78.1398	-166.092	0.041754	1.021551	-0.744894	-0.746224	-0.001533	36.9025	-0.744862	-8.003397E+9	1.915236E-13	NaN
269	1.000000	1.082891	7.36769e+06	-52089.1	955.819	-29749.8	0.000000	0.000000	7.083151	0.005256	NaN	0.000000	0.001578	0.001667	28.0792	0.024657	0.002108	11.6975	-113.163	-165.944	0.069307	1.081650	-0.684883	-0.686124	0.005256	11.6975	-0.685220	-1.229086E+9	-4.276653E-12	NaN
269	1.000000	1.142948	7.36769e+06	-52089.1	955.82	-29749.8	0.000000	0.000000	7.143206	-0.010753	NaN	0.000000	0.001607	0.001667	28.0794	0.089429	0.001959	45.6586	116.602	-160.956	0.003722	1.141612	-0.624827	-0.626162	-0.010753	45.6586	-0.624650	-1.817763E+8	5.915448E-11	NaN
269	1.000000	1.202962	7.36769e+06	-52089.1	955.82	-29749.8	0.000000	0.000000	7.203222	0.037690	NaN	0.000000	0.001634	0.001718	28.0782	0.116313	0.001890	61.5425	-52.4177	-165.777	0.053599	1.201664	-0.564813	-0.566110	0.037690	61.5425	-0.565272	-2.762385E+7	-1.364391E-9	NaN
269	1.000000	1.262996	7.36769e+06	-52089.1	955.82	-29749.8	0.000000	0.000000	7.263254	-0.030915	NaN	0.000000	0.001586	0.001691	28.078	0.153017	0.001960	78.0755	105.573	-164.325	-0.037192	1.261698	-0.504778	-0.506076	-0.030915	78.0755	-0.504481	-3.95835e+06	7.809999E-9	NaN
269	1.000000	1.323016	7.36769e+06	-52089.1	955.819	-29749.8	0.000000	0.000000	7.323274	-0.021855	NaN	0.000000	0.001578	0.001715	28.0791	0.123449	0.002033	60.7314	-114.003	-166.07	-0.011033	1.321721	-0.444759	-0.446053	-0.021855	60.7314	-0.444489	-571064	3.827101E-8	NaN
269	1.000000	1.383040	7.36769e+06	-52089.1	955.819	-29749.8	0.000000	0.000000	7.383299	0.019497	NaN	0.000000	0.001628	0.001680	28.0792	0.046205	0.002053	22.5089	-83.6787	-165.185	0.034567	1.381697	-0.384735	-0.386077	0.019497	22.5089	-0.385384	-82621.6	-2.359854E-7	NaN
269	1.000000	1.443072	7.36769e+06	-52089.1	955.819	-29749.8	0.000000	0.000000	7.443331	0.017267	NaN	0.000000	0.001734	0.001712	28.0785	0.055154	0.002055	26.844	108.589	-164.761	0.085619	1.441767	-0.324703	-0.326008	0.017267	26.844	-0.325185	-11088	-1.557299E-6	NaN
269	1.000000	1.503096	7.36769e+06	-52089.1	955.819	-29749.8	0.000000	0.000000	7.503355	-0.010015	NaN	0.000000	0.001788	0.001702	28.0782	0.098966	0.002019	49.0158	70.6683	-166.438	-0.027835	1.501770	-0.264678	-0.266004	-0.010015	49.0158	-0.264525	-1374.47	7.286420E-6	NaN
269	1.000000	1.563119	7.36769e+06	-52089.1	955.819	-29749.8	0.000000	0.000000	7.563380	0.057763	NaN	0.000000	0.001711	0.001675	28.0794	0.078156	0.002058	37.9715	22.1154	-168.329	0.066962	1.561803	-0.204655	-0.205972	0.057763	37.9715	-0.205796	-163.885	-0.000352	NaN
269	1.000000	1.623143	7.36769e+06	-52089.1	955.819	-29749.8	0.000000	0.000000	7.623404	0.052009	NaN	0.000000	0.001703	0.001664	28.0793	0.068662	0.001976	34.7432	57.7927	-164.685	0.097437	1.621833	-0.144631	-0.145941	0.052009	34.7432	-0.145754	-15.1393	-0.003435	NaN
269	1.000000	1.683169	7.36769e+06	-52089.1	955.819	-29749.8	0.000000	0.000000	7.683428	-0.002416	NaN	0.000000	0.001708	0.001668	28.0792	0.079705	0.001998	39.9001	137.922	-163.709	-0.037919	1.681905	-0.084605	-0.085869	-0.002416	39.9001	-0.084560	-0.801694	0.003014	NaN
269	1.000000	1.743219	7.36769e+06	-52089.1	955.818	-29749.8	0.000000	0.000000	7.743477	-0.018105	NaN	0.000000	0.001714	0.001725	28.0781	0.038342	0.001958	19.5774	-108.593	-164.211	0.000455	1.741912	-0.024556	-0.025863	-0.018105	19.5774	-0.023862	-0.015761	1.148720	NaN
269	2.000000	1.782710	7.36769e+06	-52089.1	955.819	-29749.8	0.000000	0.000000	7.783591	15.1435	NaN	0.000000	0.001717	0.001687	28.0782	15.3522	0.001899	8082.43	9.670559	-175.965	15.349	1.782433	0.014935	0.014659	15.1435	8082.43	0.013530	0.013375	1132.24	63851.6
269	2.000000	1.797650	7.36769e+06	-52089.1	955.819	-29749.8	0.000000	0.000000	7.799587	40.7994	NaN	0.000000	0.001707	0.001692	28.0797	28.1138	0.001754	16025.6	5.112124	179.877	39.1235	1.797285	0.029875	0.029511	40.7994	16025.6	0.027966	0.036633	1113.72	76497.8
269	2.000000	1.812571	7.36769e+06	-52089.1	955.819	-29749.8	0.000000	0.000000	7.815901	74.6726	NaN	0.000000	0.001670	0.001678	28.0793	41.8766	0.001808	23160.6	3.041375	179.289	71.294	1.812323	0.044796	0.044548	74.6726	23160.6	0.042378	0.070319	1061.91	79796.9
269	2.000000	1.827607	7.36769e+06	-52089.1	955.82	-29749.8	0.000000	0.000000	7.833119	127.708	NaN	0.000000	0.001762	0.001656	28.0783	55.875	0.001921	29089.5	4.975315	175.245	127.95	1.827404	0.059833	0.059629	127.708	29089.5	0.056540	0.113696	1123.25	78820.2
269	2.000000	1.842597	7.36769e+06	-52089.1	955.82	-29749.8	0.000000	0.000000	7.851515	210.543	NaN	0.000000	0.001765	0.001675	28.0781	69.5448	0.001729	40226	2.528188	174.99	208.876	1.842302	0.074823	0.074528	210.543	40226	0.070897	0.167756	1255.06	89730.7
269	2.000000	1.857594	7.36769e+06	-52089.1	955.82	-29749.8	0.000000	0.000000	7.870459	306.506	NaN	0.000000	0.001699	0.001654	28.079	84.2505	0.001809	46561.7	5.154020	171.819	306.323	1.857271	0.089820	0.089497	306.506	46561.7	0.084883	0.229843	1333.55	88733.3
269	2.000000	1.872538	7.36769e+06	-52089.1	955.82	-29749.8	0.000000	0.000000	7.890128	421.399	NaN	0.000000	0.001739	0.001720	28.0795	98.4853	0.001844	53405	5.207296	170.723	420.495	1.872111	0.104764	0.104337	421.399	53405	0.098846	0.300851	1400.69	88956.8
269	2.000000	1.874462	7.36769e+06	-52089.1	955.82	-29749.8	0.000000	0.000000	7.892506	432.452	NaN	0.000000	0.001746	0.001659	28.0792	97.5608	0.001679	58107.2	1.199939	173.885	426.191	1.874248	0.106687	0.106473	432.452	58107.2	0.101106	0.313180	1380.84	94865.1

File: 2025-07-22_16-23-58_1_270.txt
2025-07-22, 16:23:58, 1
Index	Phase	Displacement	Time	Pos X	Pos Y	Pos Z	Rot A	Rot B	Piezo Z	Force A	Force B	Gripper	Voltage A	Voltage B	Temperature	Amplitude force	Amplitude pos	Stiffness	Phase shift	Phase excitation	Force A raw	Displacement raw	HMax	HMax raw	Real Force	Real Stiffness	Contact Depth	Area	Hardness	Reduced Mod.
[#]	[#]	[um]	[s]	[um]	[um]	[um]	[m°]	[m°]	[um]	[uN]	[uN]	[V]	[V]	[V]	[°C]	[uN]	[um]	[N/m]	[°]	[°]	[uN]	[um]	[um]	[um]	[uN]	[N/m]	[um]	[um^2]	[MPa]	[MPa]
270	1.000000	0.002620	7.3677e+06	-52139.1	955.818	-29750.4	0.000000	0.000000	6.002788	-0.036860	NaN	0.000000	0.001691	0.001690	28.0796	0.016356	0.000989	16.5447	111.967	-163.395	-0.039505	0.001434	-1.050829	-1.052015	-0.036860	16.5447	-1.049158	-1.040140E+14	3.543711E-16	NaN
270	1.000000	0.042577	7.3677e+06	-52139.1	955.818	-29750.4	0.000000	0.000000	6.042744	-0.062536	NaN	0.000000	0.001662	0.001685	28.0804	0.144385	0.002036	70.9065	-100.722	-164.85	-0.109724	0.041318	-1.010872	-1.012131	-0.062536	70.9065	-1.010210	-3.113249E+13	2.008710E-15	NaN
270	1.000000	0.082605	7.3677e+06	-52139.1	955.818	-29750.4	0.000000	0.000000	6.082773	-0.042909	NaN	0.000000	0.001680	0.001657	28.0806	0.009880	0.002077	4.758049	-127.819	-167.164	0.015408	0.081291	-0.970844	-0.972158	-0.042909	4.758049	-0.964081	-7.445223E+12	5.763320E-15	NaN
270	1.000000	0.122617	7.3677e+06	-52139.1	955.818	-29750.4	0.000000	0.000000	6.122787	0.022698	NaN	0.000000	0.001761	0.001712	28.0801	0.113135	0.001947	58.1153	-25.1453	-163.282	-0.010105	0.121333	-0.930832	-0.932116	0.022698	58.1153	-0.931125	-2.675358E+12	-8.484148E-15	NaN
270	1.000000	0.162658	7.3677e+06	-52139.1	955.818	-29750.4	0.000000	0.000000	6.162826	-0.034255	NaN	0.000000	0.001768	0.001681	28.0801	0.082656	0.002082	39.6976	160.197	-165.337	0.027115	0.161291	-0.890791	-0.892158	-0.034255	39.6976	-0.890144	-7.479315E+11	4.579939E-14	NaN
270	1.000000	0.202622	7.3677e+06	-52139.1	955.818	-29750.4	0.000000	0.000000	6.202790	-0.056028	NaN	0.000000	0.001693	0.001739	28.0787	0.087889	0.002023	43.4537	-55.6369	-167.46	-0.070667	0.201319	-0.850827	-0.852130	-0.056028	43.4537	-0.849860	-2.132238E+11	2.627680E-13	NaN
270	1.000000	0.242671	7.3677e+06	-52139.1	955.818	-29750.4	0.000000	0.000000	6.242838	-0.053134	NaN	0.000000	0.001739	0.001727	28.0784	0.104040	0.001881	55.3108	-131.432	-163.65	-0.027810	0.241319	-0.810778	-0.812130	-0.053134	55.3108	-0.810058	-6.156761E+10	8.630211E-13	NaN
270	1.000000	0.282663	7.3677e+06	-52139.1	955.818	-29750.4	0.000000	0.000000	6.282831	-0.046871	NaN	0.000000	0.001739	0.001740	28.0785	0.075467	0.001960	38.4994	-161.359	-167.882	-0.099631	0.281376	-0.770786	-0.772072	-0.046871	38.4994	-0.769872	-1.752151E+10	2.675082E-12	NaN
270	1.000000	0.322722	7.3677e+06	-52139.1	955.819	-29750.4	0.000000	0.000000	6.322889	-0.075339	NaN	0.000000	0.001676	0.001720	28.0796	0.078682	0.001982	39.6978	44.5924	-166.611	0.010752	0.321378	-0.730727	-0.732071	-0.075339	39.6978	-0.729304	-4.912657E+9	1.533577E-11	NaN
270	1.000000	0.362693	7.3677e+06	-52139.1	955.819	-29750.4	0.000000	0.000000	6.362859	-0.089439	NaN	0.000000	0.001682	0.001733	28.0799	0.038380	0.001901	20.184	-56.7443	-166.439	-0.043934	0.361351	-0.690756	-0.692098	-0.089439	20.184	-0.687433	-1.317745E+9	6.787310E-11	NaN
270	1.000000	0.402739	7.3677e+06	-52139.1	955.818	-29750.4	0.000000	0.000000	6.402908	-0.028766	NaN	0.000000	0.001700	0.001661	28.0798	0.105307	0.002021	52.1095	-26.3022	-170.668	-0.108946	0.401433	-0.650709	-0.652016	-0.028766	52.1095	-0.650295	-4.087762E+8	7.037003E-11	NaN
270	1.000000	0.442731	7.3677e+06	-52139.1	955.818	-29750.4	0.000000	0.000000	6.442897	-0.073131	NaN	0.000000	0.001713	0.001722	28.0798	0.037701	0.001954	19.2912	40.1237	-167.833	-0.073841	0.441396	-0.610718	-0.612053	-0.073131	19.2912	-0.607875	-1.068746E+8	6.842649E-10	NaN
270	1.000000	0.482752	7.3677e+06	-52139.1	955.819	-29750.4	0.000000	0.000000	6.482920	-0.060542	NaN	0.000000	0.001681	0.001712	28.0784	0.059393	0.001955	30.3765	-47.3665	-165.514	-0.104614	0.481447	-0.570696	-0.572002	-0.060542	30.3765	-0.569202	-3.130399E+7	1.933996E-9	NaN
270	1.000000	0.522789	7.3677e+06	-52139.1	955.818	-29750.4	0.000000	0.000000	6.522957	-0.044846	NaN	0.000000	0.001673	0.001699	28.0784	0.088293	0.002005	44.0313	64.7877	-168.033	-0.066804	0.521513	-0.530659	-0.531936	-0.044846	44.0313	-0.529896	-8.93563e+06	5.018779E-9	NaN
270	1.000000	0.562789	7.3677e+06	-52139.1	955.819	-29750.4	0.000000	0.000000	6.562959	0.007513	NaN	0.000000	0.001681	0.001705	28.079	0.043429	0.002008	21.6233	-63.4832	-166.944	0.019941	0.561532	-0.490660	-0.491917	0.007513	21.6233	-0.490921	-2.56011e+06	-2.934746E-9	NaN
270	1.000000	0.602805	7.3677e+06	-52139.1	955.817	-29750.4	0.000000	0.000000	6.602973	-0.051806	NaN	0.000000	0.001679	0.001675	28.0798	0.053999	0.001934	27.9246	-122.401	-166.332	-0.117909	0.601524	-0.450643	-0.451925	-0.051806	27.9246	-0.449252	-666512	7.772780E-8	NaN
270	1.000000	0.642842	7.3677e+06	-52139.1	955.818	-29750.4	0.000000	0.000000	6.643008	-0.073604	NaN	0.000000	0.001670	0.001695	28.0802	0.100897	0.001928	52.3203	-130.671	-169.101	-0.024749	0.641510	-0.410607	-0.411938	-0.073604	52.3203	-0.409552	-182824	4.025959E-7	NaN
270	1.000000	0.682853	7.3677e+06	-52139.1	955.819	-29750.4	0.000000	0.000000	6.683021	-0.042911	NaN	0.000000	0.001669	0.001740	28.0803	0.083899	0.002066	40.6186	166.47	-169.003	-0.110858	0.681578	-0.370596	-0.371871	-0.042911	40.6186	-0.369804	-49351.3	8.695006E-7	NaN
270	1.000000	0.722864	7.3677e+06	-52139.1	955.818	-29750.4	0.000000	0.000000	6.723030	-0.092211	NaN	0.000000	0.001678	0.001741	28.0788	0.090754	0.002076	43.726	-30.8803	-164.751	-0.081044	0.721553	-0.330585	-0.331896	-0.092211	43.726	-0.329003	-12614	7.310205E-6	NaN
270	1.000000	0.762888	7.3677e+06	-52139.1	955.819	-29750.4	0.000000	0.000000	6.763052	-0.123598	NaN	0.000000	0.001698	0.001684	28.0787	0.053852	0.001989	27.0817	-29.5721	-166.05	-0.136812	0.761570	-0.290561	-0.291879	-0.123598	27.0817	-0.287138	-3022.64	4.089065E-5	NaN
270	1.000000	0.802893	7.3677e+06	-52139.1	955.818	-29750.4	0.000000	0.000000	6.803062	-0.013407	NaN	0.000000	0.001658	0.001710	28.0785	0.171490	0.001998	85.8162	-154.644	-168.793	0.003975	0.801613	-0.250556	-0.251836	-0.013407	85.8162	-0.250439	-835.125	1.605412E-5	NaN
270	1.000000	0.842905	7.3677e+06	-52139.1	955.818	-29750.4	0.000000	0.000000	6.843076	0.018475	NaN	0.000000	0.001678	0.001673	28.0786	0.072138	0.002092	34.4788	-98.8587	-166.091	0.060072	0.841576	-0.210544	-0.211873	0.018475	34.4788	-0.210945	-198.664	-9.299712E-5	NaN
270	1.000000	0.882913	7.3677e+06	-52139.1	955.819	-29750.4	0.000000	0.000000	6.883079	-0.086255	NaN	0.000000	0.001655	0.001722	28.0795	0.149177	0.002021	73.7995	7.709412	-165.774	-0.080083	0.881630	-0.170536	-0.171819	-0.086255	73.7995	-0.169659	-40.5223	0.002129	NaN
270	1.000000	0.922923	7.3677e+06	-52139.1	955.817	-29750.4	0.000000	0.000000	6.923091	-0.056926	NaN	0.000000	0.001648	0.001741	28.0796	0.032369	0.001970	16.4282	57.451	-165.582	-0.075464	0.921640	-0.130526	-0.131809	-0.056926	16.4282	-0.127927	-6.943679	0.008198	NaN
270	1.000000	0.962967	7.3677e+06	-52139.1	955.819	-29750.4	0.000000	0.000000	6.963134	-0.068980	NaN	0.000000	0.001612	0.001732	28.0799	0.049846	0.001913	26.0552	103.628	-166.849	-0.141331	0.961638	-0.090482	-0.091811	-0.068980	26.0552	-0.088496	-0.996271	0.069238	NaN
270	1.000000	1.002972	7.3677e+06	-52139.1	955.819	-29750.4	0.000000	0.000000	7.003141	-0.006947	NaN	0.000000	0.001652	0.001710	28.0784	0.123473	0.001928	64.0369	-69.2374	-162.325	0.000312	1.001652	-0.050477	-0.051797	-0.006947	64.0369	-0.050396	-0.093797	0.074061	NaN
270	1.000000	1.042996	7.3677e+06	-52139.1	955.819	-29750.4	0.000000	0.000000	7.043161	-0.093732	NaN	0.000000	0.001705	0.001719	28.0784	0.037947	0.001917	19.7977	10.4041	-163.863	-0.173048	1.041673	-0.010453	-0.011776	-0.093732	19.7977	-0.006902	-0.004582	20.4563	NaN
270	2.000000	1.067544	7.3677e+06	-52139.1	955.819	-29750.4	0.000000	0.000000	7.068385	16.3171	NaN	0.000000	0.001679	0.001686	28.0786	14.6199	0.001625	8998.28	4.797237	-176.429	15.2443	1.067293	0.014095	0.013844	16.3171	8998.28	0.012735	0.012383	1317.73	73879.6
270	2.000000	1.077511	7.3677e+06	-52139.1	955.82	-29750.4	0.000000	0.000000	7.079130	35.2429	NaN	0.000000	0.001777	0.001699	28.0787	24.7591	0.001819	13612.1	4.017919	-177.357	34.502	1.077177	0.024062	0.023728	35.2429	13612.1	0.022120	0.025984	1356.32	77151.5
270	2.000000	1.087478	7.3677e+06	-52139.1	955.819	-29750.4	0.000000	0.000000	7.090362	65.9939	NaN	0.000000	0.001760	0.001657	28.0802	35.2552	0.001897	18584.7	7.050171	176.439	64.5325	1.087258	0.034029	0.033809	65.9939	18584.7	0.031366	0.043622	1512.86	81297.5
270	2.000000	1.097474	7.3677e+06	-52139.1	955.819	-29750.4	0.000000	0.000000	7.101716	99.0155	NaN	0.000000	0.001724	0.001673	28.0799	45.4246	0.001813	25059.3	3.060300	178.137	98.9777	1.097101	0.044025	0.043652	99.0155	25059.3	0.041062	0.066801	1482.24	88582.7
270	2.000000	1.107424	7.3677e+06	-52139.1	955.819	-29750.4	0.000000	0.000000	7.113609	146.274	NaN	0.000000	0.001677	0.001704	28.08	54.4336	0.001719	31673.7	3.558068	176.693	145.703	1.106983	0.053975	0.053534	146.274	31673.7	0.050511	0.094001	1556.1	94385.8
270	2.000000	1.117411	7.3677e+06	-52139.1	955.82	-29750.4	0.000000	0.000000	7.125678	196.887	NaN	0.000000	0.001767	0.001699	28.0791	63.9078	0.001798	35547.1	3.733331	174.918	192.259	1.117119	0.063962	0.063670	196.887	35547.1	0.059808	0.125122	1573.56	91814.5
270	2.000000	1.127425	7.3677e+06	-52139.1	955.819	-29750.4	0.000000	0.000000	7.138131	256.191	NaN	0.000000	0.001728	0.001709	28.079	72.9826	0.001778	41051	0.023511	177.325	254.95	1.127161	0.073976	0.073712	256.191	41051	0.069295	0.161232	1588.96	93405.2
270	2.000000	1.137405	7.3677e+06	-52139.1	955.819	-29750.4	0.000000	0.000000	7.150825	322.193	NaN	0.000000	0.001641	0.001713	28.0793	83.1953	0.001789	46495.1	2.829550	173.661	321.246	1.137140	0.083956	0.083692	322.193	46495.1	0.078759	0.201530	1598.74	94626
270	2.000000	1.147436	7.3677e+06	-52139.1	955.818	-29750.4	0.000000	0.000000	7.163948	397.359	NaN	0.000000	0.001783	0.001706	28.0792	93.516	0.001737	53829.2	6.807388	169.1	397.512	1.147017	0.093988	0.093568	397.359	53829.2	0.088451	0.247140	1607.83	98928.1
270	2.000000	1.157430	7.3677e+06	-52139.1	955.818	-29750.4	0.000000	0.000000	7.177197	476.513	NaN	0.000000	0.001698	0.001760	28.08	103.478	0.001831	56505.6	3.516024	171.892	478.112	1.157021	0.103981	0.103572	476.513	56505.6	0.097656	0.294456	1618.28	95138.1
270	2.000000	1.160852	7.3677e+06	-52139.1	955.819	-29750.4	0.000000	0.000000	7.181996	509.996	NaN	0.000000	0.001699	0.001700	28.0797	107.466	0.001805	59536.5	3.748244	-9.350224	503.245	1.160510	0.107403	0.107061	509.996	59536.5	0.100978	0.312478	1632.1	97307.7