Folder: unikorn_login/remote_trans/data/nanoindenter/0828-1/data/Data_2025-08-06,11h17m57s (part 162)

File: 2025-07-22_16-23-58_1_341.txt
2025-07-22, 16:23:58, 1
Index	Phase	Displacement	Time	Pos X	Pos Y	Pos Z	Rot A	Rot B	Piezo Z	Force A	Force B	Gripper	Voltage A	Voltage B	Temperature	Amplitude force	Amplitude pos	Stiffness	Phase shift	Phase excitation	Force A raw	Displacement raw	HMax	HMax raw	Real Force	Real Stiffness	Contact Depth	Area	Hardness	Reduced Mod.
[#]	[#]	[um]	[s]	[um]	[um]	[um]	[m°]	[m°]	[um]	[uN]	[uN]	[V]	[V]	[V]	[°C]	[uN]	[um]	[N/m]	[°]	[°]	[uN]	[um]	[um]	[um]	[uN]	[N/m]	[um]	[um^2]	[MPa]	[MPa]
341	1.000000	0.002270	7.3684e+06	-55689.1	955.818	-29741.2	0.000000	0.000000	6.002807	-0.018891	NaN	0.000000	0.001539	0.001671	28.0787	0.108235	0.000960	112.769	-12.3607	-157.183	0.002418	0.000999	-1.095657	-1.096927	-0.018891	112.769	-1.095531	-4.365906E+14	4.326902E-17	NaN
341	1.000000	0.044222	7.3684e+06	-55689.1	955.82	-29741.2	0.000000	0.000000	6.044759	-0.015858	NaN	0.000000	0.001533	0.001675	28.0775	0.105497	0.002103	50.1735	82.81	15.6902	-0.056639	0.042849	-1.053704	-1.055078	-0.015858	50.1735	-1.053467	-1.188559E+14	1.334223E-16	NaN
341	1.000000	0.086206	7.3684e+06	-55689.1	955.819	-29741.2	0.000000	0.000000	6.086745	0.048872	NaN	0.000000	0.001513	0.001674	28.0776	0.127805	0.001925	66.3999	-57.5643	-165.541	0.026659	0.084922	-1.011721	-1.013004	0.048872	66.3999	-1.012273	-3.318727E+13	-1.472626E-15	NaN
341	1.000000	0.128203	7.3684e+06	-55689.1	955.818	-29741.2	0.000000	0.000000	6.128741	0.001531	NaN	0.000000	0.001599	0.001722	28.0775	0.057616	0.001955	29.4645	91.5977	15.8747	-0.039708	0.126853	-0.969723	-0.971073	0.001531	29.4645	-0.969762	-8.880845E+12	-1.724423E-16	NaN
341	1.000000	0.170263	7.3684e+06	-55689.1	955.819	-29741.2	0.000000	0.000000	6.170803	0.051071	NaN	0.000000	0.001552	0.001727	28.0787	0.132026	0.002041	64.6888	3.278472	-164.673	0.059467	0.168894	-0.927663	-0.929032	0.051071	64.6888	-0.928255	-2.447091E+12	-2.087020E-14	NaN
341	1.000000	0.212283	7.3684e+06	-55689.1	955.818	-29741.2	0.000000	0.000000	6.212820	-0.019614	NaN	0.000000	0.001546	0.001760	28.0787	0.028316	0.001980	14.3027	-132.772	14.9277	0.016678	0.210915	-0.885644	-0.887011	-0.019614	14.3027	-0.884615	-6.296725E+11	3.114961E-14	NaN
341	1.000000	0.254289	7.3684e+06	-55689.1	955.819	-29741.2	0.000000	0.000000	6.254827	-0.003393	NaN	0.000000	0.001540	0.001697	28.0782	0.078572	0.001974	39.8087	-37.8854	-165.998	0.005006	0.252972	-0.843637	-0.844954	-0.003393	39.8087	-0.843573	-1.752656E+11	1.936157E-14	NaN
341	1.000000	0.296330	7.3684e+06	-55689.1	955.818	-29741.2	0.000000	0.000000	6.296869	0.038025	NaN	0.000000	0.001522	0.001683	28.0774	0.094960	0.001947	48.7661	-37.9465	17.4972	0.066496	0.294984	-0.801597	-0.802943	0.038025	48.7661	-0.802181	-4.813617E+10	-7.899379E-13	NaN
341	1.000000	0.338315	7.3684e+06	-55689.1	955.819	-29741.2	0.000000	0.000000	6.338853	0.016276	NaN	0.000000	0.001547	0.001718	28.0777	0.044001	0.001842	23.8905	92.8151	-165.603	0.065567	0.336976	-0.759611	-0.760950	0.016276	23.8905	-0.760122	-1.291122E+10	-1.260575E-12	NaN
341	1.000000	0.380339	7.3684e+06	-55689.1	955.818	-29741.2	0.000000	0.000000	6.380872	-0.115315	NaN	0.000000	0.001478	0.001705	28.0777	0.130058	0.002057	63.2165	144.4	15.9935	-0.100895	0.379058	-0.717587	-0.718869	-0.115315	63.2165	-0.716219	-3.257662E+9	3.539806E-11	NaN
341	1.000000	0.422369	7.3684e+06	-55689.1	955.818	-29741.2	0.000000	0.000000	6.422907	0.001244	NaN	0.000000	0.001491	0.001698	28.0788	0.133833	0.002133	62.7482	143.571	-162.553	0.046578	0.421003	-0.675557	-0.676924	0.001244	62.7482	-0.675572	-9.070626E+8	-1.371990E-12	NaN
341	1.000000	0.464383	7.3684e+06	-55689.1	955.819	-29741.2	0.000000	0.000000	6.464921	0.005312	NaN	0.000000	0.001551	0.001706	28.0791	0.032618	0.002092	15.5926	-39.4278	12.2538	0.014880	0.463054	-0.633543	-0.634872	0.005312	15.5926	-0.633798	-2.427595E+8	-2.188020E-11	NaN
341	1.000000	0.506422	7.3684e+06	-55689.1	955.817	-29741.2	0.000000	0.000000	6.506959	-0.027290	NaN	0.000000	0.001527	0.001741	28.0792	0.107648	0.001893	56.8689	28.1646	-164.987	-0.027131	0.505094	-0.591504	-0.592833	-0.027290	56.8689	-0.591144	-6.286956E+7	4.340744E-10	NaN
341	1.000000	0.548416	7.3684e+06	-55689.1	955.819	-29741.2	0.000000	0.000000	6.548954	0.000306	NaN	0.000000	0.001474	0.001711	28.0792	0.102716	0.001967	52.2133	-32.7087	15.1082	0.061162	0.547046	-0.549510	-0.550881	0.000306	52.2133	-0.549515	-1.671991E+7	-1.827479E-11	NaN
341	1.000000	0.590441	7.3684e+06	-55689.1	955.819	-29741.2	0.000000	0.000000	6.590979	0.016903	NaN	0.000000	0.001518	0.001685	28.0778	0.104796	0.002069	50.6498	129.575	-164.4	0.000786	0.589134	-0.507486	-0.508792	0.016903	50.6498	-0.507736	-4.39416e+06	-3.846765E-9	NaN
341	1.000000	0.632469	7.3684e+06	-55689.1	955.817	-29741.2	0.000000	0.000000	6.633008	0.043342	NaN	0.000000	0.001504	0.001699	28.0777	0.042155	0.001987	21.2181	67.6307	12.6668	0.049281	0.631076	-0.465457	-0.466850	0.043342	21.2181	-0.466990	-1.18351e+06	-3.662182E-8	NaN
341	1.000000	0.674461	7.3684e+06	-55689.1	955.818	-29741.2	0.000000	0.000000	6.675002	0.076940	NaN	0.000000	0.001505	0.001691	28.0777	0.044569	0.002084	21.3891	-136.721	-164.275	0.043769	0.673167	-0.423465	-0.424759	0.076940	21.3891	-0.426163	-314599	-2.445664E-7	NaN
341	1.000000	0.716514	7.3684e+06	-55689.1	955.818	-29741.2	0.000000	0.000000	6.717056	0.103227	NaN	0.000000	0.001505	0.001720	28.0788	0.105484	0.002033	51.8915	-79.6994	14.2595	0.098504	0.715158	-0.381412	-0.382768	0.103227	51.8915	-0.382904	-76127.9	-1.355965E-6	NaN
341	1.000000	0.758509	7.3684e+06	-55689.1	955.817	-29741.2	0.000000	0.000000	6.759052	0.122407	NaN	0.000000	0.001536	0.001669	28.0787	0.131147	0.002024	64.7807	-84.373	-164.222	0.211585	0.757158	-0.339417	-0.340768	0.122407	64.7807	-0.340834	-18780.7	-6.517670E-6	NaN
341	1.000000	0.800529	7.3684e+06	-55689.1	955.819	-29741.2	0.000000	0.000000	6.801074	0.175958	NaN	0.000000	0.001529	0.001681	28.0786	0.083059	0.001894	43.855	-130.966	11.8601	0.191210	0.799181	-0.297398	-0.298746	0.175958	43.855	-0.300407	-4771.9	-3.687376E-5	NaN
341	1.000000	0.842571	7.3684e+06	-55689.1	955.818	-29741.2	0.000000	0.000000	6.843116	0.168246	NaN	0.000000	0.001539	0.001655	28.0774	0.142589	0.001963	72.6257	-177.868	-164.722	0.183642	0.841245	-0.255355	-0.256681	0.168246	72.6257	-0.257092	-1057.54	-0.000159	NaN
341	1.000000	0.884539	7.3684e+06	-55689.1	955.819	-29741.2	0.000000	0.000000	6.885081	0.096476	NaN	0.000000	0.001567	0.001777	28.0779	0.071811	0.001913	37.5328	37.2314	14.1413	0.156619	0.883160	-0.213387	-0.214766	0.096476	37.5328	-0.215315	-233.656	-0.000413	NaN
341	1.000000	0.926606	7.3684e+06	-55689.1	955.819	-29741.2	0.000000	0.000000	6.927152	0.210409	NaN	0.000000	0.001547	0.001708	28.0775	0.096050	0.001941	49.4732	-2.688679	-161.606	0.192647	0.925294	-0.171320	-0.172632	0.210409	49.4732	-0.174510	-49.154	-0.004281	NaN
341	1.000000	0.968600	7.3684e+06	-55689.1	955.819	-29741.2	0.000000	0.000000	6.969144	0.141842	NaN	0.000000	0.001518	0.001687	28.0787	0.063534	0.002071	30.6843	-23.7516	14.7634	0.088186	0.967263	-0.129326	-0.130663	0.141842	30.6843	-0.132793	-8.629747	-0.016436	NaN
341	1.000000	1.010626	7.3684e+06	-55689.1	955.818	-29741.2	0.000000	0.000000	7.011172	0.180999	NaN	0.000000	0.001488	0.001702	28.0787	0.040331	0.002094	19.2629	-170.404	-167.166	0.112785	1.009286	-0.087300	-0.088640	0.180999	19.2629	-0.094347	-1.363046	-0.132790	NaN
341	1.000000	1.052622	7.3684e+06	-55689.1	955.819	-29741.2	0.000000	0.000000	7.053171	0.274373	NaN	0.000000	0.001554	0.001731	28.0787	0.087964	0.001943	45.27	-106.616	17.4436	0.246813	1.051254	-0.045304	-0.046672	0.274373	45.27	-0.049850	-0.090302	-3.038380	NaN
341	1.000000	1.094649	7.3684e+06	-55689.1	955.818	-29741.2	0.000000	0.000000	7.095194	0.191938	NaN	0.000000	0.001508	0.001689	28.0792	0.035585	0.001912	18.6105	168.019	-166.454	0.239026	1.093377	-0.003278	-0.004549	0.191938	18.6105	-0.011013	-0.006965	-27.5564	NaN
341	2.000000	1.113782	7.3684e+06	-55689.1	955.818	-29741.2	0.000000	0.000000	7.115076	18.3905	NaN	0.000000	0.001579	0.001720	28.0772	16.51	0.001823	9054.78	4.452047	7.588328	17.8273	1.113438	0.015855	0.015511	18.3905	9054.78	0.014332	0.014405	1276.66	68927.6
341	2.000000	1.124226	7.3684e+06	-55689.1	955.819	-29741.2	0.000000	0.000000	7.126453	41.0836	NaN	0.000000	0.001581	0.001751	28.0775	27.3788	0.001805	15171.8	10.175	177.471	40.8277	1.123926	0.026299	0.025999	41.0836	15171.8	0.024268	0.029698	1383.39	80435.6
341	2.000000	1.134723	7.3684e+06	-55689.1	955.819	-29741.2	0.000000	0.000000	7.138172	70.7549	NaN	0.000000	0.001480	0.001715	28.0776	36.5031	0.001839	19850.1	2.172645	2.665671	69.6594	1.134432	0.036797	0.036506	70.7549	19850.1	0.034124	0.049725	1422.92	81329.7
341	2.000000	1.145202	7.3684e+06	-55689.1	955.819	-29741.2	0.000000	0.000000	7.150485	115.338	NaN	0.000000	0.001543	0.001735	28.0788	47.2229	0.001805	26156	5.659094	176.742	114.709	1.144835	0.047276	0.046909	115.338	26156	0.043969	0.074686	1544.31	87443.1
341	2.000000	1.155690	7.3684e+06	-55689.1	955.819	-29741.2	0.000000	0.000000	7.162685	156.97	NaN	0.000000	0.001558	0.001704	28.0786	55.9907	0.001774	31566.6	2.881668	-2.615365	154.827	1.155399	0.057763	0.057472	156.97	31566.6	0.054034	0.105288	1490.87	88881.6
341	2.000000	1.166193	7.3684e+06	-55689.1	955.82	-29741.2	0.000000	0.000000	7.175531	213.907	NaN	0.000000	0.001562	0.001697	28.0789	66.537	0.001856	35848.7	6.224102	174.8	213.123	1.165828	0.068267	0.067902	213.907	35848.7	0.063792	0.139755	1530.59	87611.9
341	2.000000	1.176702	7.3684e+06	-55689.1	955.82	-29741.2	0.000000	0.000000	7.188519	274.186	NaN	0.000000	0.001568	0.001686	28.0779	76.7724	0.001816	42281.4	7.475190	-9.145753	274.774	1.176349	0.078775	0.078423	274.186	42281.4	0.073912	0.180364	1520.18	90959.4
341	2.000000	1.187102	7.3684e+06	-55689.1	955.819	-29741.2	0.000000	0.000000	7.201685	341.418	NaN	0.000000	0.001549	0.001685	28.0775	84.5911	0.001760	48050.6	1.101968	176.265	338.63	1.186848	0.089176	0.088922	341.418	48050.6	0.083847	0.224932	1517.87	92565.1
341	2.000000	1.197617	7.3684e+06	-55689.1	955.819	-29741.2	0.000000	0.000000	7.214959	408.475	NaN	0.000000	0.001531	0.001747	28.0773	95.3713	0.001848	51603	4.480305	-7.687076	405.449	1.197317	0.099691	0.099390	408.475	51603	0.093754	0.273925	1491.19	90080.9
341	2.000000	1.204605	7.3684e+06	-55689.1	955.82	-29741.2	0.000000	0.000000	7.224311	465.944	NaN	0.000000	0.001563	0.001767	28.0773	99.714	0.001908	52256.7	3.736711	-6.114167	461.621	1.204228	0.106679	0.106302	465.944	52256.7	0.099991	0.307071	1517.38	86157.9

File: 2025-07-22_16-23-58_1_342.txt
2025-07-22, 16:23:58, 1
Index	Phase	Displacement	Time	Pos X	Pos Y	Pos Z	Rot A	Rot B	Piezo Z	Force A	Force B	Gripper	Voltage A	Voltage B	Temperature	Amplitude force	Amplitude pos	Stiffness	Phase shift	Phase excitation	Force A raw	Displacement raw	HMax	HMax raw	Real Force	Real Stiffness	Contact Depth	Area	Hardness	Reduced Mod.
[#]	[#]	[um]	[s]	[um]	[um]	[um]	[m°]	[m°]	[um]	[uN]	[uN]	[V]	[V]	[V]	[°C]	[uN]	[um]	[N/m]	[°]	[°]	[uN]	[um]	[um]	[um]	[uN]	[N/m]	[um]	[um^2]	[MPa]	[MPa]
342	1.000000	0.002557	7.36841e+06	-55739.1	955.818	-29741.1	0.000000	0.000000	6.002828	0.032227	NaN	0.000000	0.001562	0.001710	28.0798	0.069725	0.001080	64.5365	-11.7982	-161.957	0.015155	0.001244	-1.072650	-1.073963	0.032227	64.5365	-1.073025	-2.176836E+14	-1.480439E-16	NaN
342	1.000000	0.042466	7.36841e+06	-55739.1	955.818	-29741.1	0.000000	0.000000	6.042736	0.002456	NaN	0.000000	0.001544	0.001749	28.0794	0.088575	0.002085	42.4735	168.434	-166.385	0.021646	0.041188	-1.032741	-1.034019	0.002456	42.4735	-1.032785	-6.265173E+13	-3.919841E-17	NaN
342	1.000000	0.082482	7.36841e+06	-55739.1	955.818	-29741.1	0.000000	0.000000	6.082752	-0.008815	NaN	0.000000	0.001540	0.001725	28.08	0.029615	0.001931	15.3403	43.4971	-164.701	-0.024946	0.081159	-0.992724	-0.994048	-0.008815	15.3403	-0.992293	-1.786484E+13	4.934049E-16	NaN
342	1.000000	0.122511	7.36841e+06	-55739.1	955.818	-29741.1	0.000000	0.000000	6.122782	0.022158	NaN	0.000000	0.001550	0.001720	28.0809	0.076948	0.002088	36.8439	158.197	-163.505	-0.017483	0.121245	-0.952696	-0.953962	0.022158	36.8439	-0.953147	-5.302343E+12	-4.178908E-15	NaN
342	1.000000	0.162532	7.36841e+06	-55739.1	955.819	-29741.1	0.000000	0.000000	6.162803	0.030243	NaN	0.000000	0.001541	0.001696	28.081	0.038030	0.002000	19.0149	61.2993	-165.796	-0.038449	0.161196	-0.912675	-0.914011	0.030243	19.0149	-0.913868	-1.564608E+12	-1.932954E-14	NaN
342	1.000000	0.202544	7.36841e+06	-55739.1	955.818	-29741.1	0.000000	0.000000	6.202815	0.016215	NaN	0.000000	0.001504	0.001667	28.081	0.083921	0.001815	46.233	-166.094	-160.797	0.038424	0.201191	-0.872663	-0.874016	0.016215	46.233	-0.872926	-4.375526E+11	-3.705953E-14	NaN
342	1.000000	0.242560	7.36841e+06	-55739.1	955.818	-29741.1	0.000000	0.000000	6.242831	0.028497	NaN	0.000000	0.001524	0.001749	28.0809	0.090135	0.001981	45.5085	23.6756	-164.091	0.072488	0.241218	-0.832647	-0.833989	0.028497	45.5085	-0.833117	-1.264807E+11	-2.253062E-13	NaN
342	1.000000	0.282557	7.36841e+06	-55739.1	955.818	-29741.1	0.000000	0.000000	6.282828	0.040122	NaN	0.000000	0.001548	0.001699	28.0797	0.059201	0.002132	27.7721	51.0754	-167.935	-0.042878	0.281246	-0.792650	-0.793960	0.040122	27.7721	-0.793734	-3.696484E+10	-1.085405E-12	NaN
342	1.000000	0.322610	7.36841e+06	-55739.1	955.819	-29741.1	0.000000	0.000000	6.322880	-0.001960	NaN	0.000000	0.001541	0.001652	28.0801	0.111221	0.002065	53.8645	159.495	-165.339	0.015301	0.321238	-0.752597	-0.753969	-0.001960	53.8645	-0.752569	-1.019040E+10	1.923748E-13	NaN
342	1.000000	0.362606	7.36841e+06	-55739.1	955.818	-29741.1	0.000000	0.000000	6.362876	-0.011263	NaN	0.000000	0.001555	0.001703	28.0801	0.028783	0.002098	13.7198	-22.5458	-163.97	0.046320	0.361227	-0.712601	-0.713980	-0.011263	13.7198	-0.711985	-2.851908E+9	3.949410E-12	NaN
342	1.000000	0.402643	7.36841e+06	-55739.1	955.818	-29741.1	0.000000	0.000000	6.402912	-0.023726	NaN	0.000000	0.001543	0.001731	28.0814	0.041371	0.001908	21.6823	54.373	-161.933	0.019619	0.401313	-0.672564	-0.673894	-0.023726	21.6823	-0.671743	-8.039805E+8	2.951081E-11	NaN
342	1.000000	0.442651	7.36841e+06	-55739.1	955.818	-29741.1	0.000000	0.000000	6.442920	-0.014375	NaN	0.000000	0.001562	0.001691	28.0808	0.053642	0.001947	27.5551	-1.433563	-166.055	-0.005769	0.441353	-0.632556	-0.633854	-0.014375	27.5551	-0.632165	-2.305413E+8	6.235486E-11	NaN
342	1.000000	0.482643	7.36841e+06	-55739.1	955.818	-29741.1	0.000000	0.000000	6.482915	0.048530	NaN	0.000000	0.001548	0.001708	28.081	0.045129	0.002076	21.7352	-68.6776	-166.611	0.016301	0.481377	-0.592564	-0.593830	0.048530	21.7352	-0.594239	-6.935736E+7	-6.997043E-10	NaN
342	1.000000	0.522657	7.36841e+06	-55739.1	955.818	-29741.1	0.000000	0.000000	6.522931	0.076233	NaN	0.000000	0.001513	0.001683	28.081	0.139023	0.002115	65.7391	-156.214	-166.292	0.058885	0.521372	-0.552549	-0.553835	0.076233	65.7391	-0.553419	-1.893671E+7	-4.025671E-9	NaN
342	1.000000	0.562706	7.36841e+06	-55739.1	955.819	-29741.1	0.000000	0.000000	6.562978	0.043495	NaN	0.000000	0.001529	0.001703	28.0798	0.121189	0.002136	56.7265	8.619454	-163.626	0.023003	0.561373	-0.512501	-0.513834	0.043495	56.7265	-0.513076	-5.21496e+06	-8.340505E-9	NaN
342	1.000000	0.602706	7.36841e+06	-55739.1	955.818	-29741.1	0.000000	0.000000	6.602975	-0.026803	NaN	0.000000	0.001636	0.001738	28.0795	0.117280	0.002155	54.4292	-106.746	-166.364	-0.051345	0.601368	-0.472501	-0.473839	-0.026803	54.4292	-0.472132	-1.39733e+06	1.918142E-8	NaN
342	1.000000	0.642764	7.36841e+06	-55739.1	955.818	-29741.1	0.000000	0.000000	6.643034	-0.002145	NaN	0.000000	0.001563	0.001675	28.0797	0.062972	0.002102	29.9576	93.8313	-165.462	-0.025486	0.641434	-0.432443	-0.433773	-0.002145	29.9576	-0.432389	-385345	5.566716E-9	NaN
342	1.000000	0.682746	7.36841e+06	-55739.1	955.819	-29741.1	0.000000	0.000000	6.683016	-0.007593	NaN	0.000000	0.001597	0.001683	28.081	0.048227	0.001893	25.4829	85.7459	-165.285	0.076825	0.681417	-0.392461	-0.393790	-0.007593	25.4829	-0.392237	-103552	7.332850E-8	NaN
342	1.000000	0.722771	7.36841e+06	-55739.1	955.818	-29741.1	0.000000	0.000000	6.723038	-0.080575	NaN	0.000000	0.001597	0.001662	28.0809	0.015661	0.002148	7.290152	2.865010	-163.33	-0.045967	0.721415	-0.352436	-0.353792	-0.080575	7.290152	-0.344146	-20986.3	3.839392E-6	NaN
342	1.000000	0.762777	7.36841e+06	-55739.1	955.818	-29741.1	0.000000	0.000000	6.763046	-0.030683	NaN	0.000000	0.001552	0.001691	28.081	0.076254	0.001936	39.3909	-45.8675	-164.374	-0.012957	0.761494	-0.312430	-0.313713	-0.030683	39.3909	-0.311846	-7052.73	4.350464E-6	NaN
342	1.000000	0.802790	7.36841e+06	-55739.1	955.819	-29741.1	0.000000	0.000000	6.803061	0.020867	NaN	0.000000	0.001604	0.001665	28.0803	0.064052	0.002081	30.7836	108.487	-167.516	-0.046100	0.801471	-0.272417	-0.273736	0.020867	30.7836	-0.272925	-1844.84	-1.131119E-5	NaN
342	1.000000	0.842818	7.36841e+06	-55739.1	955.819	-29741.1	0.000000	0.000000	6.843089	0.023724	NaN	0.000000	0.001596	0.001676	28.0802	0.015061	0.001928	7.813677	165.422	-164.926	0.007850	0.841514	-0.232389	-0.233693	0.023724	7.813677	-0.234667	-474.254	-5.002364E-5	NaN
342	1.000000	0.882838	7.36841e+06	-55739.1	955.818	-29741.1	0.000000	0.000000	6.883109	0.033315	NaN	0.000000	0.001614	0.001690	28.0803	0.143198	0.001968	72.7487	-169.101	-162.42	0.026240	0.881539	-0.192369	-0.193668	0.033315	72.7487	-0.192713	-99.8257	-0.000334	NaN
342	1.000000	0.922836	7.36841e+06	-55739.1	955.818	-29741.1	0.000000	0.000000	6.923105	-0.026817	NaN	0.000000	0.001610	0.001650	28.0802	0.126548	0.001977	64.026	-82.429	-166.839	-0.008535	0.921565	-0.152371	-0.153642	-0.026817	64.026	-0.152057	-19.7432	0.001358	NaN
342	1.000000	0.962827	7.36841e+06	-55739.1	955.818	-29741.1	0.000000	0.000000	6.963093	-0.091482	NaN	0.000000	0.001560	0.001664	28.0814	0.093967	0.002138	43.9533	-7.039032	-164.319	0.047496	0.961576	-0.112380	-0.113631	-0.091482	43.9533	-0.110819	-3.126839	0.029257	NaN
342	1.000000	1.002862	7.36841e+06	-55739.1	955.819	-29741.1	0.000000	0.000000	7.003131	-0.024797	NaN	0.000000	0.001554	0.001680	28.0814	0.064998	0.002075	31.3227	21.0792	-163.657	-0.133067	1.001598	-0.072345	-0.073609	-0.024797	31.3227	-0.071751	-0.379769	0.065296	NaN
342	1.000000	1.042880	7.36841e+06	-55739.1	955.819	-29741.1	0.000000	0.000000	7.043146	-0.108549	NaN	0.000000	0.001620	0.001693	28.0812	0.060754	0.001913	31.7516	35.7165	-163.661	-0.040635	1.041603	-0.032327	-0.033604	-0.108549	31.7516	-0.029763	-0.022666	4.789179	NaN
342	1.000000	1.082849	7.36841e+06	-55739.1	955.819	-29741.1	0.000000	0.000000	7.083418	7.257480	NaN	0.000000	0.001592	0.001705	28.0799	6.704648	0.001663	4030.84	8.168548	-170.836	5.303710	1.081540	0.007642	0.006333	7.257480	4030.84	0.006292	0.005343	1358.2	50380
342	2.000000	1.094301	7.36841e+06	-55739.1	955.819	-29741.1	0.000000	0.000000	7.095748	28.6053	NaN	0.000000	0.001635	0.001700	28.0803	20.3824	0.001755	11612.6	6.265386	-179.071	27.2227	1.094041	0.019094	0.018834	28.6053	11612.6	0.017247	0.018399	1554.68	78216.7
342	2.000000	1.104274	7.36841e+06	-55739.1	955.819	-29741.1	0.000000	0.000000	7.106718	52.825	NaN	0.000000	0.001560	0.001705	28.0799	29.0895	0.001657	17550.4	1.301980	-177.564	50.8821	1.104078	0.029068	0.028871	52.825	17550.4	0.026810	0.034391	1536.01	86464.2
342	2.000000	1.114279	7.36841e+06	-55739.1	955.82	-29741.1	0.000000	0.000000	7.118029	84.5981	NaN	0.000000	0.001590	0.001701	28.08	41.4852	0.001916	21657.1	8.626103	174.613	85.1128	1.114005	0.039072	0.038798	84.5981	21657.1	0.036142	0.054439	1553.99	84804.2
342	2.000000	1.124227	7.36841e+06	-55739.1	955.819	-29741.1	0.000000	0.000000	7.129672	125.792	NaN	0.000000	0.001550	0.001687	28.0814	49.529	0.001811	27348.6	-0.714466	-179.059	122.838	1.124049	0.049020	0.048842	125.792	27348.6	0.045570	0.079214	1588	88778.3
342	2.000000	1.134260	7.36841e+06	-55739.1	955.82	-29741.1	0.000000	0.000000	7.141984	181.18	NaN	0.000000	0.001604	0.001746	28.0816	59.7888	0.001643	36398.6	6.444465	171.716	182.864	1.133969	0.059054	0.058762	181.18	36398.6	0.055320	0.109564	1653.64	100467
342	2.000000	1.144230	7.36841e+06	-55739.1	955.819	-29741.1	0.000000	0.000000	7.154451	241.881	NaN	0.000000	0.001593	0.001760	28.0813	69.817	0.001743	40056.5	2.145637	175.572	240.622	1.143977	0.069023	0.068770	241.881	40056.5	0.064495	0.142417	1698.4	96976.3
342	2.000000	1.154234	7.36841e+06	-55739.1	955.818	-29741.1	0.000000	0.000000	7.167206	308.754	NaN	0.000000	0.001592	0.001741	28.0801	79.6834	0.001776	44861.4	2.918643	173.983	308.132	1.153916	0.079027	0.078709	308.754	44861.4	0.073865	0.180165	1713.73	96563
342	2.000000	1.164279	7.36841e+06	-55739.1	955.819	-29741.1	0.000000	0.000000	7.179693	368.112	NaN	0.000000	0.001575	0.001742	28.0799	89.4421	0.001846	48447.1	6.706201	169.665	369.19	1.164062	0.089072	0.088855	368.112	48447.1	0.083373	0.222703	1652.93	93794.7
342	2.000000	1.174126	7.36841e+06	-55739.1	955.819	-29741.1	0.000000	0.000000	7.192747	446.08	NaN	0.000000	0.001578	0.001769	28.0799	97.2169	0.001748	55624.1	1.672930	173.732	440.884	1.173928	0.098919	0.098721	446.08	55624.1	0.092904	0.269544	1654.94	97886.2
342	2.000000	1.183237	7.36841e+06	-55739.1	955.82	-29741.1	0.000000	0.000000	7.205303	529.801	NaN	0.000000	0.001592	0.001696	28.0799	106.728	0.001652	64601	5.805228	169.255	533.027	1.182851	0.108030	0.107644	529.801	64601	0.101879	0.317455	1668.9	104754