Folder: unikorn_login/remote_trans/data/nanoindenter/0828-1/data/Data_2025-08-06,11h17m57s (part 69)

File: 2025-07-22_16-23-58_1_155.txt
2025-07-22, 16:23:58, 1
Index	Phase	Displacement	Time	Pos X	Pos Y	Pos Z	Rot A	Rot B	Piezo Z	Force A	Force B	Gripper	Voltage A	Voltage B	Temperature	Amplitude force	Amplitude pos	Stiffness	Phase shift	Phase excitation	Force A raw	Displacement raw	HMax	HMax raw	Real Force	Real Stiffness	Contact Depth	Area	Hardness	Reduced Mod.
[#]	[#]	[um]	[s]	[um]	[um]	[um]	[m°]	[m°]	[um]	[uN]	[uN]	[V]	[V]	[V]	[°C]	[uN]	[um]	[N/m]	[°]	[°]	[uN]	[um]	[um]	[um]	[uN]	[N/m]	[um]	[um^2]	[MPa]	[MPa]
155	1.000000	0.002308	7.36656e+06	-46389.1	955.818	-29769.8	0.000000	0.000000	6.002811	-0.026888	NaN	0.000000	0.001648	0.001681	28.1192	0.044298	0.000863	51.3223	137.877	-162.305	-0.031026	0.001020	-1.093739	-1.095028	-0.026888	51.3223	-1.093346	-4.080767E+14	6.589005E-17	NaN
155	1.000000	0.044218	7.36656e+06	-46389.1	955.818	-29769.8	0.000000	0.000000	6.044723	0.015978	NaN	0.000000	0.001673	0.001632	28.1245	0.050734	0.001983	25.5848	19.47	14.2435	0.042062	0.042965	-1.051830	-1.053083	0.015978	25.5848	-1.052298	-1.146322E+14	-1.393831E-16	NaN
155	1.000000	0.086267	7.36656e+06	-46389.1	955.817	-29769.8	0.000000	0.000000	6.086769	-0.045015	NaN	0.000000	0.001649	0.001650	28.085	0.081032	0.001899	42.6793	-60.7449	-165.57	-0.078306	0.084985	-1.009781	-1.011063	-0.045015	42.6793	-1.008990	-2.997687E+13	1.501644E-15	NaN
155	1.000000	0.128274	7.36656e+06	-46389.1	955.817	-29769.8	0.000000	0.000000	6.128779	0.018951	NaN	0.000000	0.001642	0.001659	28.0834	0.039274	0.001951	20.1332	-145.745	15.4565	0.050873	0.126891	-0.967773	-0.969156	0.018951	20.1332	-0.968479	-8.534313E+12	-2.220526E-15	NaN
155	1.000000	0.170281	7.36656e+06	-46389.1	955.818	-29769.8	0.000000	0.000000	6.170786	0.011786	NaN	0.000000	0.001632	0.001672	28.1179	0.026732	0.001961	13.6324	-39.2803	-163.306	0.086792	0.168967	-0.925766	-0.927081	0.011786	13.6324	-0.926415	-2.311027E+12	-5.099867E-15	NaN
155	1.000000	0.212311	7.36656e+06	-46389.1	955.818	-29769.8	0.000000	0.000000	6.212814	-0.034242	NaN	0.000000	0.001653	0.001636	28.124	0.016337	0.001947	8.391649	23.2825	11.8149	-0.051246	0.210952	-0.883737	-0.885095	-0.034242	8.391649	-0.880676	-5.570004E+11	6.147659E-14	NaN
155	1.000000	0.254353	7.36656e+06	-46389.1	955.819	-29769.8	0.000000	0.000000	6.254857	0.004712	NaN	0.000000	0.001599	0.001658	28.0857	0.080508	0.002162	37.2382	104.486	-166.292	0.071944	0.253083	-0.841695	-0.842964	0.004712	37.2382	-0.841790	-1.657819E+11	-2.842500E-14	NaN
155	1.000000	0.296373	7.36656e+06	-46389.1	955.818	-29769.8	0.000000	0.000000	6.296876	-0.025691	NaN	0.000000	0.001596	0.001649	28.0845	0.019257	0.002011	9.573851	39.8752	14.0334	-0.003558	0.295013	-0.799675	-0.801035	-0.025691	9.573851	-0.797662	-4.179522E+10	6.146927E-13	NaN
155	1.000000	0.338377	7.36656e+06	-46389.1	955.819	-29769.8	0.000000	0.000000	6.338881	-0.016662	NaN	0.000000	0.001683	0.001648	28.1174	0.075806	0.001969	38.5023	75.8852	-165.113	-0.074136	0.337034	-0.757670	-0.759014	-0.016662	38.5023	-0.757346	-1.183565E+10	1.407780E-12	NaN
155	1.000000	0.380380	7.36656e+06	-46389.1	955.818	-29769.8	0.000000	0.000000	6.380885	0.028331	NaN	0.000000	0.001672	0.001637	28.1263	0.018183	0.001964	9.255761	133.854	14.2037	0.054751	0.379006	-0.715668	-0.717041	0.028331	9.255761	-0.717963	-3.441070E+9	-8.233241E-12	NaN
155	1.000000	0.422395	7.36656e+06	-46389.1	955.818	-29769.8	0.000000	0.000000	6.422900	0.021074	NaN	0.000000	0.001608	0.001668	28.0846	0.029377	0.001940	15.1444	-41.0795	-164.479	0.011371	0.421119	-0.673652	-0.674928	0.021074	15.1444	-0.674696	-8.823752E+8	-2.388377E-11	NaN
155	1.000000	0.464412	7.36656e+06	-46389.1	955.819	-29769.8	0.000000	0.000000	6.464916	-0.012420	NaN	0.000000	0.001629	0.001657	28.0833	0.039432	0.002001	19.71	153.181	13.3985	-0.037699	0.463046	-0.631635	-0.633002	-0.012420	19.71	-0.631163	-2.233516E+8	5.560773E-11	NaN
155	1.000000	0.506443	7.36656e+06	-46389.1	955.819	-29769.8	0.000000	0.000000	6.506945	-0.048679	NaN	0.000000	0.001600	0.001652	28.1156	0.033597	0.001965	17.0992	-2.119592	-165.866	-0.023212	0.505097	-0.589605	-0.590950	-0.048679	17.0992	-0.587470	-5.594673E+7	8.700986E-10	NaN
155	1.000000	0.548462	7.36656e+06	-46389.1	955.818	-29769.8	0.000000	0.000000	6.548966	0.011407	NaN	0.000000	0.001602	0.001716	28.1266	0.095435	0.001995	47.8408	-87.3522	14.1329	0.031813	0.547064	-0.547586	-0.548984	0.011407	47.8408	-0.547765	-1.581217E+7	-7.214233E-10	NaN
155	1.000000	0.590466	7.36656e+06	-46389.1	955.817	-29769.8	0.000000	0.000000	6.590971	0.016103	NaN	0.000000	0.001642	0.001661	28.0859	0.090094	0.001968	45.7751	-38.8631	-165.538	-0.017646	0.589174	-0.505581	-0.506874	0.016103	45.7751	-0.505845	-4.13549e+06	-3.893780E-9	NaN
155	1.000000	0.632514	7.36656e+06	-46389.1	955.819	-29769.8	0.000000	0.000000	6.633016	-0.054755	NaN	0.000000	0.001653	0.001666	28.0829	0.062740	0.001994	31.463	65.231	12.3532	-0.045187	0.631157	-0.463533	-0.464890	-0.054755	31.463	-0.462228	-1.01466e+06	5.396400E-8	NaN
155	1.000000	0.674492	7.36656e+06	-46389.1	955.819	-29769.8	0.000000	0.000000	6.674998	0.048971	NaN	0.000000	0.001617	0.001676	28.1146	0.042310	0.002122	19.9433	142.371	-165.968	0.026815	0.673160	-0.421556	-0.422888	0.048971	19.9433	-0.423397	-287458	-1.703596E-7	NaN
155	1.000000	0.716567	7.36656e+06	-46389.1	955.819	-29769.8	0.000000	0.000000	6.717070	-0.032440	NaN	0.000000	0.001718	0.001719	28.1251	0.120425	0.002135	56.4173	19.2067	13.5325	0.011152	0.715146	-0.379480	-0.380901	-0.032440	56.4173	-0.379049	-67025.1	4.840010E-7	NaN
155	1.000000	0.758583	7.36656e+06	-46389.1	955.818	-29769.8	0.000000	0.000000	6.759085	-0.052710	NaN	0.000000	0.001739	0.001682	28.0865	0.163546	0.001980	82.5846	-59.4476	-168.754	-0.161604	0.757225	-0.337464	-0.338823	-0.052710	82.5846	-0.336986	-16503.9	3.193810E-6	NaN
155	1.000000	0.800570	7.36656e+06	-46389.1	955.818	-29769.8	0.000000	0.000000	6.801075	0.026435	NaN	0.000000	0.001676	0.001662	28.0831	0.076105	0.001918	39.6854	101.488	14.9028	0.006120	0.799237	-0.295477	-0.296811	0.026435	39.6854	-0.295977	-4098.97	-6.449114E-6	NaN
155	1.000000	0.842604	7.36656e+06	-46389.1	955.817	-29769.8	0.000000	0.000000	6.843107	-0.021492	NaN	0.000000	0.001646	0.001658	28.1158	0.100568	0.002046	49.1478	168.143	-168.04	-0.035805	0.841277	-0.253444	-0.254771	-0.021492	49.1478	-0.253116	-918.509	2.339855E-5	NaN
155	1.000000	0.884588	7.36656e+06	-46389.1	955.819	-29769.8	0.000000	0.000000	6.885090	-0.061719	NaN	0.000000	0.001618	0.001663	28.1269	0.072412	0.001978	36.616	169.138	9.067684	-0.026259	0.883200	-0.211459	-0.212847	-0.061719	36.616	-0.210195	-193.188	0.000319	NaN
155	1.000000	0.926621	7.36656e+06	-46389.1	955.819	-29769.8	0.000000	0.000000	6.927121	-0.101285	NaN	0.000000	0.001614	0.001655	28.0877	0.057736	0.002101	27.486	-118.094	-167.041	-0.078532	0.925308	-0.169427	-0.170739	-0.101285	27.486	-0.166663	-35.9295	0.002819	NaN
155	1.000000	0.968614	7.36656e+06	-46389.1	955.818	-29769.8	0.000000	0.000000	6.969119	0.029356	NaN	0.000000	0.001599	0.001641	28.0814	0.095072	0.001971	48.2398	115.96	13.7579	-0.053238	0.967267	-0.127434	-0.128780	0.029356	48.2398	-0.127890	-6.932261	-0.004235	NaN
155	1.000000	1.010636	7.36656e+06	-46389.1	955.818	-29769.8	0.000000	0.000000	7.011135	-0.109987	NaN	0.000000	0.001638	0.001636	28.1133	0.095291	0.002242	42.5022	92.1149	-169.618	-0.102867	1.009351	-0.085412	-0.086696	-0.109987	42.5022	-0.083471	-0.754209	0.145832	NaN
155	1.000000	1.052657	7.36656e+06	-46389.1	955.817	-29769.8	0.000000	0.000000	7.053158	-0.091003	NaN	0.000000	0.001628	0.001613	28.1257	0.158612	0.002026	78.301	-129.817	13.5392	-0.104288	1.051272	-0.043390	-0.044775	-0.091003	78.301	-0.042518	-0.053964	1.686354	NaN
155	1.000000	1.094687	7.36656e+06	-46389.1	955.818	-29769.8	0.000000	0.000000	7.095188	-0.085672	NaN	0.000000	0.001652	0.001623	28.0878	0.057241	0.002045	27.9886	-89.9922	-166.288	-0.072672	1.093369	-0.001360	-0.002678	-0.085672	27.9886	0.000935	0.000712	-120.356	958.452
155	2.000000	1.113633	7.36656e+06	-46389.1	955.818	-29769.8	0.000000	0.000000	7.115104	23.5234	NaN	0.000000	0.001694	0.001633	28.0821	16.9857	0.001765	9622.39	4.711292	3.576131	21.3326	1.113278	0.017585	0.017231	23.5234	9622.39	0.015752	0.016301	1443.05	68856.8
155	2.000000	1.124129	7.36656e+06	-46389.1	955.818	-29769.8	0.000000	0.000000	7.126612	48.1362	NaN	0.000000	0.001671	0.001670	28.1137	27.0738	0.001866	14506.7	3.878806	-177.031	47.8799	1.123819	0.028081	0.027772	48.1362	14506.7	0.025593	0.032103	1499.45	73972.6
155	2.000000	1.134596	7.36656e+06	-46389.1	955.817	-29769.8	0.000000	0.000000	7.138522	83.2446	NaN	0.000000	0.001676	0.001623	28.1267	35.3972	0.001806	19598.9	1.500737	2.321626	81.6753	1.134270	0.038548	0.038222	83.2446	19598.9	0.035363	0.052594	1582.77	78079.3
155	2.000000	1.145055	7.36656e+06	-46389.1	955.818	-29769.8	0.000000	0.000000	7.150465	119.335	NaN	0.000000	0.001712	0.001631	28.0877	46.5089	0.001788	26011.3	5.363669	175.828	118.61	1.144788	0.049008	0.048740	119.335	26011.3	0.045567	0.079204	1506.67	84442.6
155	2.000000	1.155612	7.36656e+06	-46389.1	955.818	-29769.8	0.000000	0.000000	7.163006	167.602	NaN	0.000000	0.001719	0.001631	28.0805	55.3433	0.001718	32205.3	3.753686	-4.416607	166.628	1.155236	0.059565	0.059189	167.602	32205.3	0.055661	0.110712	1513.85	88430.8
155	2.000000	1.166121	7.36656e+06	-46389.1	955.82	-29769.8	0.000000	0.000000	7.175963	227.13	NaN	0.000000	0.001669	0.001646	28.1124	66.5517	0.001781	37367.9	5.251490	173.575	227.052	1.165758	0.070074	0.069711	227.13	37367.9	0.065515	0.146324	1552.24	89251.2
155	2.000000	1.176508	7.36656e+06	-46389.1	955.818	-29769.8	0.000000	0.000000	7.188758	285.718	NaN	0.000000	0.001635	0.001665	28.1278	74.9549	0.001733	43261.5	3.783006	-6.310083	281.706	1.176188	0.080461	0.080140	285.718	43261.5	0.075507	0.187209	1526.19	91350.5
155	2.000000	1.187030	7.36656e+06	-46389.1	955.818	-29769.8	0.000000	0.000000	7.202367	360.808	NaN	0.000000	0.001615	0.001589	28.0905	86.0059	0.001772	48523.7	5.165709	170.615	360.101	1.186794	0.090982	0.090747	360.808	48523.7	0.085405	0.232339	1552.94	91974.2
155	2.000000	1.197439	7.36656e+06	-46389.1	955.818	-29769.8	0.000000	0.000000	7.215882	436.371	NaN	0.000000	0.001626	0.001626	28.0819	94.0115	0.001808	51998.3	3.583748	-7.373691	430.674	1.197175	0.101391	0.101128	436.371	51998.3	0.095097	0.280913	1553.4	89634.7
155	2.000000	1.204485	7.36656e+06	-46389.1	955.819	-29769.8	0.000000	0.000000	7.225073	488.533	NaN	0.000000	0.001659	0.001684	28.1285	100.64	0.001862	54046.9	2.604221	-7.482268	482.14	1.204210	0.108438	0.108163	488.533	54046.9	0.101658	0.316231	1544.86	87809.4

File: 2025-07-22_16-23-58_1_156.txt
2025-07-22, 16:23:58, 1
Index	Phase	Displacement	Time	Pos X	Pos Y	Pos Z	Rot A	Rot B	Piezo Z	Force A	Force B	Gripper	Voltage A	Voltage B	Temperature	Amplitude force	Amplitude pos	Stiffness	Phase shift	Phase excitation	Force A raw	Displacement raw	HMax	HMax raw	Real Force	Real Stiffness	Contact Depth	Area	Hardness	Reduced Mod.
[#]	[#]	[um]	[s]	[um]	[um]	[um]	[m°]	[m°]	[um]	[uN]	[uN]	[V]	[V]	[V]	[°C]	[uN]	[um]	[N/m]	[°]	[°]	[uN]	[um]	[um]	[um]	[uN]	[N/m]	[um]	[um^2]	[MPa]	[MPa]
156	1.000000	0.002634	7.36657e+06	-46439.1	955.818	-29769.6	0.000000	0.000000	6.002805	0.036221	NaN	0.000000	0.001637	0.001657	28.109	0.060117	0.000883	68.0664	-122.173	-171.105	0.011375	0.001377	-1.094217	-1.095474	0.036221	68.0664	-1.094616	-4.244193E+14	-8.534191E-17	NaN
156	1.000000	0.044575	7.36657e+06	-46439.1	955.819	-29769.6	0.000000	0.000000	6.044742	-0.088622	NaN	0.000000	0.001672	0.001630	28.1295	0.018473	0.002072	8.915801	-166.551	12.8217	-0.103777	0.043234	-1.052276	-1.053617	-0.088622	8.915801	-1.044821	-9.094641E+13	9.744430E-16	NaN
156	1.000000	0.086618	7.36657e+06	-46439.1	955.819	-29769.6	0.000000	0.000000	6.086789	0.036900	NaN	0.000000	0.001668	0.001649	28.0904	0.147160	0.001993	73.8512	-139.555	-165.129	-0.094438	0.085277	-1.010233	-1.011574	0.036900	73.8512	-1.010608	-3.151828E+13	-1.170756E-15	NaN
156	1.000000	0.128602	7.36657e+06	-46439.1	955.818	-29769.6	0.000000	0.000000	6.128772	-0.008232	NaN	0.000000	0.001681	0.001621	28.0814	0.081216	0.001945	41.7613	110.18	14.0941	-0.020662	0.127326	-0.968249	-0.969525	-0.008232	41.7613	-0.968101	-8.434737E+12	9.759533E-16	NaN
156	1.000000	0.170643	7.36657e+06	-46439.1	955.819	-29769.6	0.000000	0.000000	6.170813	-0.002094	NaN	0.000000	0.001660	0.001658	28.1071	0.088140	0.001948	45.2564	86.2574	-163.786	-0.038620	0.169264	-0.926208	-0.927587	-0.002094	45.2564	-0.926174	-2.293766E+12	9.130626E-16	NaN
156	1.000000	0.212632	7.36657e+06	-46439.1	955.818	-29769.6	0.000000	0.000000	6.212799	-0.057256	NaN	0.000000	0.001739	0.001679	28.1305	0.088098	0.001909	46.1533	-156.085	15.8036	-0.102350	0.211273	-0.884219	-0.885578	-0.057256	46.1533	-0.883289	-6.042050E+11	9.476307E-14	NaN
156	1.000000	0.254650	7.36657e+06	-46439.1	955.818	-29769.6	0.000000	0.000000	6.254821	0.023897	NaN	0.000000	0.001729	0.001572	28.0928	0.055141	0.001916	28.7793	138.638	-163.007	0.043275	0.253333	-0.842201	-0.843519	0.023897	28.7793	-0.842824	-1.712161E+11	-1.395734E-13	NaN
156	1.000000	0.296685	7.36657e+06	-46439.1	955.819	-29769.6	0.000000	0.000000	6.296852	-0.065831	NaN	0.000000	0.001749	0.001645	28.0822	0.031961	0.001922	16.6272	-121.206	14.0416	-0.030638	0.295329	-0.800166	-0.801522	-0.065831	16.6272	-0.797196	-4.119091E+10	1.598200E-12	NaN
156	1.000000	0.338702	7.36657e+06	-46439.1	955.818	-29769.6	0.000000	0.000000	6.338869	-0.048917	NaN	0.000000	0.001683	0.001638	28.1064	0.029100	0.002032	14.3184	-128.877	-165.685	0.033323	0.337466	-0.758150	-0.759385	-0.048917	14.3184	-0.755587	-1.120116E+10	4.367095E-12	NaN
156	1.000000	0.380722	7.36657e+06	-46439.1	955.818	-29769.6	0.000000	0.000000	6.380890	-0.034046	NaN	0.000000	0.001729	0.001690	28.1294	0.104670	0.001944	53.8473	-162.882	14.7845	-0.048351	0.379350	-0.716129	-0.717501	-0.034046	53.8473	-0.715655	-3.200401E+9	1.063819E-11	NaN
156	1.000000	0.422759	7.36657e+06	-46439.1	955.819	-29769.6	0.000000	0.000000	6.422930	0.034970	NaN	0.000000	0.001666	0.001615	28.0927	0.078524	0.001988	39.5082	-110.093	-166.607	0.042755	0.421442	-0.674092	-0.675409	0.034970	39.5082	-0.674756	-8.840317E+8	-3.955738E-11	NaN
156	1.000000	0.464750	7.36657e+06	-46439.1	955.819	-29769.6	0.000000	0.000000	6.464920	0.010910	NaN	0.000000	0.001728	0.001614	28.0793	0.073379	0.002073	35.3936	-19.9681	15.5687	0.022257	0.463389	-0.632101	-0.633462	0.010910	35.3936	-0.632332	-2.317663E+8	-4.707371E-11	NaN
156	1.000000	0.506797	7.36657e+06	-46439.1	955.818	-29769.6	0.000000	0.000000	6.506964	-0.054540	NaN	0.000000	0.001639	0.001637	28.1056	0.132080	0.001912	69.0747	-53.5988	-162.379	-0.013496	0.505464	-0.590055	-0.591388	-0.054540	69.0747	-0.589462	-5.960118E+7	9.150813E-10	NaN
156	1.000000	0.548829	7.36657e+06	-46439.1	955.819	-29769.6	0.000000	0.000000	6.549001	0.048023	NaN	0.000000	0.001661	0.001659	28.1309	0.056482	0.002005	28.1715	66.9092	15.8972	0.026445	0.547471	-0.548022	-0.549380	0.048023	28.1715	-0.549300	-1.660604E+7	-2.891916E-9	NaN
156	1.000000	0.590817	7.36657e+06	-46439.1	955.818	-29769.6	0.000000	0.000000	6.590986	-0.019143	NaN	0.000000	0.001638	0.001626	28.0932	0.123380	0.002038	60.5364	-63.4573	-166.221	-0.155362	0.589529	-0.506034	-0.507323	-0.019143	60.5364	-0.505797	-4.12903e+06	4.636165E-9	NaN
156	1.000000	0.632869	7.36657e+06	-46439.1	955.818	-29769.6	0.000000	0.000000	6.633039	0.022078	NaN	0.000000	0.001703	0.001695	28.0802	0.031934	0.002068	15.4389	-171.52	13.3761	0.005903	0.631399	-0.463983	-0.465452	0.022078	15.4389	-0.465055	-1.11179e+06	-1.985794E-8	NaN
156	1.000000	0.674857	7.36657e+06	-46439.1	955.818	-29769.6	0.000000	0.000000	6.675028	0.020447	NaN	0.000000	0.001613	0.001696	28.104	0.069033	0.002011	34.3335	95.4583	-166.753	0.030972	0.673529	-0.421994	-0.423323	0.020447	34.3335	-0.422440	-278621	-7.338698E-8	NaN
156	1.000000	0.716872	7.36657e+06	-46439.1	955.817	-29769.6	0.000000	0.000000	6.717042	-0.005314	NaN	0.000000	0.001631	0.001726	28.1309	0.114715	0.001967	58.3257	170.895	14.7593	-0.005862	0.715521	-0.379979	-0.381330	-0.005314	58.3257	-0.379911	-68961.3	7.705900E-8	NaN
156	1.000000	0.758880	7.36657e+06	-46439.1	955.818	-29769.6	0.000000	0.000000	6.759046	-0.087806	NaN	0.000000	0.001645	0.001672	28.093	0.052641	0.002142	24.571	-76.4714	-164.702	-0.082979	0.757520	-0.337971	-0.339331	-0.087806	24.571	-0.335291	-15589.7	5.632286E-6	NaN
156	1.000000	0.800871	7.36657e+06	-46439.1	955.818	-29769.6	0.000000	0.000000	6.801039	-0.039969	NaN	0.000000	0.001615	0.001689	28.0814	0.059684	0.002050	29.1081	69.3056	15.8717	-0.064235	0.799564	-0.295980	-0.297287	-0.039969	29.1081	-0.294950	-3956.84	1.010134E-5	NaN
156	1.000000	0.842909	7.36657e+06	-46439.1	955.819	-29769.6	0.000000	0.000000	6.843079	-0.004404	NaN	0.000000	0.001610	0.001664	28.1035	0.116522	0.001963	59.3554	-80.4847	-166.709	-0.044375	0.841634	-0.253942	-0.255217	-0.004404	59.3554	-0.253886	-943.977	4.665766E-6	NaN
156	1.000000	0.884919	7.36657e+06	-46439.1	955.818	-29769.6	0.000000	0.000000	6.885088	-0.029677	NaN	0.000000	0.001602	0.001647	28.1316	0.038556	0.002083	18.5129	-84.6945	16.7744	-0.100273	0.883620	-0.211932	-0.213231	-0.029677	18.5129	-0.210730	-197.073	0.000151	NaN
156	1.000000	0.926960	7.36657e+06	-46439.1	955.819	-29769.6	0.000000	0.000000	6.927129	-0.003732	NaN	0.000000	0.001655	0.001698	28.0928	0.088293	0.001997	44.2232	140.777	-162.794	-0.070550	0.925611	-0.169891	-0.171240	-0.003732	44.2232	-0.169828	-40.7971	9.147139E-5	NaN
156	1.000000	0.968957	7.36657e+06	-46439.1	955.818	-29769.6	0.000000	0.000000	6.969129	0.048285	NaN	0.000000	0.001642	0.001694	28.0817	0.128423	0.002052	62.597	-151.418	14.2218	0.074583	0.967603	-0.127894	-0.129248	0.048285	62.597	-0.128472	-7.116295	-0.006785	NaN
156	1.000000	1.010948	7.36657e+06	-46439.1	955.819	-29769.6	0.000000	0.000000	7.011119	0.026786	NaN	0.000000	0.001641	0.001744	28.1018	0.044096	0.001872	23.5598	-24.9491	-167.655	0.032936	1.009642	-0.085903	-0.087209	0.026786	23.5598	-0.086756	-0.905597	-0.029578	NaN
156	1.000000	1.052985	7.36657e+06	-46439.1	955.819	-29769.6	0.000000	0.000000	7.053151	-0.095616	NaN	0.000000	0.001591	0.001690	28.1324	0.080818	0.002127	37.9937	71.9986	10.6079	-0.091102	1.051627	-0.043866	-0.045224	-0.095616	37.9937	-0.041979	-0.051955	1.840361	NaN
156	1.000000	1.095025	7.36657e+06	-46439.1	955.819	-29769.6	0.000000	0.000000	7.095197	0.051531	NaN	0.000000	0.001599	0.001658	28.0946	0.120139	0.001883	63.7879	13.1839	-163.123	0.007165	1.093664	-0.001826	-0.003187	0.051531	63.7879	-0.002432	-0.001737	-29.6709	NaN
156	2.000000	1.114040	7.36657e+06	-46439.1	955.819	-29769.6	0.000000	0.000000	7.114982	18.7774	NaN	0.000000	0.001625	0.001630	28.0816	15.5644	0.001904	8172.86	7.061631	7.427630	18.1421	1.113649	0.017189	0.016798	18.7774	8172.86	0.015466	0.015912	1180.07	59194.8
156	2.000000	1.124485	7.36657e+06	-46439.1	955.819	-29769.6	0.000000	0.000000	7.126275	39.4112	NaN	0.000000	0.001596	0.001670	28.1002	24.9244	0.001770	14080.3	6.654999	-178.771	37.9034	1.124168	0.027634	0.027317	39.4112	14080.3	0.025535	0.031996	1231.77	71918.4
156	2.000000	1.135000	7.36657e+06	-46439.1	955.819	-29769.6	0.000000	0.000000	7.137908	66.6135	NaN	0.000000	0.001546	0.001667	28.1316	35.9711	0.001742	20649.4	4.907360	-1.529678	65.065	1.134680	0.038149	0.037829	66.6135	20649.4	0.035730	0.053459	1246.08	81596.6
156	2.000000	1.145466	7.36657e+06	-46439.1	955.819	-29769.6	0.000000	0.000000	7.149957	105.12	NaN	0.000000	0.001617	0.001728	28.0941	45.1494	0.001742	25912.1	5.601844	176.939	104.815	1.145172	0.048615	0.048321	105.12	25912.1	0.045573	0.079221	1326.92	84111.7
156	2.000000	1.155952	7.36657e+06	-46439.1	955.819	-29769.6	0.000000	0.000000	7.162143	146.477	NaN	0.000000	0.001591	0.001733	28.0826	54.6341	0.001732	31550.5	6.178812	-5.717347	143.949	1.155675	0.059101	0.058823	146.477	31550.5	0.055619	0.110568	1324.77	86689.1
156	2.000000	1.166490	7.36657e+06	-46439.1	955.819	-29769.6	0.000000	0.000000	7.175140	206.298	NaN	0.000000	0.001627	0.001695	28.1005	63.3393	0.001732	36561.4	4.555216	176.897	205.996	1.165992	0.069638	0.069141	206.298	36561.4	0.065407	0.145906	1413.91	87449.9
156	2.000000	1.176906	7.36657e+06	-46439.1	955.82	-29769.6	0.000000	0.000000	7.187722	258.974	NaN	0.000000	0.001707	0.001676	28.1327	74.0222	0.001765	41928.2	4.736746	-5.881291	256.712	1.176577	0.080055	0.079726	258.974	41928.2	0.075423	0.186844	1386.05	88621.7
156	2.000000	1.187370	7.36657e+06	-46439.1	955.819	-29769.6	0.000000	0.000000	7.201051	328.668	NaN	0.000000	0.001713	0.001698	28.0942	82.9363	0.001744	47559.1	1.703466	175.488	323.829	1.187174	0.090519	0.090323	328.668	47559.1	0.085336	0.232007	1416.63	90210.4
156	2.000000	1.197866	7.36657e+06	-46439.1	955.82	-29769.6	0.000000	0.000000	7.214721	405.873	NaN	0.000000	0.001679	0.001692	28.0812	91.9019	0.001849	49702.9	7.782737	-9.997457	399.571	1.197433	0.101015	0.100582	405.873	49702.9	0.094890	0.279831	1450.42	85843.4
156	2.000000	1.204877	7.36657e+06	-46439.1	955.819	-29769.6	0.000000	0.000000	7.224008	461.226	NaN	0.000000	0.001646	0.001698	28.1305	99.8145	0.001799	55475.3	7.574440	-11.3401	456.7	1.204446	0.108026	0.107595	461.226	55475.3	0.101791	0.316964	1455.14	90026