Folder: unikorn_login/remote_trans/data/nanoindenter/0828-1/data/Data_2025-08-06,11h17m57s (part 94)

File: 2025-07-22_16-23-58_1_205.txt
2025-07-22, 16:23:58, 1
Index	Phase	Displacement	Time	Pos X	Pos Y	Pos Z	Rot A	Rot B	Piezo Z	Force A	Force B	Gripper	Voltage A	Voltage B	Temperature	Amplitude force	Amplitude pos	Stiffness	Phase shift	Phase excitation	Force A raw	Displacement raw	HMax	HMax raw	Real Force	Real Stiffness	Contact Depth	Area	Hardness	Reduced Mod.
[#]	[#]	[um]	[s]	[um]	[um]	[um]	[m°]	[m°]	[um]	[uN]	[uN]	[V]	[V]	[V]	[°C]	[uN]	[um]	[N/m]	[°]	[°]	[uN]	[um]	[um]	[um]	[uN]	[N/m]	[um]	[um^2]	[MPa]	[MPa]
205	1.000000	0.002262	7.36705e+06	-48889.1	955.819	-29760.6	0.000000	0.000000	6.002788	-0.016919	NaN	0.000000	0.001686	0.001727	28.0773	0.079926	0.001033	77.3473	-176.771	-168.997	-0.031027	0.001072	-1.734649	-1.735839	-0.016919	77.3473	-1.734485	-1.460375E+23	1.158534E-25	NaN
205	1.000000	0.060207	7.36705e+06	-48889.1	955.818	-29760.6	0.000000	0.000000	6.060735	0.034776	NaN	0.000000	0.001690	0.001712	28.0767	0.064866	0.002051	31.6306	103.684	16.4271	-0.067840	0.058913	-1.676704	-1.677999	0.034776	31.6306	-1.677529	-2.557913E+22	-1.359556E-24	NaN
205	1.000000	0.118263	7.36705e+06	-48889.1	955.819	-29760.6	0.000000	0.000000	6.118788	-0.025551	NaN	0.000000	0.001684	0.001707	28.077	0.110285	0.001944	56.7171	-14.8591	-164.398	-0.003379	0.116942	-1.618648	-1.619969	-0.025551	56.7171	-1.618310	-4.175701E+21	6.119076E-24	NaN
205	1.000000	0.176292	7.36705e+06	-48889.1	955.819	-29760.6	0.000000	0.000000	6.176815	-0.074992	NaN	0.000000	0.001704	0.001718	28.0786	0.043403	0.001995	21.7604	85.7859	16.3528	-0.148477	0.174905	-1.560619	-1.562006	-0.074992	21.7604	-1.558035	-6.590593E+20	1.137862E-22	NaN
205	1.000000	0.234302	7.36705e+06	-48889.1	955.82	-29760.6	0.000000	0.000000	6.234831	0.040431	NaN	0.000000	0.001664	0.001663	28.0782	0.017794	0.002104	8.455735	56.3392	-167.083	-0.031578	0.233007	-1.502609	-1.503904	0.040431	8.455735	-1.506195	-1.345283E+20	-3.005364E-22	NaN
205	1.000000	0.292308	7.36705e+06	-48889.1	955.818	-29760.6	0.000000	0.000000	6.292834	-0.007803	NaN	0.000000	0.001641	0.001706	28.077	0.045354	0.001924	23.5681	-100.037	14.0488	0.009748	0.290947	-1.444603	-1.445964	-0.007803	23.5681	-1.444355	-2.017931E+19	3.866773E-22	NaN
205	1.000000	0.350351	7.36705e+06	-48889.1	955.818	-29760.6	0.000000	0.000000	6.350878	0.008026	NaN	0.000000	0.001710	0.001705	28.0767	0.114994	0.002224	51.705	38.7231	-166.574	-0.019689	0.349054	-1.386561	-1.387857	0.008026	51.705	-1.386677	-3.433439E+18	-2.337547E-21	NaN
205	1.000000	0.408349	7.36705e+06	-48889.1	955.82	-29760.6	0.000000	0.000000	6.408874	-0.028819	NaN	0.000000	0.001638	0.001746	28.078	0.013521	0.002103	6.430771	-120.256	18.7021	-0.013498	0.407084	-1.328562	-1.329827	-0.028819	6.430771	-1.325201	-5.188904E+17	5.553907E-20	NaN
205	1.000000	0.466422	7.36705e+06	-48889.1	955.818	-29760.6	0.000000	0.000000	6.466948	-0.023284	NaN	0.000000	0.001656	0.001700	28.0781	0.074087	0.001952	37.9607	-65.6259	-164.816	0.011420	0.465105	-1.270489	-1.271807	-0.023284	37.9607	-1.270029	-9.501199E+16	2.450687E-19	NaN
205	1.000000	0.524435	7.36705e+06	-48889.1	955.819	-29760.6	0.000000	0.000000	6.524959	-0.057882	NaN	0.000000	0.001699	0.001674	28.0782	0.116945	0.001965	59.5254	76.3895	13.4148	-0.004727	0.523049	-1.212476	-1.213862	-0.057882	59.5254	-1.211747	-1.577706E+16	3.668769E-18	NaN
205	1.000000	0.582445	7.36705e+06	-48889.1	955.818	-29760.6	0.000000	0.000000	6.582970	-0.036669	NaN	0.000000	0.001697	0.001690	28.0768	0.020754	0.001983	10.4639	19.5242	-166.266	-0.002061	0.581130	-1.154466	-1.155781	-0.036669	10.4639	-1.151838	-2.485773E+15	1.475155E-17	NaN
205	1.000000	0.640494	7.36705e+06	-48889.1	955.818	-29760.6	0.000000	0.000000	6.641022	0.027894	NaN	0.000000	0.001707	0.001689	28.077	0.117596	0.001922	61.1728	-56.6476	11.2982	-0.006699	0.639147	-1.096417	-1.097764	0.027894	61.1728	-1.096759	-4.534852E+14	-6.151073E-17	NaN
205	1.000000	0.698484	7.36705e+06	-48889.1	955.818	-29760.6	0.000000	0.000000	6.699008	-0.068441	NaN	0.000000	0.001785	0.001733	28.0781	0.085697	0.002005	42.7339	44.8162	-167.02	0.053187	0.697170	-1.038427	-1.039741	-0.068441	42.7339	-1.037226	-7.188837E+13	9.520476E-16	NaN
205	1.000000	0.756511	7.36705e+06	-48889.1	955.819	-29760.6	0.000000	0.000000	6.757037	-0.015786	NaN	0.000000	0.001777	0.001648	28.0781	0.113615	0.001914	59.3505	90.5989	14.4794	-0.007028	0.755131	-0.980400	-0.981781	-0.015786	59.3505	-0.980201	-1.227761E+13	1.285718E-15	NaN
205	1.000000	0.814560	7.36705e+06	-48889.1	955.818	-29760.6	0.000000	0.000000	6.815088	0.018360	NaN	0.000000	0.001774	0.001680	28.0773	0.093395	0.002127	43.9095	130.003	-163.62	0.090139	0.813233	-0.922351	-0.923678	0.018360	43.9095	-0.922664	-2.056739E+12	-8.926749E-15	NaN
205	1.000000	0.872582	7.36705e+06	-48889.1	955.82	-29760.6	0.000000	0.000000	6.873109	0.011703	NaN	0.000000	0.001740	0.001641	28.0769	0.055850	0.002055	27.1818	-89.9602	13.328	-0.029317	0.871233	-0.864329	-0.865678	0.011703	27.1818	-0.864652	-3.381290E+11	-3.461199E-14	NaN
205	1.000000	0.930608	7.36705e+06	-48889.1	955.819	-29760.6	0.000000	0.000000	6.931140	0.119890	NaN	0.000000	0.001692	0.001726	28.0766	0.087100	0.001933	45.0594	80.285	-169.026	0.169864	0.929242	-0.806303	-0.807670	0.119890	45.0594	-0.808299	-5.827566E+10	-2.057290E-12	NaN
205	1.000000	0.988613	7.36705e+06	-48889.1	955.82	-29760.6	0.000000	0.000000	6.989140	0.013795	NaN	0.000000	0.001654	0.001671	28.0781	0.089133	0.002093	42.5793	-144.802	12.3024	-0.034281	0.987248	-0.748298	-0.749663	0.013795	42.5793	-0.748541	-8.981696E+9	-1.535849E-12	NaN
205	1.000000	1.046625	7.36705e+06	-48889.1	955.82	-29760.6	0.000000	0.000000	7.047153	0.035452	NaN	0.000000	0.001707	0.001721	28.078	0.028530	0.002052	13.9069	-169.418	-164.987	-0.015788	1.045268	-0.690286	-0.691643	0.035452	13.9069	-0.692198	-1.530923E+9	-2.315733E-11	NaN
205	1.000000	1.104670	7.36705e+06	-48889.1	955.821	-29760.6	0.000000	0.000000	7.105195	-0.042847	NaN	0.000000	0.001680	0.001648	28.077	0.112964	0.001958	57.6889	-141.137	14.6299	-0.048346	1.103307	-0.632241	-0.633604	-0.042847	57.6889	-0.631684	-2.270652E+8	1.886971E-10	NaN
205	1.000000	1.162699	7.36705e+06	-48889.1	955.82	-29760.6	0.000000	0.000000	7.163225	-0.013858	NaN	0.000000	0.001686	0.001663	28.0769	0.098757	0.001862	53.0241	-51.2696	-165.737	0.008952	1.161392	-0.574212	-0.575519	-0.013858	53.0241	-0.574016	-3.648444E+7	3.798199E-10	NaN
205	1.000000	1.220749	7.36705e+06	-48889.1	955.82	-29760.6	0.000000	0.000000	7.221273	-0.056833	NaN	0.000000	0.001654	0.001692	28.0778	0.038690	0.002080	18.6031	-111.543	11.7841	-0.020159	1.219336	-0.516162	-0.517575	-0.056833	18.6031	-0.513871	-5.34957e+06	1.062388E-8	NaN
205	1.000000	1.278738	7.36705e+06	-48889.1	955.82	-29760.6	0.000000	0.000000	7.279268	0.089494	NaN	0.000000	0.001664	0.001668	28.0783	0.069593	0.002073	33.5718	164.285	-164.907	0.045493	1.277412	-0.458173	-0.459499	0.089494	33.5718	-0.460172	-949376	-9.426644E-8	NaN
205	1.000000	1.336763	7.36705e+06	-48889.1	955.821	-29760.6	0.000000	0.000000	7.337291	0.030521	NaN	0.000000	0.001707	0.001656	28.0782	0.159442	0.001992	80.0366	-39.9936	15.1281	-0.026743	1.335396	-0.400148	-0.401515	0.030521	80.0366	-0.400434	-135575	-2.251200E-7	NaN
205	1.000000	1.394787	7.36705e+06	-48889.1	955.821	-29760.6	0.000000	0.000000	7.395314	0.008774	NaN	0.000000	0.001670	0.001662	28.0768	0.060076	0.001962	30.622	-90.0754	-167.124	0.018388	1.393481	-0.342125	-0.343430	0.008774	30.622	-0.342339	-19753.2	-4.441861E-7	NaN
205	1.000000	1.452789	7.36706e+06	-48889.1	955.821	-29760.6	0.000000	0.000000	7.453317	0.033021	NaN	0.000000	0.001656	0.001646	28.0771	0.020547	0.002065	9.952333	-16.3479	12.4984	-0.068325	1.451455	-0.284122	-0.285456	0.033021	9.952333	-0.286611	-2968.01	-1.112578E-5	NaN
205	1.000000	1.510852	7.36706e+06	-48889.1	955.82	-29760.6	0.000000	0.000000	7.511379	0.012144	NaN	0.000000	0.001624	0.001669	28.078	0.029398	0.001993	14.7509	-16.0874	-166.343	-0.004861	1.509571	-0.226059	-0.227340	0.012144	14.7509	-0.226677	-354.765	-3.423081E-5	NaN
205	1.000000	1.568866	7.36706e+06	-48889.1	955.82	-29760.6	0.000000	0.000000	7.569392	-0.000741	NaN	0.000000	0.001691	0.001648	28.078	0.156803	0.001996	78.5751	152.368	11.6196	0.007788	1.567501	-0.168046	-0.169410	-0.000741	78.5751	-0.168038	-37.9733	1.951746E-5	NaN
205	1.000000	1.626895	7.36706e+06	-48889.1	955.822	-29760.6	0.000000	0.000000	7.627421	-0.005231	NaN	0.000000	0.001677	0.001637	28.0779	0.036527	0.001878	19.4523	82.5875	-166.912	-0.023527	1.625628	-0.110016	-0.111283	-0.005231	19.4523	-0.109815	-2.978270	0.001756	NaN
205	1.000000	1.684917	7.36706e+06	-48889.1	955.822	-29760.6	0.000000	0.000000	7.685444	0.001499	NaN	0.000000	0.001659	0.001644	28.0767	0.068906	0.001918	35.9319	-117.36	11.0643	0.029852	1.683614	-0.051994	-0.053298	0.001499	35.9319	-0.052025	-0.105011	-0.014277	NaN
205	1.000000	1.742901	7.36706e+06	-48889.1	955.822	-29760.6	0.000000	0.000000	7.743623	4.771118	NaN	0.000000	0.001711	0.001619	28.0773	5.915145	0.001783	3317.8	9.630574	-170.618	3.118709	1.741597	0.005989	0.004686	4.771118	3317.8	0.004911	0.004052	1177.39	47618.3
205	2.000000	1.759869	7.36706e+06	-48889.1	955.821	-29760.6	0.000000	0.000000	7.761502	26.9236	NaN	0.000000	0.001776	0.001677	28.0777	21.0739	0.001904	11066.5	5.195883	4.369706	27.2017	1.759447	0.022957	0.022536	26.9236	11066.5	0.021133	0.024354	1105.53	64789.1
205	2.000000	1.774251	7.36706e+06	-48889.1	955.822	-29760.6	0.000000	0.000000	7.777258	60.3227	NaN	0.000000	0.001811	0.001637	28.0778	33.9006	0.001789	18946.1	6.031380	176.062	56.5152	1.773974	0.037340	0.037063	60.3227	18946.1	0.034952	0.051635	1168.25	76176.4
205	2.000000	1.788789	7.36706e+06	-48889.1	955.822	-29760.6	0.000000	0.000000	7.793893	111.327	NaN	0.000000	0.001766	0.001628	28.0767	47.5178	0.001826	26027	2.594556	-1.907364	109.843	1.788457	0.051877	0.051546	111.327	26027	0.048669	0.088345	1260.15	80003
205	2.000000	1.803281	7.36706e+06	-48889.1	955.822	-29760.5	0.000000	0.000000	7.810975	174.304	NaN	0.000000	0.001734	0.001617	28.0766	60.6439	0.001887	32141.5	3.028811	175.775	174.561	1.803055	0.066370	0.066144	174.304	32141.5	0.062303	0.134196	1298.88	80162.3
205	2.000000	1.817662	7.36706e+06	-48889.1	955.823	-29760.5	0.000000	0.000000	7.828450	249.566	NaN	0.000000	0.001716	0.001618	28.0772	72.2179	0.001750	41262.6	2.316082	-5.650268	243.758	1.817373	0.080751	0.080462	249.566	41262.6	0.076214	0.190282	1311.55	86423.1
205	2.000000	1.832122	7.36706e+06	-48889.1	955.823	-29760.5	0.000000	0.000000	7.846585	338.944	NaN	0.000000	0.001699	0.001602	28.0781	83.9607	0.001743	48174.7	2.768591	173.3	332.827	1.831879	0.095211	0.094967	338.944	48174.7	0.089934	0.254500	1331.8	87246.5
205	2.000000	1.844661	7.36706e+06	-48889.1	955.823	-29760.5	0.000000	0.000000	7.862635	424.346	NaN	0.000000	0.001728	0.001632	28.0779	94.7439	0.001668	56785.7	1.649601	-6.892070	419.249	1.844450	0.107749	0.107538	424.346	56785.7	0.102145	0.318928	1330.54	91868.3

File: 2025-07-22_16-23-58_1_206.txt
2025-07-22, 16:23:58, 1
Index	Phase	Displacement	Time	Pos X	Pos Y	Pos Z	Rot A	Rot B	Piezo Z	Force A	Force B	Gripper	Voltage A	Voltage B	Temperature	Amplitude force	Amplitude pos	Stiffness	Phase shift	Phase excitation	Force A raw	Displacement raw	HMax	HMax raw	Real Force	Real Stiffness	Contact Depth	Area	Hardness	Reduced Mod.
[#]	[#]	[um]	[s]	[um]	[um]	[um]	[m°]	[m°]	[um]	[uN]	[uN]	[V]	[V]	[V]	[°C]	[uN]	[um]	[N/m]	[°]	[°]	[uN]	[um]	[um]	[um]	[uN]	[N/m]	[um]	[um^2]	[MPa]	[MPa]
206	1.000000	0.002698	7.36706e+06	-48939.1	955.819	-29761	0.000000	0.000000	6.002787	-0.071295	NaN	0.000000	0.001665	0.001671	28.0803	0.059196	0.001013	58.4402	-84.6819	-172.975	-0.048119	0.001446	-1.067150	-1.068403	-0.071295	58.4402	-1.066235	-1.764418E+14	4.040702E-16	NaN
206	1.000000	0.042654	7.36706e+06	-48939.1	955.818	-29761	0.000000	0.000000	6.042745	-0.015620	NaN	0.000000	0.001667	0.001651	28.0799	0.050903	0.001959	25.9842	156.307	-165.452	0.030231	0.041352	-1.027194	-1.028497	-0.015620	25.9842	-1.026743	-5.196039E+13	3.006169E-16	NaN
206	1.000000	0.082686	7.36706e+06	-48939.1	955.819	-29761	0.000000	0.000000	6.082777	-0.007711	NaN	0.000000	0.001660	0.001601	28.08	0.041781	0.001916	21.8052	135.547	-165.816	-0.025230	0.081363	-0.987163	-0.988486	-0.007711	21.8052	-0.986897	-1.511209E+13	5.102375E-16	NaN
206	1.000000	0.122710	7.36706e+06	-48939.1	955.819	-29761	0.000000	0.000000	6.122804	0.053053	NaN	0.000000	0.001701	0.001656	28.0788	0.055986	0.002196	25.4958	64.3227	-165.35	0.045848	0.121405	-0.947138	-0.948443	0.053053	25.4958	-0.948699	-4.618285E+12	-1.148762E-14	NaN
206	1.000000	0.162732	7.36706e+06	-48939.1	955.819	-29761	0.000000	0.000000	6.162824	0.002357	NaN	0.000000	0.001692	0.001681	28.0788	0.053046	0.001988	26.6766	139.102	-166.164	0.059872	0.161354	-0.907116	-0.908495	0.002357	26.6766	-0.907182	-1.270869E+12	-1.854401E-15	NaN
206	1.000000	0.202728	7.36706e+06	-48939.1	955.818	-29761	0.000000	0.000000	6.202818	-0.029027	NaN	0.000000	0.001706	0.001673	28.0791	0.062059	0.001943	31.942	-21.3889	-167.685	-0.054489	0.201422	-0.867120	-0.868427	-0.029027	31.942	-0.866439	-3.574880E+11	8.119668E-14	NaN
206	1.000000	0.242725	7.36706e+06	-48939.1	955.818	-29761	0.000000	0.000000	6.242815	-0.037627	NaN	0.000000	0.001691	0.001673	28.0788	0.057855	0.001960	29.5158	42.9476	-165.998	-0.062099	0.241449	-0.827123	-0.828399	-0.037627	29.5158	-0.826167	-1.018183E+11	3.695543E-13	NaN
206	1.000000	0.282761	7.36706e+06	-48939.1	955.819	-29761	0.000000	0.000000	6.282852	-0.006933	NaN	0.000000	0.001707	0.001602	28.0805	0.018081	0.001952	9.260787	108.116	-165.704	-0.016330	0.281428	-0.787087	-0.788420	-0.006933	9.260787	-0.786526	-2.950495E+10	2.349800E-13	NaN
206	1.000000	0.322775	7.36706e+06	-48939.1	955.819	-29761	0.000000	0.000000	6.322866	-0.008683	NaN	0.000000	0.001678	0.001602	28.0801	0.122890	0.001920	64.0058	137.037	-166.591	0.050481	0.321433	-0.747073	-0.748415	-0.008683	64.0058	-0.746972	-8.550529E+9	1.015501E-12	NaN
206	1.000000	0.362794	7.36706e+06	-48939.1	955.819	-29761	0.000000	0.000000	6.362883	-0.048097	NaN	0.000000	0.001713	0.001602	28.0803	0.160835	0.002058	78.1523	-139.123	-167.289	-0.038343	0.361534	-0.707055	-0.708314	-0.048097	78.1523	-0.706593	-2.407409E+9	1.997888E-11	NaN
206	1.000000	0.402798	7.36706e+06	-48939.1	955.818	-29761	0.000000	0.000000	6.402888	-0.037318	NaN	0.000000	0.001735	0.001588	28.0792	0.045660	0.001968	23.1967	-53.5958	-165.067	0.004503	0.401471	-0.667050	-0.668377	-0.037318	23.1967	-0.665844	-6.675661E+8	5.590125E-11	NaN
206	1.000000	0.442837	7.36706e+06	-48939.1	955.819	-29761	0.000000	0.000000	6.442929	0.017028	NaN	0.000000	0.001698	0.001671	28.0791	0.043687	0.002029	21.5332	133.5	-165.499	0.019178	0.441469	-0.627011	-0.628379	0.017028	21.5332	-0.627605	-1.995830E+8	-8.531726E-11	NaN
206	1.000000	0.482830	7.36706e+06	-48939.1	955.819	-29761	0.000000	0.000000	6.482920	-0.032385	NaN	0.000000	0.001718	0.001654	28.0792	0.128090	0.001967	65.1044	103.741	-165.097	-0.094680	0.481564	-0.587018	-0.588284	-0.032385	65.1044	-0.586645	-5.450159E+7	5.941984E-10	NaN
206	1.000000	0.522855	7.36706e+06	-48939.1	955.82	-29761	0.000000	0.000000	6.522948	0.030956	NaN	0.000000	0.001659	0.001665	28.0796	0.094949	0.001939	48.9554	113.366	-166.764	-0.033850	0.521555	-0.546993	-0.548293	0.030956	48.9554	-0.547467	-1.566275E+7	-1.976438E-9	NaN
206	1.000000	0.562848	7.36706e+06	-48939.1	955.818	-29761.1	0.000000	0.000000	6.562942	0.055910	NaN	0.000000	0.001710	0.001630	28.0806	0.175352	0.001973	88.8558	-70.0433	-165.894	-0.028202	0.561570	-0.507000	-0.508278	0.055910	88.8558	-0.507472	-4.35711e+06	-1.283199E-8	NaN
206	1.000000	0.602878	7.36706e+06	-48939.1	955.819	-29761.1	0.000000	0.000000	6.602969	-0.007723	NaN	0.000000	0.001676	0.001644	28.0804	0.061152	0.001924	31.7852	76.7371	-169.725	-0.086525	0.601589	-0.466971	-0.468259	-0.007723	31.7852	-0.466788	-1.17584e+06	6.568410E-9	NaN
206	1.000000	0.642893	7.36706e+06	-48939.1	955.819	-29761.1	0.000000	0.000000	6.642981	-0.082683	NaN	0.000000	0.001696	0.001686	28.0799	0.067365	0.001935	34.8091	105.064	-163.939	-0.068368	0.641552	-0.426955	-0.428296	-0.082683	34.8091	-0.425174	-304608	2.714401E-7	NaN
206	1.000000	0.682932	7.36706e+06	-48939.1	955.818	-29761.1	0.000000	0.000000	6.683022	-0.032411	NaN	0.000000	0.001731	0.001662	28.079	0.059147	0.002073	28.5283	-104.818	-163.583	-0.038347	0.681632	-0.386917	-0.388217	-0.032411	28.5283	-0.386065	-84496.1	3.835806E-7	NaN
206	1.000000	0.722970	7.36706e+06	-48939.1	955.819	-29761.1	0.000000	0.000000	6.723060	-0.031306	NaN	0.000000	0.001810	0.001689	28.079	0.066244	0.001905	34.769	151.711	-165.394	0.040392	0.721633	-0.346878	-0.348215	-0.031306	34.769	-0.346203	-22482.7	1.392459E-6	NaN
206	1.000000	0.762950	7.36706e+06	-48939.1	955.818	-29761.1	0.000000	0.000000	6.763043	0.032327	NaN	0.000000	0.001755	0.001664	28.0792	0.044844	0.001975	22.704	-147.29	-164.735	0.030543	0.761617	-0.306898	-0.308231	0.032327	22.704	-0.307966	-6179.35	-5.231487E-6	NaN
206	1.000000	0.802995	7.36706e+06	-48939.1	955.818	-29761.1	0.000000	0.000000	6.803085	-0.019144	NaN	0.000000	0.001762	0.001678	28.0795	0.110659	0.002105	52.5706	-146.231	-166.481	0.044892	0.801664	-0.266854	-0.268184	-0.019144	52.5706	-0.266581	-1477.39	1.295773E-5	NaN
206	1.000000	0.842950	7.36707e+06	-48939.1	955.819	-29761.1	0.000000	0.000000	6.843042	-0.009250	NaN	0.000000	0.001729	0.001670	28.0801	0.171797	0.001935	88.7846	164.223	-168.303	-0.054494	0.841687	-0.226898	-0.228161	-0.009250	88.7846	-0.226820	-356.62	2.593916E-5	NaN
206	1.000000	0.883016	7.36707e+06	-48939.1	955.819	-29761.1	0.000000	0.000000	6.883106	-0.035837	NaN	0.000000	0.001705	0.001642	28.0803	0.063255	0.001920	32.939	62.1325	-165.793	-0.017579	0.881692	-0.186832	-0.188157	-0.035837	32.939	-0.186016	-77.1339	0.000465	NaN
206	1.000000	0.922995	7.36707e+06	-48939.1	955.82	-29761.1	0.000000	0.000000	6.923085	-0.024008	NaN	0.000000	0.001691	0.001645	28.0799	0.051972	0.001995	26.0552	-19.538	-165.271	-0.042486	0.921726	-0.146854	-0.148122	-0.024008	26.0552	-0.146163	-15.4042	0.001559	NaN
206	1.000000	0.963009	7.36707e+06	-48939.1	955.818	-29761.1	0.000000	0.000000	6.963100	-0.024152	NaN	0.000000	0.001697	0.001633	28.0787	0.121060	0.001909	63.4131	45.5523	-167.054	0.002053	0.961738	-0.106839	-0.108111	-0.024152	63.4131	-0.106553	-2.538600	0.009514	NaN
206	1.000000	1.003040	7.36707e+06	-48939.1	955.818	-29761.1	0.000000	0.000000	7.003130	-0.051197	NaN	0.000000	0.001688	0.001653	28.0789	0.052646	0.001948	27.0214	145.629	-165.907	0.002339	1.001818	-0.066808	-0.068030	-0.051197	27.0214	-0.065387	-0.255442	0.200426	NaN
206	1.000000	1.043066	7.36707e+06	-48939.1	955.817	-29761.1	0.000000	0.000000	7.043158	0.015753	NaN	0.000000	0.001702	0.001653	28.0792	0.059654	0.001974	30.2252	-42.614	-168.86	0.005777	1.041762	-0.026782	-0.028087	0.015753	30.2252	-0.027173	-0.019260	-0.817896	NaN
206	2.000000	1.078662	7.36707e+06	-48939.1	955.818	-29761.1	0.000000	0.000000	7.079222	11.3986	NaN	0.000000	0.001723	0.001671	28.0801	10.6533	0.001701	6261.52	6.784272	-174.754	10.9566	1.078409	0.008814	0.008561	11.3986	6261.52	0.007449	0.006481	1758.68	71059.2
206	2.000000	1.088618	7.36707e+06	-48939.1	955.818	-29761.1	0.000000	0.000000	7.089995	31.2466	NaN	0.000000	0.001671	0.001653	28.0803	20.3428	0.001693	12016.4	0.793271	-174.866	30.6345	1.088245	0.018770	0.018397	31.2466	12016.4	0.016820	0.017789	1756.5	82313.6
206	2.000000	1.098601	7.36707e+06	-48939.1	955.818	-29761.1	0.000000	0.000000	7.100938	54.6226	NaN	0.000000	0.001675	0.001691	28.08	30.5156	0.001815	16817.1	3.615195	179.714	53.558	1.098356	0.028752	0.028507	54.6226	16817.1	0.026316	0.033454	1632.77	84004.3
206	2.000000	1.108520	7.36707e+06	-48939.1	955.818	-29761.1	0.000000	0.000000	7.111872	79.3175	NaN	0.000000	0.001720	0.001652	28.0804	39.266	0.001820	21580.1	-0.508197	-177.645	76.8143	1.108376	0.038671	0.038527	79.3175	21580.1	0.035915	0.053897	1471.64	84926.7
206	2.000000	1.118537	7.36707e+06	-48939.1	955.818	-29761.1	0.000000	0.000000	7.124165	134.662	NaN	0.000000	0.001717	0.001641	28.079	49.6124	0.001718	28883.9	2.274960	177.375	135.032	1.118231	0.048689	0.048383	134.662	28883.9	0.045192	0.078133	1723.49	94408.6
206	2.000000	1.128504	7.36707e+06	-48939.1	955.818	-29761.1	0.000000	0.000000	7.136228	185.641	NaN	0.000000	0.001673	0.001657	28.0792	59.7705	0.001750	34151	5.345423	172.814	183.885	1.128282	0.058656	0.058434	185.641	34151	0.054579	0.107089	1733.51	95346.2
206	2.000000	1.138500	7.36707e+06	-48939.1	955.817	-29761.1	0.000000	0.000000	7.148684	245.45	NaN	0.000000	0.001713	0.001643	28.079	70.3426	0.001751	40166.3	4.674903	172.902	245.12	1.138180	0.068652	0.068332	245.45	40166.3	0.064069	0.140802	1743.23	97798.3
206	2.000000	1.148446	7.36707e+06	-48939.1	955.819	-29761.1	0.000000	0.000000	7.161148	306.698	NaN	0.000000	0.001678	0.001740	28.08	80.1728	0.001805	44418.1	2.432073	173.733	303.403	1.148318	0.078598	0.078470	306.698	44418.1	0.073419	0.178274	1720.37	96114.4
206	2.000000	1.158473	7.36707e+06	-48939.1	955.817	-29761.1	0.000000	0.000000	7.174432	385.899	NaN	0.000000	0.001683	0.001682	28.0797	90.9291	0.001893	48029.8	6.088927	169.707	383.824	1.158232	0.088625	0.088384	385.899	48029.8	0.082599	0.219080	1761.45	93752.4
206	2.000000	1.168385	7.36707e+06	-48939.1	955.819	-29761.1	0.000000	0.000000	7.187780	469.477	NaN	0.000000	0.001688	0.001702	28.0799	99.4768	0.001869	53237.4	7.605714	167.226	463.96	1.168052	0.098537	0.098203	469.477	53237.4	0.091923	0.264529	1774.76	94569.9
206	2.000000	1.175522	7.36707e+06	-48939.1	955.818	-29761.1	0.000000	0.000000	7.197234	525.832	NaN	0.000000	0.001684	0.001685	28.0801	104.628	0.001808	57855	1.508972	173.183	527.936	1.175160	0.105673	0.105312	525.832	57855	0.098857	0.300911	1747.47	96359.6