Folder: unikorn_login/remote_trans/data/nanoindenter/0828-1/data/Data_2025-08-06,11h17m57s (part 178)

File: 2025-07-22_16-23-58_1_373.txt
2025-07-22, 16:23:58, 1
Index	Phase	Displacement	Time	Pos X	Pos Y	Pos Z	Rot A	Rot B	Piezo Z	Force A	Force B	Gripper	Voltage A	Voltage B	Temperature	Amplitude force	Amplitude pos	Stiffness	Phase shift	Phase excitation	Force A raw	Displacement raw	HMax	HMax raw	Real Force	Real Stiffness	Contact Depth	Area	Hardness	Reduced Mod.
[#]	[#]	[um]	[s]	[um]	[um]	[um]	[m°]	[m°]	[um]	[uN]	[uN]	[V]	[V]	[V]	[°C]	[uN]	[um]	[N/m]	[°]	[°]	[uN]	[um]	[um]	[um]	[uN]	[N/m]	[um]	[um^2]	[MPa]	[MPa]
373	1.000000	0.002356	7.36871e+06	-57289.1	955.819	-29737.5	0.000000	0.000000	6.002807	0.060799	NaN	0.000000	0.001578	0.001711	28.0806	0.056579	0.001030	54.9187	-162.871	-162.078	0.047318	0.001070	-1.020190	-1.021477	0.060799	54.9187	-1.021021	-4.351965E+13	-1.397055E-15	NaN
373	1.000000	0.042289	7.36871e+06	-57289.1	955.818	-29737.5	0.000000	0.000000	6.042737	-0.007065	NaN	0.000000	0.001575	0.001682	28.0799	0.066810	0.002131	31.3497	97.107	-166.801	0.065263	0.040932	-0.980258	-0.981615	-0.007065	31.3497	-0.980089	-1.223503E+13	5.774229E-16	NaN
373	1.000000	0.082304	7.36871e+06	-57289.1	955.818	-29737.5	0.000000	0.000000	6.082756	0.067449	NaN	0.000000	0.001574	0.001720	28.0795	0.054631	0.002119	25.784	-50.5948	-165.31	0.030702	0.081027	-0.940242	-0.941520	0.067449	25.784	-0.942204	-3.774620E+12	-1.786897E-14	NaN
373	1.000000	0.122336	7.36871e+06	-57289.1	955.819	-29737.5	0.000000	0.000000	6.122785	-0.002895	NaN	0.000000	0.001607	0.001629	28.0794	0.063242	0.001939	32.622	76.3076	-166.602	0.011717	0.120998	-0.900210	-0.901548	-0.002895	32.622	-0.900144	-1.020961E+12	2.835525E-15	NaN
373	1.000000	0.162356	7.36871e+06	-57289.1	955.819	-29737.5	0.000000	0.000000	6.162804	-0.007700	NaN	0.000000	0.001621	0.001637	28.0794	0.049349	0.001943	25.396	166.336	-168.798	0.015530	0.161083	-0.860191	-0.861464	-0.007700	25.396	-0.859964	-2.921658E+11	2.635487E-14	NaN
373	1.000000	0.202366	7.36871e+06	-57289.1	955.819	-29737.5	0.000000	0.000000	6.202814	-0.006847	NaN	0.000000	0.001625	0.001684	28.0808	0.105250	0.002045	51.4598	-60.2518	-164.67	0.081615	0.200990	-0.820181	-0.821557	-0.006847	51.4598	-0.820081	-8.419907E+10	8.131720E-14	NaN
373	1.000000	0.242376	7.36871e+06	-57289.1	955.818	-29737.5	0.000000	0.000000	6.242826	0.034119	NaN	0.000000	0.001593	0.001659	28.081	0.025618	0.002061	12.4325	73.5024	-168.144	-0.010618	0.241109	-0.780171	-0.781437	0.034119	12.4325	-0.782229	-2.579421E+10	-1.322747E-12	NaN
373	1.000000	0.282411	7.36871e+06	-57289.1	955.818	-29737.5	0.000000	0.000000	6.282860	0.008645	NaN	0.000000	0.001600	0.001648	28.081	0.041896	0.001951	21.4793	81.2672	-166.011	-0.008671	0.281060	-0.740136	-0.741487	0.008645	21.4793	-0.740438	-6.966576E+9	-1.240946E-12	NaN
373	1.000000	0.322436	7.36871e+06	-57289.1	955.819	-29737.5	0.000000	0.000000	6.322883	-0.021859	NaN	0.000000	0.001633	0.001641	28.0799	0.147472	0.002007	73.4618	49.4666	-167.755	0.030451	0.321107	-0.700111	-0.701440	-0.021859	73.4618	-0.699888	-1.949850E+9	1.121053E-11	NaN
373	1.000000	0.362425	7.36871e+06	-57289.1	955.818	-29737.5	0.000000	0.000000	6.362873	-0.003972	NaN	0.000000	0.001601	0.001643	28.0796	0.032789	0.002001	16.3824	-140.959	-165.516	-0.014214	0.361142	-0.660122	-0.661404	-0.003972	16.3824	-0.659940	-5.541765E+8	7.166687E-12	NaN
373	1.000000	0.402440	7.36871e+06	-57289.1	955.818	-29737.5	0.000000	0.000000	6.402889	0.027916	NaN	0.000000	0.001696	0.001668	28.0795	0.069089	0.001950	35.4216	55.6827	-166.634	0.061393	0.401093	-0.620107	-0.621454	0.027916	35.4216	-0.620698	-1.604092E+8	-1.740330E-10	NaN
373	1.000000	0.442482	7.36871e+06	-57289.1	955.818	-29737.5	0.000000	0.000000	6.442931	0.027586	NaN	0.000000	0.001654	0.001640	28.0794	0.047707	0.002103	22.6851	-145.419	-169.197	-0.011018	0.441162	-0.580065	-0.581385	0.027586	22.6851	-0.580977	-4.552080E+7	-6.060060E-10	NaN
373	1.000000	0.482518	7.36871e+06	-57289.1	955.818	-29737.5	0.000000	0.000000	6.482967	0.026138	NaN	0.000000	0.001710	0.001713	28.081	0.107603	0.001970	54.6098	-23.5054	-168.995	-0.002058	0.481191	-0.540029	-0.541355	0.026138	54.6098	-0.540388	-1.249507E+7	-2.091842E-9	NaN
373	1.000000	0.522529	7.36871e+06	-57289.1	955.819	-29737.5	0.000000	0.000000	6.522977	0.001068	NaN	0.000000	0.001653	0.001697	28.0813	0.028309	0.001965	14.4064	-178.294	-162.129	-0.003747	0.521221	-0.500018	-0.501326	0.001068	14.4064	-0.500073	-3.43592e+06	-3.109751E-10	NaN
373	1.000000	0.562553	7.36871e+06	-57289.1	955.819	-29737.5	0.000000	0.000000	6.563002	0.011321	NaN	0.000000	0.001650	0.001702	28.0809	0.075623	0.001993	37.9391	-57.4364	-165.96	0.059077	0.561185	-0.459993	-0.461362	0.011321	37.9391	-0.460217	-950756	-1.190760E-8	NaN
373	1.000000	0.602569	7.36871e+06	-57289.1	955.818	-29737.5	0.000000	0.000000	6.603017	0.000247	NaN	0.000000	0.001651	0.001653	28.0794	0.070710	0.001974	35.8181	145.245	-162.804	0.017366	0.601238	-0.419978	-0.421308	0.000247	35.8181	-0.419983	-257142	-9.595629E-10	NaN
373	1.000000	0.642559	7.36872e+06	-57289.1	955.819	-29737.5	0.000000	0.000000	6.643011	0.075754	NaN	0.000000	0.001652	0.001697	28.0795	0.055603	0.002019	27.5352	161.867	-165.955	0.084255	0.641303	-0.379988	-0.381244	0.075754	27.5352	-0.382051	-74014	-1.023510E-6	NaN
373	1.000000	0.682576	7.36872e+06	-57289.1	955.818	-29737.5	0.000000	0.000000	6.683024	-0.010494	NaN	0.000000	0.001613	0.001659	28.0794	0.046752	0.002113	22.1261	105.053	-168.575	0.099449	0.681286	-0.339971	-0.341260	-0.010494	22.1261	-0.339615	-18027.9	5.821176E-7	NaN
373	1.000000	0.722604	7.36872e+06	-57289.1	955.818	-29737.5	0.000000	0.000000	6.723052	-0.017515	NaN	0.000000	0.001562	0.001666	28.0792	0.042189	0.002014	20.9483	167.409	-168.052	-0.027941	0.721317	-0.299943	-0.301229	-0.017515	20.9483	-0.299315	-4596.67	3.810358E-6	NaN
373	1.000000	0.762591	7.36872e+06	-57289.1	955.818	-29737.5	0.000000	0.000000	6.763039	-0.016792	NaN	0.000000	0.001657	0.001689	28.0806	0.116494	0.001907	61.0989	-54.6658	-169.732	-0.093765	0.761249	-0.259956	-0.261298	-0.016792	61.0989	-0.259750	-1161.67	1.445510E-5	NaN
373	1.000000	0.802626	7.36872e+06	-57289.1	955.818	-29737.5	0.000000	0.000000	6.803073	-0.037376	NaN	0.000000	0.001620	0.001642	28.0808	0.018132	0.002085	8.696668	-87.878	-165.565	-0.049391	0.801352	-0.219920	-0.221194	-0.037376	8.696668	-0.216697	-245.911	0.000152	NaN
373	1.000000	0.842643	7.36872e+06	-57289.1	955.818	-29737.5	0.000000	0.000000	6.843091	-0.009805	NaN	0.000000	0.001680	0.001710	28.0807	0.069459	0.002041	34.0298	20.9443	-165.25	0.003147	0.841330	-0.179903	-0.181217	-0.009805	34.0298	-0.179687	-60.2764	0.000163	NaN
373	1.000000	0.882685	7.36872e+06	-57289.1	955.819	-29737.5	0.000000	0.000000	6.883133	-0.017957	NaN	0.000000	0.001702	0.001721	28.0795	0.047597	0.002077	22.9204	161.308	-167.114	-0.037968	0.881351	-0.139862	-0.141196	-0.017957	22.9204	-0.139274	-11.4634	0.001566	NaN
373	1.000000	0.922669	7.36872e+06	-57289.1	955.818	-29737.5	0.000000	0.000000	6.923118	-0.000435	NaN	0.000000	0.001707	0.001708	28.0795	0.053773	0.001969	27.3127	124.525	-166.666	-0.021549	0.921367	-0.099877	-0.101180	-0.000435	27.3127	-0.099865	-1.814613	0.000240	NaN
373	1.000000	0.962684	7.36872e+06	-57289.1	955.819	-29737.5	0.000000	0.000000	6.963132	0.000751	NaN	0.000000	0.001687	0.001728	28.0797	0.073385	0.002015	36.4177	-8.277811	-169.793	0.044859	0.961357	-0.059863	-0.061190	0.000751	36.4177	-0.059878	-0.178650	-0.004202	NaN
373	1.000000	1.002673	7.36872e+06	-57289.1	955.819	-29737.5	0.000000	0.000000	7.003185	1.542879	NaN	0.000000	0.001661	0.001696	28.0807	0.672417	0.002034	330.569	26.8265	-166.046	1.498434	1.001345	-0.019873	-0.021201	1.542879	330.569	-0.023374	-0.015311	-100.768	NaN
373	2.000000	1.034335	7.36872e+06	-57289.1	955.819	-29737.5	0.000000	0.000000	7.035207	10.2987	NaN	0.000000	0.001654	0.001688	28.0808	10.2728	0.001706	6023.28	6.183744	-172.508	9.681919	1.034000	0.011788	0.011453	10.2987	6023.28	0.010506	0.009749	1056.36	55734.3
373	2.000000	1.044276	7.36872e+06	-57289.1	955.818	-29737.5	0.000000	0.000000	7.045842	27.1539	NaN	0.000000	0.001689	0.001645	28.0805	21.0333	0.001844	11404.5	4.660233	-176.037	26.7287	1.043910	0.021730	0.021364	27.1539	11404.5	0.019944	0.022454	1209.3	69534.3
373	2.000000	1.054241	7.36872e+06	-57289.1	955.82	-29737.5	0.000000	0.000000	7.056818	51.7334	NaN	0.000000	0.001652	0.001680	28.0808	31.2649	0.001798	17389.1	5.348541	178.996	50.1793	1.053953	0.031694	0.031407	51.7334	17389.1	0.029463	0.039638	1305.15	79798.5
373	2.000000	1.064216	7.36872e+06	-57289.1	955.818	-29737.5	0.000000	0.000000	7.068074	82.8511	NaN	0.000000	0.001653	0.001630	28.0796	41.2734	0.001860	22188	7.634919	174.056	81.939	1.063911	0.041670	0.041364	82.8511	22188	0.038869	0.061139	1355.13	81984.8
373	2.000000	1.074179	7.36872e+06	-57289.1	955.82	-29737.5	0.000000	0.000000	7.079618	121.289	NaN	0.000000	0.001677	0.001599	28.0798	48.9816	0.001801	27199.4	3.828465	176.582	117.802	1.073802	0.051632	0.051255	121.289	27199.4	0.048288	0.087195	1391.01	84156.5
373	2.000000	1.084189	7.36872e+06	-57289.1	955.82	-29737.5	0.000000	0.000000	7.091237	160.407	NaN	0.000000	0.001695	0.001661	28.0798	61.4186	0.001899	32350.7	10.1028	168.22	160.457	1.083940	0.061642	0.061393	160.407	32350.7	0.057924	0.118468	1354.01	85872.9
373	2.000000	1.094135	7.36872e+06	-57289.1	955.82	-29737.5	0.000000	0.000000	7.103741	222.584	NaN	0.000000	0.001636	0.001694	28.0811	68.2307	0.001796	37986.5	6.446850	172.42	219.08	1.093758	0.071588	0.071211	222.584	37986.5	0.067194	0.152860	1456.14	88767.9
373	2.000000	1.104202	7.36872e+06	-57289.1	955.82	-29737.5	0.000000	0.000000	7.115964	274.952	NaN	0.000000	0.001692	0.001672	28.0807	76.8525	0.001850	41541.5	4.791844	172.97	276.674	1.103877	0.081656	0.081331	274.952	41541.5	0.076692	0.192370	1429.29	86534.1
373	2.000000	1.114198	7.36872e+06	-57289.1	955.82	-29737.5	0.000000	0.000000	7.128517	337.122	NaN	0.000000	0.001702	0.001707	28.0807	85.8775	0.001765	48669	1.243864	174.779	337.876	1.113894	0.091651	0.091347	337.122	48669	0.086456	0.237397	1420.08	91261.7
373	2.000000	1.124105	7.36872e+06	-57289.1	955.82	-29737.5	0.000000	0.000000	7.141209	404.798	NaN	0.000000	0.001704	0.001659	28.0807	93.6214	0.001805	51872.3	2.712737	172.704	402.294	1.123885	0.101559	0.101339	404.798	51872.3	0.095706	0.284106	1424.81	88913.7
373	2.000000	1.130140	7.36872e+06	-57289.1	955.82	-29737.5	0.000000	0.000000	7.148853	443.924	NaN	0.000000	0.001702	0.001672	28.0794	98.4769	0.001720	57270.2	0.620613	174.265	440.695	1.129887	0.107593	0.107340	443.924	57270.2	0.101780	0.316903	1400.82	92947.7

File: 2025-07-22_16-23-58_1_374.txt
2025-07-22, 16:23:58, 1
Index	Phase	Displacement	Time	Pos X	Pos Y	Pos Z	Rot A	Rot B	Piezo Z	Force A	Force B	Gripper	Voltage A	Voltage B	Temperature	Amplitude force	Amplitude pos	Stiffness	Phase shift	Phase excitation	Force A raw	Displacement raw	HMax	HMax raw	Real Force	Real Stiffness	Contact Depth	Area	Hardness	Reduced Mod.
[#]	[#]	[um]	[s]	[um]	[um]	[um]	[m°]	[m°]	[um]	[uN]	[uN]	[V]	[V]	[V]	[°C]	[uN]	[um]	[N/m]	[°]	[°]	[uN]	[um]	[um]	[um]	[uN]	[N/m]	[um]	[um^2]	[MPa]	[MPa]
374	1.000000	0.002100	7.36872e+06	-57339.1	955.818	-29737.4	0.000000	0.000000	6.002808	0.057880	NaN	0.000000	0.001603	0.001694	28.0819	0.008296	0.001048	7.912404	-145.306	-168.502	0.046463	0.000869	-1.015414	-1.016645	0.057880	7.912404	-1.020901	-4.335818E+13	-1.334927E-15	NaN
374	1.000000	0.042021	7.36872e+06	-57339.1	955.818	-29737.4	0.000000	0.000000	6.042729	0.064284	NaN	0.000000	0.001637	0.001725	28.0822	0.073754	0.002062	35.7668	-147.599	-165.491	0.085522	0.040814	-0.975494	-0.976701	0.064284	35.7668	-0.976842	-1.106265E+13	-5.810888E-15	NaN
374	1.000000	0.082021	7.36872e+06	-57339.1	955.819	-29737.4	0.000000	0.000000	6.082730	0.074417	NaN	0.000000	0.001619	0.001670	28.0824	0.065916	0.001974	33.3971	13.3598	-168.648	0.072624	0.080790	-0.935493	-0.936724	0.074417	33.3971	-0.937165	-3.227605E+12	-2.305646E-14	NaN
374	1.000000	0.122106	7.36872e+06	-57339.1	955.818	-29737.4	0.000000	0.000000	6.122815	0.091905	NaN	0.000000	0.001620	0.001674	28.081	0.087152	0.001856	46.9575	38.8555	-165.263	0.021584	0.120768	-0.895409	-0.896747	0.091905	46.9575	-0.896877	-9.222790E+11	-9.965025E-14	NaN
374	1.000000	0.162083	7.36872e+06	-57339.1	955.819	-29737.4	0.000000	0.000000	6.162793	0.117303	NaN	0.000000	0.001626	0.001658	28.0807	0.089773	0.002005	44.7723	-98.6556	-167.375	0.057472	0.160749	-0.855432	-0.856765	0.117303	44.7723	-0.857397	-2.697038E+11	-4.349331E-13	NaN
374	1.000000	0.202140	7.36872e+06	-57339.1	955.818	-29737.4	0.000000	0.000000	6.202850	0.132459	NaN	0.000000	0.001589	0.001673	28.0808	0.094053	0.002049	45.9109	63.829	-166.459	0.116255	0.200772	-0.815375	-0.816743	0.132459	45.9109	-0.817539	-7.777435E+10	-1.703125E-12	NaN
374	1.000000	0.242115	7.36872e+06	-57339.1	955.818	-29737.4	0.000000	0.000000	6.242823	0.074235	NaN	0.000000	0.001621	0.001728	28.0824	0.050108	0.002104	23.8147	-83.432	-166.433	0.061926	0.240800	-0.775400	-0.776714	0.074235	23.8147	-0.777737	-2.241217E+10	-3.312258E-12	NaN
374	1.000000	0.282154	7.36872e+06	-57339.1	955.819	-29737.4	0.000000	0.000000	6.282863	0.081059	NaN	0.000000	0.001639	0.001692	28.0819	0.084947	0.002043	41.5792	-128.269	-165.023	0.016616	0.280852	-0.735360	-0.736663	0.081059	41.5792	-0.736822	-6.219732E+9	-1.303250E-11	NaN
374	1.000000	0.322157	7.36872e+06	-57339.1	955.818	-29737.4	0.000000	0.000000	6.322860	-0.054992	NaN	0.000000	0.001633	0.001671	28.0825	0.080432	0.002012	39.9804	-69.4656	-169.614	-0.070633	0.320877	-0.695358	-0.696638	-0.054992	39.9804	-0.694326	-1.636924E+9	3.359464E-11	NaN
374	1.000000	0.362176	7.36872e+06	-57339.1	955.819	-29737.4	0.000000	0.000000	6.362883	0.036462	NaN	0.000000	0.001648	0.001690	28.0823	0.108373	0.002014	53.8006	-103.462	-166.037	0.017165	0.360866	-0.655339	-0.656649	0.036462	53.8006	-0.655847	-4.870494E+8	-7.486404E-11	NaN
374	1.000000	0.402188	7.36872e+06	-57339.1	955.818	-29737.4	0.000000	0.000000	6.402892	-0.020474	NaN	0.000000	0.001616	0.001675	28.0808	0.081535	0.001967	41.4428	-23.1963	-165.313	-0.017651	0.400938	-0.615327	-0.616577	-0.020474	41.4428	-0.614956	-1.337477E+8	1.530792E-10	NaN
374	1.000000	0.442204	7.36872e+06	-57339.1	955.818	-29737.4	0.000000	0.000000	6.442910	0.026395	NaN	0.000000	0.001643	0.001666	28.081	0.046777	0.002058	22.734	-90.0792	-165.403	0.132008	0.440891	-0.575311	-0.576624	0.026395	22.734	-0.576181	-3.908504E+7	-6.753111E-10	NaN
374	1.000000	0.482224	7.36872e+06	-57339.1	955.818	-29737.4	0.000000	0.000000	6.482931	0.041958	NaN	0.000000	0.001677	0.001692	28.0813	0.102745	0.001934	53.1123	-164.555	-167.133	-0.033888	0.480913	-0.535291	-0.536602	0.041958	53.1123	-0.535883	-1.082049E+7	-3.877686E-9	NaN
374	1.000000	0.522257	7.36872e+06	-57339.1	955.819	-29737.4	0.000000	0.000000	6.522960	-0.037790	NaN	0.000000	0.001644	0.001629	28.0824	0.074659	0.001936	38.5721	-115.86	-167.325	0.031241	0.520899	-0.495258	-0.496615	-0.037790	38.5721	-0.494523	-2.8746e+06	1.314626E-8	NaN
374	1.000000	0.562269	7.36872e+06	-57339.1	955.819	-29737.4	0.000000	0.000000	6.562975	0.023906	NaN	0.000000	0.001617	0.001653	28.0827	0.100741	0.001976	50.9705	18.988	-167.53	-0.002237	0.560946	-0.455246	-0.456569	0.023906	50.9705	-0.455598	-818705	-2.920034E-8	NaN
374	1.000000	0.602274	7.36872e+06	-57339.1	955.818	-29737.4	0.000000	0.000000	6.602979	-0.000997	NaN	0.000000	0.001602	0.001654	28.0828	0.095361	0.002010	47.4534	0.799564	-167.515	0.073849	0.601002	-0.415240	-0.416512	-0.000997	47.4534	-0.415225	-220113	4.529632E-9	NaN
374	1.000000	0.642296	7.36872e+06	-57339.1	955.818	-29737.4	0.000000	0.000000	6.643002	0.025056	NaN	0.000000	0.001591	0.001714	28.0821	0.078421	0.002060	38.0751	174.371	-165.216	-0.003799	0.640966	-0.375219	-0.376549	0.025056	38.0751	-0.375712	-60022.1	-4.174496E-7	NaN
374	1.000000	0.682327	7.36872e+06	-57339.1	955.818	-29737.4	0.000000	0.000000	6.683034	0.052885	NaN	0.000000	0.001597	0.001727	28.081	0.072848	0.001969	36.9932	-120.55	-165.297	0.098650	0.680995	-0.335188	-0.336520	0.052885	36.9932	-0.336260	-16106.3	-3.283480E-6	NaN
374	1.000000	0.722316	7.36872e+06	-57339.1	955.818	-29737.4	0.000000	0.000000	6.723021	-0.016421	NaN	0.000000	0.001622	0.001756	28.081	0.051451	0.002023	25.4335	74.9798	-165.541	-0.037784	0.721024	-0.295199	-0.296491	-0.016421	25.4335	-0.294714	-3924.83	4.183781E-6	NaN
374	1.000000	0.762325	7.36873e+06	-57339.1	955.817	-29737.4	0.000000	0.000000	6.763030	0.001516	NaN	0.000000	0.001611	0.001654	28.0811	0.028915	0.001873	15.4414	-151.499	-164.848	-0.061608	0.761065	-0.255190	-0.256450	0.001516	15.4414	-0.255264	-991.233	-1.528994E-6	NaN
374	1.000000	0.802357	7.36873e+06	-57339.1	955.818	-29737.4	0.000000	0.000000	6.803056	-0.157026	NaN	0.000000	0.001619	0.001702	28.0825	0.076743	0.002005	38.2689	-28.6599	-166.895	-0.238020	0.801005	-0.215158	-0.216509	-0.157026	38.2689	-0.212080	-207.233	0.000758	NaN
374	1.000000	0.842369	7.36873e+06	-57339.1	955.818	-29737.4	0.000000	0.000000	6.843068	-0.139031	NaN	0.000000	0.001606	0.001670	28.0826	0.059777	0.002017	29.6311	-177.299	-166.003	-0.139941	0.841090	-0.175146	-0.176425	-0.139031	29.6311	-0.171627	-43.8342	0.003172	NaN
374	1.000000	0.882389	7.36873e+06	-57339.1	955.819	-29737.4	0.000000	0.000000	6.883091	-0.084455	NaN	0.000000	0.001647	0.001691	28.0826	0.107035	0.002057	52.0448	158.701	-166.534	-0.149232	0.881039	-0.135126	-0.136476	-0.084455	52.0448	-0.133909	-9.066038	0.009316	NaN
374	1.000000	0.922402	7.36873e+06	-57339.1	955.818	-29737.4	0.000000	0.000000	6.923108	0.025436	NaN	0.000000	0.001615	0.001709	28.0813	0.015316	0.001945	7.875099	-133.699	-166.979	-0.058020	0.921085	-0.095112	-0.096430	0.025436	7.875099	-0.097535	-1.609768	-0.015801	NaN
374	1.000000	0.962438	7.36873e+06	-57339.1	955.818	-29737.4	0.000000	0.000000	6.963142	-0.021224	NaN	0.000000	0.001639	0.001666	28.0815	0.175498	0.001976	88.8094	103.724	-168.086	0.057126	0.961147	-0.055077	-0.056368	-0.021224	88.8094	-0.054898	-0.127886	0.165963	NaN
374	1.000000	1.002458	7.36873e+06	-57339.1	955.818	-29737.4	0.000000	0.000000	7.003160	-0.065060	NaN	0.000000	0.001628	0.001644	28.0815	0.108674	0.001976	54.9915	32.4144	-168.73	-0.007659	1.001109	-0.015057	-0.016406	-0.065060	54.9915	-0.014170	-0.008783	7.407568	NaN
374	2.000000	1.032947	7.36873e+06	-57339.1	955.818	-29737.4	0.000000	0.000000	7.034185	12.9428	NaN	0.000000	0.001606	0.001702	28.0815	12.9376	0.001784	7250.46	6.884232	-175.64	12.2526	1.032701	0.015432	0.015187	12.9428	7250.46	0.014094	0.014096	918.202	55794.9
374	2.000000	1.042909	7.36873e+06	-57339.1	955.818	-29737.4	0.000000	0.000000	7.044775	28.2235	NaN	0.000000	0.001628	0.001679	28.0826	23.0187	0.001881	12235	7.775557	-179.592	27.0274	1.042602	0.025394	0.025087	28.2235	12235	0.023664	0.028629	985.822	66064.8
374	2.000000	1.052844	7.36873e+06	-57339.1	955.819	-29737.4	0.000000	0.000000	7.055622	50.4035	NaN	0.000000	0.001645	0.001703	28.0827	32.8916	0.001807	18200	4.664839	178.785	48.034	1.052577	0.035329	0.035063	50.4035	18200	0.033252	0.047754	1055.49	76092.7
374	2.000000	1.062879	7.36873e+06	-57339.1	955.819	-29737.4	0.000000	0.000000	7.066712	76.0039	NaN	0.000000	0.001659	0.001651	28.0824	44.1151	0.001845	23907.4	8.353446	172.521	75.3026	1.062635	0.045365	0.045120	76.0039	23907.4	0.042980	0.071957	1056.24	81426.9
374	2.000000	1.072829	7.36873e+06	-57339.1	955.819	-29737.4	0.000000	0.000000	7.078187	113.095	NaN	0.000000	0.001610	0.001636	28.0812	52.255	0.001898	27533.2	3.351792	177.018	111.086	1.072510	0.055314	0.054995	113.095	27533.2	0.052234	0.099442	1137.29	79770.9
374	2.000000	1.082817	7.36873e+06	-57339.1	955.82	-29737.4	0.000000	0.000000	7.089856	153.94	NaN	0.000000	0.001609	0.001674	28.0814	61.7557	0.001705	36223.3	3.239850	174.459	150.963	1.082557	0.065303	0.065042	153.94	36223.3	0.062115	0.133503	1153.08	90576.4
374	2.000000	1.092778	7.36873e+06	-57339.1	955.818	-29737.4	0.000000	0.000000	7.101658	198.69	NaN	0.000000	0.001612	0.001661	28.0814	72.6243	0.001861	39018.1	4.603011	172.292	194.327	1.092547	0.075263	0.075032	198.69	39018.1	0.071444	0.170010	1168.7	86457.3
374	2.000000	1.102818	7.36873e+06	-57339.1	955.818	-29737.4	0.000000	0.000000	7.114554	268.108	NaN	0.000000	0.001578	0.001641	28.0812	82.5336	0.001871	44110.3	2.837991	174.129	265.963	1.102465	0.085303	0.084950	268.108	44110.3	0.080745	0.210521	1273.54	87834.6
374	2.000000	1.112679	7.36873e+06	-57339.1	955.817	-29737.4	0.000000	0.000000	7.126742	324.667	NaN	0.000000	0.001609	0.001667	28.0825	91.5527	0.001832	49974.7	4.450282	171.526	317.333	1.112540	0.095164	0.095025	324.667	49974.7	0.090291	0.256288	1266.8	90190.2
374	2.000000	1.122828	7.36873e+06	-57339.1	955.818	-29737.4	0.000000	0.000000	7.139330	383.929	NaN	0.000000	0.001635	0.001680	28.0825	102.845	0.001779	57811.4	6.204058	168.683	386.813	1.122574	0.105314	0.105060	383.929	57811.4	0.100333	0.308937	1242.74	95027.9
374	2.000000	1.128384	7.36873e+06	-57339.1	955.818	-29737.4	0.000000	0.000000	7.146683	427.613	NaN	0.000000	0.001605	0.001696	28.0825	106.283	0.001706	62308.6	8.079754	-13.1879	429.78	1.127824	0.110869	0.110309	427.613	62308.6	0.105722	0.339087	1261.07	97761