Folder: unikorn_login/remote_trans/data/nanoindenter/0828-1/data/Data_2025-08-06,11h17m57s (part 89)

File: 2025-07-22_16-23-58_1_195.txt
2025-07-22, 16:23:58, 1
Index	Phase	Displacement	Time	Pos X	Pos Y	Pos Z	Rot A	Rot B	Piezo Z	Force A	Force B	Gripper	Voltage A	Voltage B	Temperature	Amplitude force	Amplitude pos	Stiffness	Phase shift	Phase excitation	Force A raw	Displacement raw	HMax	HMax raw	Real Force	Real Stiffness	Contact Depth	Area	Hardness	Reduced Mod.
[#]	[#]	[um]	[s]	[um]	[um]	[um]	[m°]	[m°]	[um]	[uN]	[uN]	[V]	[V]	[V]	[°C]	[uN]	[um]	[N/m]	[°]	[°]	[uN]	[um]	[um]	[um]	[uN]	[N/m]	[um]	[um^2]	[MPa]	[MPa]
195	1.000000	0.002722	7.36695e+06	-48389.1	955.818	-29763	0.000000	0.000000	6.002824	-0.021471	NaN	0.000000	0.001613	0.001724	28.079	0.055409	0.001003	55.2464	27.3399	-167.14	0.000143	0.001496	-1.068508	-1.069735	-0.021471	55.2464	-1.068217	-1.875978E+14	1.144526E-16	NaN
195	1.000000	0.042646	7.36695e+06	-48389.1	955.819	-29763	0.000000	0.000000	6.042750	0.027655	NaN	0.000000	0.001523	0.001710	28.08	0.083627	0.001952	42.8312	-93.2857	-166.732	0.053288	0.041303	-1.028584	-1.029928	0.027655	42.8312	-1.029068	-5.584041E+13	-4.952550E-16	NaN
195	1.000000	0.082653	7.36695e+06	-48389.1	955.818	-29763	0.000000	0.000000	6.082758	0.042033	NaN	0.000000	0.001587	0.001699	28.0801	0.063422	0.001956	32.4264	20.1554	-166.627	0.007447	0.081303	-0.988577	-0.989927	0.042033	32.4264	-0.989549	-1.640738E+13	-2.561815E-15	NaN
195	1.000000	0.122652	7.36695e+06	-48389.1	955.819	-29763	0.000000	0.000000	6.122754	-0.004427	NaN	0.000000	0.001577	0.001643	28.0802	0.096171	0.002009	47.8598	81.7069	-164.001	0.007422	0.121342	-0.948579	-0.949888	-0.004427	47.8598	-0.948509	-4.591141E+12	9.642109E-16	NaN
195	1.000000	0.162696	7.36695e+06	-48389.1	955.818	-29763	0.000000	0.000000	6.162800	0.034155	NaN	0.000000	0.001603	0.001721	28.079	0.195387	0.002136	91.4777	125.141	-164.017	-0.002350	0.161352	-0.908535	-0.909879	0.034155	91.4777	-0.908815	-1.337059E+12	-2.554491E-14	NaN
195	1.000000	0.202743	7.36695e+06	-48389.1	955.818	-29763	0.000000	0.000000	6.202848	0.054062	NaN	0.000000	0.001580	0.001722	28.0791	0.055939	0.002092	26.7446	-100.128	-164.639	0.031839	0.201405	-0.868487	-0.869825	0.054062	26.7446	-0.870003	-3.994709E+11	-1.353340E-13	NaN
195	1.000000	0.242749	7.36695e+06	-48389.1	955.818	-29763	0.000000	0.000000	6.242856	0.107442	NaN	0.000000	0.001551	0.001658	28.0788	0.039914	0.002020	19.7609	50.7415	-161.835	0.099977	0.241436	-0.828482	-0.829794	0.107442	19.7609	-0.832559	-1.243006E+11	-8.643715E-13	NaN
195	1.000000	0.282737	7.36695e+06	-48389.1	955.818	-29763	0.000000	0.000000	6.282843	0.084730	NaN	0.000000	0.001543	0.001693	28.0791	0.044874	0.001991	22.5367	-166.757	-164.47	0.012681	0.281409	-0.788493	-0.789821	0.084730	22.5367	-0.791313	-3.426996E+10	-2.472431E-12	NaN
195	1.000000	0.322741	7.36695e+06	-48389.1	955.818	-29763	0.000000	0.000000	6.322846	0.040567	NaN	0.000000	0.001571	0.001711	28.0802	0.058900	0.002073	28.4171	157.754	-163.035	0.058223	0.321406	-0.748489	-0.749824	0.040567	28.4171	-0.749560	-9.273188E+9	-4.374700E-12	NaN
195	1.000000	0.362777	7.36695e+06	-48389.1	955.819	-29763	0.000000	0.000000	6.362878	-0.058469	NaN	0.000000	0.001554	0.001697	28.08	0.056236	0.002091	26.8957	120.156	-164.089	-0.021212	0.361461	-0.708453	-0.709770	-0.058469	26.8957	-0.706823	-2.424836E+9	2.411275E-11	NaN
195	1.000000	0.402803	7.36695e+06	-48389.1	955.818	-29763	0.000000	0.000000	6.402906	0.007139	NaN	0.000000	0.001573	0.001703	28.08	0.034645	0.001988	17.4263	-144.994	-165.731	-0.043819	0.401437	-0.668428	-0.669793	0.007139	17.4263	-0.668735	-7.312619E+8	-9.763222E-12	NaN
195	1.000000	0.442850	7.36695e+06	-48389.1	955.819	-29763	0.000000	0.000000	6.442956	0.092515	NaN	0.000000	0.001584	0.001708	28.0791	0.050898	0.002024	25.1411	148.08	-164.661	0.097931	0.441535	-0.628381	-0.629695	0.092515	25.1411	-0.631140	-2.231950E+8	-4.145045E-10	NaN
195	1.000000	0.482816	7.36695e+06	-48389.1	955.818	-29763	0.000000	0.000000	6.482920	0.013141	NaN	0.000000	0.001577	0.001694	28.0788	0.034390	0.001952	17.6186	-48.3268	-163.455	-0.024238	0.481525	-0.588414	-0.589706	0.013141	17.6186	-0.588973	-5.868317E+7	-2.239313E-10	NaN
195	1.000000	0.522843	7.36695e+06	-48389.1	955.819	-29763	0.000000	0.000000	6.522945	-0.018223	NaN	0.000000	0.001535	0.001698	28.0789	0.056646	0.002005	28.2469	42.1084	-163.495	0.035490	0.521553	-0.548388	-0.549677	-0.018223	28.2469	-0.547904	-1.588240E+7	1.147357E-9	NaN
195	1.000000	0.562888	7.36695e+06	-48389.1	955.818	-29763	0.000000	0.000000	6.562992	0.027465	NaN	0.000000	0.001582	0.001701	28.0793	0.134218	0.002138	62.7829	-58.7039	-165.764	0.022692	0.561569	-0.508342	-0.509661	0.027465	62.7829	-0.508670	-4.52782e+06	-6.065929E-9	NaN
195	1.000000	0.602877	7.36695e+06	-48389.1	955.818	-29763	0.000000	0.000000	6.602980	0.011286	NaN	0.000000	0.001579	0.001698	28.0807	0.060214	0.002056	29.2871	-158.289	-160.653	0.073534	0.601532	-0.468353	-0.469699	0.011286	29.2871	-0.468642	-1.24842e+06	-9.039824E-9	NaN
195	1.000000	0.642893	7.36695e+06	-48389.1	955.817	-29763	0.000000	0.000000	6.642995	-0.010795	NaN	0.000000	0.001557	0.001729	28.0807	0.013055	0.002029	6.435450	-134.285	-167.029	-0.050414	0.641606	-0.428337	-0.429624	-0.010795	6.435450	-0.427079	-324135	3.330503E-8	NaN
195	1.000000	0.682936	7.36695e+06	-48389.1	955.818	-29763	0.000000	0.000000	6.683039	0.006727	NaN	0.000000	0.001573	0.001720	28.0804	0.110549	0.002092	52.854	141.202	-162.289	0.040165	0.681590	-0.388294	-0.389641	0.006727	52.854	-0.388390	-91227.5	-7.373616E-8	NaN
195	1.000000	0.722924	7.36695e+06	-48389.1	955.82	-29763	0.000000	0.000000	6.723028	0.046206	NaN	0.000000	0.001560	0.001662	28.0795	0.049428	0.001846	26.7705	-104.026	-164.95	0.069751	0.721628	-0.348307	-0.349602	0.046206	26.7705	-0.349601	-25189.2	-1.834338E-6	NaN
195	1.000000	0.762913	7.36695e+06	-48389.1	955.818	-29763	0.000000	0.000000	6.763018	0.048918	NaN	0.000000	0.001538	0.001672	28.079	0.102078	0.002038	50.0968	0.402281	-165.129	0.071028	0.761629	-0.308317	-0.309602	0.048918	50.0968	-0.309049	-6411.83	-7.629394E-6	NaN
195	1.000000	0.802967	7.36695e+06	-48389.1	955.818	-29763	0.000000	0.000000	6.803070	0.005987	NaN	0.000000	0.001553	0.001657	28.0788	0.038002	0.002069	18.3699	138.375	-168.474	0.069084	0.801672	-0.268263	-0.269559	0.005987	18.3699	-0.268508	-1580.68	-3.787618E-6	NaN
195	1.000000	0.842984	7.36695e+06	-48389.1	955.818	-29763	0.000000	0.000000	6.843087	0.002071	NaN	0.000000	0.001552	0.001694	28.0805	0.112986	0.001987	56.8763	-115.034	-163.883	0.024541	0.841690	-0.228246	-0.229540	0.002071	56.8763	-0.228273	-376.03	-5.508417E-6	NaN
195	1.000000	0.882988	7.36695e+06	-48389.1	955.818	-29763	0.000000	0.000000	6.883095	0.080846	NaN	0.000000	0.001569	0.001707	28.0803	0.094626	0.001989	47.5689	-121.07	-162.689	0.040105	0.881681	-0.188242	-0.189550	0.080846	47.5689	-0.189517	-88.2975	-0.000916	NaN
195	1.000000	0.923027	7.36695e+06	-48389.1	955.818	-29763	0.000000	0.000000	6.923129	-0.018697	NaN	0.000000	0.001597	0.001693	28.0804	0.015510	0.001880	8.248225	-88.2916	-165.217	0.008961	0.921667	-0.148203	-0.149563	-0.018697	8.248225	-0.146503	-15.6285	0.001196	NaN
195	1.000000	0.963038	7.36695e+06	-48389.1	955.819	-29763	0.000000	0.000000	6.963140	-0.022391	NaN	0.000000	0.001602	0.001686	28.0803	0.134931	0.002029	66.5174	-24.948	-162.612	0.011993	0.961691	-0.108192	-0.109539	-0.022391	66.5174	-0.107939	-2.717777	0.008239	NaN
195	1.000000	1.003043	7.36696e+06	-48389.1	955.82	-29763	0.000000	0.000000	7.003147	0.033965	NaN	0.000000	0.001627	0.001768	28.0788	0.027865	0.002073	13.4403	-89.5538	-162.83	-0.042941	1.001752	-0.068187	-0.069478	0.033965	13.4403	-0.070082	-0.342846	-0.099067	NaN
195	1.000000	1.043067	7.36696e+06	-48389.1	955.819	-29763	0.000000	0.000000	7.043170	0.008346	NaN	0.000000	0.001604	0.001744	28.0787	0.005493	0.001918	2.864309	32.5854	-165.26	-0.001707	1.041806	-0.028164	-0.029425	0.008346	2.864309	-0.030349	-0.023535	-0.354610	NaN
195	2.000000	1.081640	7.36696e+06	-48389.1	955.82	-29763	0.000000	0.000000	7.082114	9.030039	NaN	0.000000	0.001578	0.001843	28.0791	9.573806	0.001594	6007.34	11.6695	-176.627	8.939235	1.081183	0.010410	0.009953	9.030039	6007.34	0.009282	0.008395	1075.67	59903.2
195	2.000000	1.091546	7.36696e+06	-48389.1	955.819	-29763	0.000000	0.000000	7.092696	25.4669	NaN	0.000000	0.001585	0.001792	28.0809	19.9124	0.001810	11003.6	2.912177	-173.034	23.6475	1.091291	0.020316	0.020060	25.4669	11003.6	0.018580	0.020360	1250.81	70455.8
195	2.000000	1.101613	7.36696e+06	-48389.1	955.82	-29763	0.000000	0.000000	7.103810	50.9274	NaN	0.000000	0.001623	0.001816	28.0809	30.6759	0.001888	16251.2	6.754879	-178.475	53.2032	1.101243	0.030383	0.030012	50.9274	16251.2	0.028033	0.036765	1385.21	77435.8
195	2.000000	1.111472	7.36696e+06	-48389.1	955.82	-29763	0.000000	0.000000	7.114950	82.0957	NaN	0.000000	0.001573	0.001793	28.0813	39.7183	0.001833	21665	6.507733	177.226	79.0224	1.111219	0.040242	0.039988	82.0957	21665	0.037400	0.057481	1428.22	82560.2
195	2.000000	1.121496	7.36696e+06	-48389.1	955.819	-29763	0.000000	0.000000	7.126740	125.055	NaN	0.000000	0.001581	0.001760	28.0807	50.1964	0.001862	26965.5	4.726838	177.044	123.618	1.121219	0.050265	0.049989	125.055	26965.5	0.046787	0.082742	1511.39	85648.5
195	2.000000	1.131458	7.36696e+06	-48389.1	955.819	-29763	0.000000	0.000000	7.138662	172.717	NaN	0.000000	0.001585	0.001787	28.0791	60.5022	0.001743	34702.1	2.890737	176.509	168.64	1.131321	0.060228	0.060090	172.717	34702.1	0.056495	0.113541	1521.19	94091.8
195	2.000000	1.141503	7.36696e+06	-48389.1	955.82	-29763	0.000000	0.000000	7.150953	227.348	NaN	0.000000	0.001595	0.001847	28.0792	70.677	0.001854	38120.9	9.979398	169.909	225.95	1.141191	0.070272	0.069960	227.348	38120.9	0.065799	0.147421	1542.16	90710.1
195	2.000000	1.151509	7.36696e+06	-48389.1	955.82	-29763	0.000000	0.000000	7.163215	282.207	NaN	0.000000	0.001597	0.001760	28.079	79.481	0.001883	42212.3	5.420962	174.091	281.173	1.151111	0.080279	0.079881	282.207	42212.3	0.075265	0.186161	1515.93	89385.6
195	2.000000	1.161423	7.36696e+06	-48389.1	955.82	-29763	0.000000	0.000000	7.175484	339.476	NaN	0.000000	0.001590	0.001709	28.0803	86.238	0.001811	47620.7	1.124553	176.446	335.949	1.161237	0.090193	0.090007	339.476	47620.7	0.084846	0.229669	1478.11	90785.9
195	2.000000	1.171406	7.36696e+06	-48389.1	955.819	-29763	0.000000	0.000000	7.187968	400.317	NaN	0.000000	0.001636	0.001742	28.0803	94.4497	0.001842	51263.1	2.157071	175.124	397.275	1.171156	0.100175	0.099926	400.317	51263.1	0.094319	0.276852	1445.96	89013.2
195	2.000000	1.179398	7.36696e+06	-48389.1	955.82	-29763	0.000000	0.000000	7.198278	456.703	NaN	0.000000	0.001636	0.001770	28.0806	100.022	0.001700	58843	2.720266	173.685	452.995	1.179127	0.108167	0.107896	456.703	58843	0.102346	0.320048	1426.98	95030

File: 2025-07-22_16-23-58_1_196.txt
2025-07-22, 16:23:58, 1
Index	Phase	Displacement	Time	Pos X	Pos Y	Pos Z	Rot A	Rot B	Piezo Z	Force A	Force B	Gripper	Voltage A	Voltage B	Temperature	Amplitude force	Amplitude pos	Stiffness	Phase shift	Phase excitation	Force A raw	Displacement raw	HMax	HMax raw	Real Force	Real Stiffness	Contact Depth	Area	Hardness	Reduced Mod.
[#]	[#]	[um]	[s]	[um]	[um]	[um]	[m°]	[m°]	[um]	[uN]	[uN]	[V]	[V]	[V]	[°C]	[uN]	[um]	[N/m]	[°]	[°]	[uN]	[um]	[um]	[um]	[uN]	[N/m]	[um]	[um^2]	[MPa]	[MPa]
196	1.000000	0.002951	7.36696e+06	-48439.1	955.817	-29762.9	0.000000	0.000000	6.002821	0.049135	NaN	0.000000	0.001516	0.001814	28.08	0.038236	0.000988	38.6979	-173.518	-165.72	0.015337	0.001728	-1.040308	-1.041531	0.049135	38.6979	-1.041260	-8.145424E+13	-6.032177E-16	NaN
196	1.000000	0.042898	7.36696e+06	-48439.1	955.819	-29762.9	0.000000	0.000000	6.042767	0.015312	NaN	0.000000	0.001572	0.001771	28.0794	0.098124	0.001879	52.2248	-125.256	-165.546	0.037546	0.041647	-1.000361	-1.001612	0.015312	52.2248	-1.000581	-2.309872E+13	-6.629124E-16	NaN
196	1.000000	0.082901	7.36696e+06	-48439.1	955.818	-29762.9	0.000000	0.000000	6.082771	0.029440	NaN	0.000000	0.001687	0.001803	28.0784	0.117595	0.001953	60.2099	-18.0805	-165.755	-0.043437	0.081626	-0.960358	-0.961633	0.029440	60.2099	-0.960725	-6.708684E+12	-4.388280E-15	NaN
196	1.000000	0.122897	7.36696e+06	-48439.1	955.818	-29762.9	0.000000	0.000000	6.122766	0.006915	NaN	0.000000	0.001609	0.001788	28.0783	0.066015	0.001875	35.2164	179.526	-164	0.061444	0.121568	-0.920361	-0.921691	0.006915	35.2164	-0.920509	-1.923413E+12	-3.594966E-15	NaN
196	1.000000	0.162929	7.36696e+06	-48439.1	955.819	-29762.9	0.000000	0.000000	6.162798	0.006084	NaN	0.000000	0.001628	0.001772	28.0781	0.082897	0.001977	41.941	12.4478	-164.955	-0.045072	0.161623	-0.880330	-0.881635	0.006084	41.941	-0.880439	-5.528907E+11	-1.100327E-14	NaN
196	1.000000	0.202944	7.36696e+06	-48439.1	955.818	-29762.9	0.000000	0.000000	6.202815	0.067410	NaN	0.000000	0.001640	0.001781	28.0782	0.032411	0.002058	15.7454	-45.6681	-163.948	0.042894	0.201596	-0.840315	-0.841663	0.067410	15.7454	-0.843526	-1.750054E+11	-3.851870E-13	NaN
196	1.000000	0.242960	7.36696e+06	-48439.1	955.819	-29762.9	0.000000	0.000000	6.242825	-0.076193	NaN	0.000000	0.001660	0.001776	28.0793	0.124068	0.001869	66.3647	160.781	-167.24	-0.001356	0.241669	-0.800299	-0.801589	-0.076193	66.3647	-0.799438	-4.418070E+10	1.724583E-12	NaN
196	1.000000	0.282962	7.36696e+06	-48439.1	955.818	-29762.9	0.000000	0.000000	6.282832	0.037888	NaN	0.000000	0.001669	0.001770	28.0796	0.048594	0.001951	24.9013	-167.465	-164.495	0.011829	0.281662	-0.760296	-0.761596	0.037888	24.9013	-0.761438	-1.345424E+10	-2.816098E-12	NaN
196	1.000000	0.323024	7.36696e+06	-48439.1	955.819	-29762.9	0.000000	0.000000	6.322891	-0.048725	NaN	0.000000	0.001650	0.001761	28.0794	0.053659	0.002137	25.1085	31.0432	-164.829	0.028726	0.321675	-0.720235	-0.721584	-0.048725	25.1085	-0.718779	-3.530380E+9	1.380175E-11	NaN
196	1.000000	0.363034	7.36696e+06	-48439.1	955.818	-29762.9	0.000000	0.000000	6.362904	0.014399	NaN	0.000000	0.001591	0.001793	28.078	0.166951	0.001826	91.4056	17.699	-167.454	-0.005691	0.361743	-0.680224	-0.681515	0.014399	91.4056	-0.680342	-1.054115E+9	-1.365944E-11	NaN
196	1.000000	0.403015	7.36696e+06	-48439.1	955.818	-29762.9	0.000000	0.000000	6.402885	0.024161	NaN	0.000000	0.001573	0.001800	28.0781	0.099458	0.001949	51.0234	139.045	-165.209	-0.070764	0.401779	-0.640244	-0.641480	0.024161	51.0234	-0.640599	-3.009578E+8	-8.028097E-11	NaN
196	1.000000	0.443065	7.36696e+06	-48439.1	955.818	-29762.9	0.000000	0.000000	6.442933	-0.011425	NaN	0.000000	0.001545	0.001725	28.0786	0.057186	0.002099	27.2506	-125.139	-163.584	0.033377	0.441773	-0.600194	-0.601486	-0.011425	27.2506	-0.599879	-8.294610E+7	1.377366E-10	NaN
196	1.000000	0.483067	7.36696e+06	-48439.1	955.818	-29762.9	0.000000	0.000000	6.482938	0.061469	NaN	0.000000	0.001612	0.001688	28.0792	0.061293	0.002016	30.4094	-97.1183	-164.46	0.106081	0.481727	-0.560191	-0.561531	0.061469	30.4094	-0.561708	-2.466021E+7	-2.492624E-9	NaN
196	1.000000	0.523094	7.36696e+06	-48439.1	955.818	-29762.9	0.000000	0.000000	6.522962	-0.026811	NaN	0.000000	0.001582	0.001744	28.0793	0.106123	0.002030	52.2817	-87.737	-165.461	-0.067468	0.521791	-0.520164	-0.521467	-0.026811	52.2817	-0.519780	-6.46449e+06	4.147396E-9	NaN
196	1.000000	0.563103	7.36696e+06	-48439.1	955.818	-29762.9	0.000000	0.000000	6.562974	0.040053	NaN	0.000000	0.001671	0.001678	28.0792	0.068542	0.002035	33.6826	-135.664	-163.507	0.009540	0.561800	-0.480155	-0.481459	0.040053	33.6826	-0.481047	-1.86287e+06	-2.150084E-8	NaN
196	1.000000	0.603125	7.36696e+06	-48439.1	955.818	-29762.9	0.000000	0.000000	6.602993	-0.032234	NaN	0.000000	0.001646	0.001745	28.0793	0.101345	0.002117	47.873	-138.204	-162.775	-0.043435	0.601830	-0.440133	-0.441429	-0.032234	47.873	-0.439628	-487658	6.609935E-8	NaN
196	1.000000	0.643146	7.36696e+06	-48439.1	955.818	-29762.9	0.000000	0.000000	6.643017	0.041356	NaN	0.000000	0.001669	0.001758	28.0783	0.065678	0.001956	33.575	-167.437	-166.686	0.030612	0.641848	-0.400112	-0.401410	0.041356	33.575	-0.401036	-138283	-2.990692E-7	NaN
196	1.000000	0.683150	7.36696e+06	-48439.1	955.819	-29762.9	0.000000	0.000000	6.683018	-0.000704	NaN	0.000000	0.001684	0.001764	28.0783	0.062771	0.002175	28.8576	-61.6335	-161.727	0.005219	0.681880	-0.360109	-0.361379	-0.000704	28.8576	-0.360091	-35740.2	1.971150E-8	NaN
196	1.000000	0.723204	7.36696e+06	-48439.1	955.819	-29762.9	0.000000	0.000000	6.723074	0.049513	NaN	0.000000	0.001683	0.001749	28.0785	0.194253	0.001982	97.992	76.9802	-162.154	0.041579	0.721867	-0.320055	-0.321392	0.049513	97.992	-0.320434	-9441.08	-5.244374E-6	NaN
196	1.000000	0.763206	7.36696e+06	-48439.1	955.818	-29762.9	0.000000	0.000000	6.763074	-0.022256	NaN	0.000000	0.001582	0.001752	28.0795	0.065928	0.002040	32.3222	133.109	-164.596	0.077014	0.761847	-0.280052	-0.281412	-0.022256	32.3222	-0.279536	-2322.57	9.582681E-6	NaN
196	1.000000	0.803199	7.36696e+06	-48439.1	955.818	-29762.9	0.000000	0.000000	6.803068	-0.000256	NaN	0.000000	0.001628	0.001756	28.0792	0.092202	0.002010	45.8615	-99.2904	-164.341	0.014597	0.801905	-0.240059	-0.241353	-0.000256	45.8615	-0.240055	-575.989	4.444056E-7	NaN
196	1.000000	0.843225	7.36696e+06	-48439.1	955.818	-29762.9	0.000000	0.000000	6.843094	0.006373	NaN	0.000000	0.001546	0.001713	28.0792	0.020980	0.002062	10.1731	-90.9568	-164.363	-0.037777	0.841909	-0.200033	-0.201349	0.006373	10.1731	-0.200503	-134.265	-4.746747E-5	NaN
196	1.000000	0.883226	7.36696e+06	-48439.1	955.819	-29762.9	0.000000	0.000000	6.883094	-0.020020	NaN	0.000000	0.001591	0.001720	28.0793	0.080315	0.001894	42.4016	-55.038	-162.291	0.001395	0.881901	-0.160033	-0.161357	-0.020020	42.4016	-0.159678	-27.0563	0.000740	NaN
196	1.000000	0.923274	7.36696e+06	-48439.1	955.818	-29762.9	0.000000	0.000000	6.923142	-0.016160	NaN	0.000000	0.001600	0.001706	28.0782	0.063971	0.001979	32.3234	102.73	-165.296	0.032923	0.921950	-0.119985	-0.121309	-0.016160	32.3234	-0.119610	-4.744670	0.003406	NaN
196	1.000000	0.963268	7.36696e+06	-48439.1	955.818	-29762.9	0.000000	0.000000	6.963139	0.073820	NaN	0.000000	0.001585	0.001720	28.078	0.109376	0.001928	56.7266	-46.1934	-166.939	0.088789	0.961914	-0.079991	-0.081344	0.073820	56.7266	-0.080967	-0.654320	-0.112819	NaN
196	1.000000	1.003256	7.36697e+06	-48439.1	955.819	-29762.9	0.000000	0.000000	7.003125	-0.006406	NaN	0.000000	0.001635	0.001732	28.0781	0.080770	0.001951	41.4047	68.0878	-164.449	-0.023235	1.002018	-0.040002	-0.041241	-0.006406	41.4047	-0.039886	-0.044864	0.142782	NaN
196	1.000000	1.043309	7.36697e+06	-48439.1	955.82	-29762.9	0.000000	0.000000	7.043181	0.074192	NaN	0.000000	0.001583	0.001714	28.0791	0.149985	0.001953	76.8017	14.3112	-166.638	-0.048081	1.041964	5.026877E-5	-0.001295	0.074192	76.8017	-0.000674	-0.000497	-149.161	NaN
196	2.000000	1.060807	7.36697e+06	-48439.1	955.82	-29762.9	0.000000	0.000000	7.061355	16.5323	NaN	0.000000	0.001602	0.001712	28.0793	16.3401	0.001751	9331.16	7.899555	-176.95	16.8324	1.060460	0.017548	0.017202	16.5323	9331.16	0.016219	0.016946	975.607	65490.8
196	2.000000	1.070727	7.36697e+06	-48439.1	955.819	-29762.9	0.000000	0.000000	7.072207	39.1992	NaN	0.000000	0.001582	0.001647	28.0794	26.2186	0.001791	14639.2	6.668729	-179.141	38.7112	1.070405	0.027468	0.027147	39.1992	14639.2	0.025460	0.031857	1230.46	74935.3
196	2.000000	1.080693	7.36697e+06	-48439.1	955.819	-29762.9	0.000000	0.000000	7.083365	68.1691	NaN	0.000000	0.001593	0.001708	28.0783	35.1648	0.001748	20120	2.426105	-178.316	66.2227	1.080412	0.037435	0.037153	68.1691	20120	0.034894	0.051499	1323.7	81003.3
196	2.000000	1.090693	7.36697e+06	-48439.1	955.82	-29762.9	0.000000	0.000000	7.094936	106.383	NaN	0.000000	0.001573	0.001679	28.078	44.8234	0.001780	25179.7	3.468831	179.121	104.139	1.090321	0.047435	0.047063	106.383	25179.7	0.044266	0.075517	1408.73	83714.6
196	2.000000	1.100778	7.36697e+06	-48439.1	955.82	-29762.9	0.000000	0.000000	7.106706	147.375	NaN	0.000000	0.001554	0.001702	28.078	54.9656	0.001777	30930.4	3.837367	176.88	150.237	1.100467	0.057520	0.057209	147.375	30930.4	0.053946	0.105000	1403.57	87209.5
196	2.000000	1.110646	7.36697e+06	-48439.1	955.82	-29762.9	0.000000	0.000000	7.118636	197.526	NaN	0.000000	0.001618	0.001743	28.0779	63.685	0.001697	37530.9	5.371679	173.401	195.548	1.110446	0.067387	0.067187	197.526	37530.9	0.063440	0.138432	1426.88	92160.4
196	2.000000	1.120648	7.36697e+06	-48439.1	955.82	-29762.9	0.000000	0.000000	7.131007	255.146	NaN	0.000000	0.001601	0.001729	28.0806	73.1164	0.001788	40889.8	4.381181	174.128	251.829	1.120393	0.077389	0.077134	255.146	40889.8	0.072709	0.175283	1455.62	89231.3
196	2.000000	1.130612	7.36697e+06	-48439.1	955.82	-29762.9	0.000000	0.000000	7.143781	323.475	NaN	0.000000	0.001576	0.001727	28.0792	82.9338	0.001830	45317.8	2.665361	175.494	320.364	1.130318	0.087354	0.087060	323.475	45317.8	0.082000	0.216300	1495.49	89025.3
196	2.000000	1.140650	7.36697e+06	-48439.1	955.822	-29762.9	0.000000	0.000000	7.156639	392.08	NaN	0.000000	0.001540	0.001710	28.0792	93.1656	0.001801	51725	3.648886	173.649	391.957	1.140422	0.097391	0.097163	392.08	51725	0.091706	0.263428	1488.37	92075.2
196	2.000000	1.150770	7.36697e+06	-48439.1	955.82	-29762.9	0.000000	0.000000	7.170013	471.225	NaN	0.000000	0.001579	0.001710	28.078	102.132	0.001678	60871.7	6.181577	170.18	477.533	1.150302	0.107511	0.107043	471.225	60871.7	0.101706	0.316492	1488.9	98857
196	2.000000	1.151476	7.36697e+06	-48439.1	955.821	-29762.9	0.000000	0.000000	7.171182	482.493	NaN	0.000000	0.001546	0.001741	28.0782	101.825	0.001816	56060.9	3.942403	172.889	473.999	1.151210	0.108217	0.107951	482.493	56060.9	0.101762	0.316806	1522.99	90999.1