Folder: unikorn_login/remote_trans/data/nanoindenter/0828-1/data/Data_2025-08-06,11h17m57s (part 39)

File: 2025-07-22_16-23-58_1_76.txt
2025-07-22, 16:23:58, 1
Index	Phase	Displacement	Time	Pos X	Pos Y	Pos Z	Rot A	Rot B	Piezo Z	Force A	Force B	Gripper	Voltage A	Voltage B	Temperature	Amplitude force	Amplitude pos	Stiffness	Phase shift	Phase excitation	Force A raw	Displacement raw	HMax	HMax raw	Real Force	Real Stiffness	Contact Depth	Area	Hardness	Reduced Mod.
[#]	[#]	[um]	[s]	[um]	[um]	[um]	[m°]	[m°]	[um]	[uN]	[uN]	[V]	[V]	[V]	[°C]	[uN]	[um]	[N/m]	[°]	[°]	[uN]	[um]	[um]	[um]	[uN]	[N/m]	[um]	[um^2]	[MPa]	[MPa]
76	1.000000	0.002731	7.36579e+06	-42439.1	955.817	-29783.3	0.000000	0.000000	6.002800	-0.011297	NaN	0.000000	0.001621	0.001714	28.1225	0.074596	0.000978	76.2565	-84.5243	-168.089	-0.012701	0.001496	-1.059629	-1.060863	-0.011297	76.2565	-1.059517	-1.433298E+14	7.881659E-17	NaN
76	1.000000	0.042679	7.36579e+06	-42439.1	955.819	-29783.3	0.000000	0.000000	6.042749	0.008027	NaN	0.000000	0.001625	0.001700	28.1209	0.157609	0.002187	72.0667	109.837	-167.418	-0.048980	0.041364	-1.019681	-1.020996	0.008027	72.0667	-1.019764	-4.185824E+13	-1.917735E-16	NaN
76	1.000000	0.082709	7.36579e+06	-42439.1	955.818	-29783.3	0.000000	0.000000	6.082779	0.004707	NaN	0.000000	0.001603	0.001710	28.1213	0.053464	0.001960	27.2832	-37.2258	-166.073	0.048729	0.081329	-0.979650	-0.981031	0.004707	27.2832	-0.979780	-1.211836E+13	-3.884360E-16	NaN
76	1.000000	0.122709	7.36579e+06	-42439.1	955.818	-29783.3	0.000000	0.000000	6.122781	0.064473	NaN	0.000000	0.001598	0.001677	28.1215	0.086947	0.002009	43.2747	-137.132	-162.081	0.062544	0.121426	-0.939651	-0.940934	0.064473	43.2747	-0.940768	-3.609941E+12	-1.785984E-14	NaN
76	1.000000	0.162717	7.36579e+06	-42439.1	955.818	-29783.3	0.000000	0.000000	6.162786	-0.022762	NaN	0.000000	0.001584	0.001767	28.1227	0.116104	0.002062	56.3024	-83.2353	-166.859	0.046011	0.161460	-0.899642	-0.900900	-0.022762	56.3024	-0.899339	-9.957193E+11	2.286006E-14	NaN
76	1.000000	0.202749	7.36579e+06	-42439.1	955.818	-29783.3	0.000000	0.000000	6.202815	-0.067816	NaN	0.000000	0.001584	0.001683	28.1209	0.056171	0.001980	28.3731	-120.023	-165.201	-9.661016E-5	0.201492	-0.859611	-0.860868	-0.067816	28.3731	-0.857818	-2.732674E+11	2.481671E-13	NaN
76	1.000000	0.242756	7.36579e+06	-42439.1	955.819	-29783.3	0.000000	0.000000	6.242824	-0.028015	NaN	0.000000	0.001565	0.001685	28.121	0.058779	0.002108	27.8799	142.11	-166.174	0.010785	0.241463	-0.819604	-0.820896	-0.028015	27.8799	-0.818850	-8.102558E+10	3.457501E-13	NaN
76	1.000000	0.282775	7.36579e+06	-42439.1	955.818	-29783.3	0.000000	0.000000	6.282847	0.062296	NaN	0.000000	0.001570	0.001718	28.1194	0.056881	0.001852	30.7197	13.4948	-163.899	-0.066044	0.281544	-0.779585	-0.780815	0.062296	30.7197	-0.781106	-2.490323E+10	-2.501534E-12	NaN
76	1.000000	0.322806	7.36579e+06	-42439.1	955.819	-29783.3	0.000000	0.000000	6.322876	0.010922	NaN	0.000000	0.001568	0.001712	28.1204	0.038119	0.001895	20.1162	-61.5414	-163.441	-0.042483	0.321498	-0.739554	-0.740862	0.010922	20.1162	-0.739961	-6.863141E+9	-1.591382E-12	NaN
76	1.000000	0.362839	7.36579e+06	-42439.1	955.819	-29783.3	0.000000	0.000000	6.362908	-0.015199	NaN	0.000000	0.001601	0.001670	28.1204	0.063124	0.001870	33.7576	125.884	-168.147	-0.034909	0.361527	-0.699521	-0.700833	-0.015199	33.7576	-0.699183	-1.907097E+9	7.969639E-12	NaN
76	1.000000	0.402834	7.36579e+06	-42439.1	955.818	-29783.3	0.000000	0.000000	6.402900	-0.074677	NaN	0.000000	0.001598	0.001670	28.1213	0.059999	0.002124	28.2466	-1.872458	-166.125	-0.001056	0.401504	-0.659526	-0.660856	-0.074677	28.2466	-0.657543	-5.138233E+8	1.453365E-10	NaN
76	1.000000	0.442834	7.36579e+06	-42439.1	955.818	-29783.3	0.000000	0.000000	6.442903	-0.002584	NaN	0.000000	0.001609	0.001674	28.1204	0.053308	0.002056	25.9255	88.1313	-167.58	0.040458	0.441540	-0.619526	-0.620820	-0.002584	25.9255	-0.619451	-1.541997E+8	1.675860E-11	NaN
76	1.000000	0.482869	7.36579e+06	-42439.1	955.818	-29783.3	0.000000	0.000000	6.482938	-0.009050	NaN	0.000000	0.001588	0.001648	28.1212	0.032036	0.002062	15.533	115.472	-169.033	0.033594	0.481516	-0.579491	-0.580843	-0.009050	15.533	-0.579054	-4.282237E+7	2.113265E-10	NaN
76	1.000000	0.522868	7.36579e+06	-42439.1	955.818	-29783.3	0.000000	0.000000	6.522940	0.076025	NaN	0.000000	0.001603	0.001630	28.1186	0.019403	0.002099	9.242192	128.423	-164.337	0.033981	0.521561	-0.539492	-0.540799	0.076025	9.242192	-0.545661	-1.478573E+7	-5.141788E-9	NaN
76	1.000000	0.562922	7.36579e+06	-42439.1	955.818	-29783.3	0.000000	0.000000	6.562992	0.031639	NaN	0.000000	0.001496	0.001651	28.1193	0.031364	0.002082	15.0656	75.0122	-170.098	0.058988	0.561643	-0.499438	-0.500716	0.031639	15.0656	-0.501013	-3.54122e+06	-8.934396E-9	NaN
76	1.000000	0.602901	7.36579e+06	-42439.1	955.818	-29783.3	0.000000	0.000000	6.602966	-0.116068	NaN	0.000000	0.001645	0.001623	28.1182	0.052093	0.001912	27.2492	-166.941	-162.701	-0.085768	0.601613	-0.459459	-0.460747	-0.116068	27.2492	-0.456264	-836558	1.387445E-7	NaN
76	1.000000	0.642940	7.36579e+06	-42439.1	955.819	-29783.3	0.000000	0.000000	6.643009	0.004818	NaN	0.000000	0.001522	0.001662	28.1201	0.046196	0.001982	23.3101	29.9633	-166.081	0.014907	0.641654	-0.419420	-0.420706	0.004818	23.3101	-0.419575	-253738	-1.898622E-8	NaN
76	1.000000	0.682930	7.36579e+06	-42439.1	955.819	-29783.3	0.000000	0.000000	6.682998	-0.018010	NaN	0.000000	0.001548	0.001682	28.1196	0.048975	0.001971	24.8525	17.8914	-165.841	-0.033298	0.681630	-0.379430	-0.380730	-0.018010	24.8525	-0.378886	-66665.9	2.701485E-7	NaN
76	1.000000	0.722968	7.36579e+06	-42439.1	955.819	-29783.3	0.000000	0.000000	6.723036	-0.021462	NaN	0.000000	0.001569	0.001627	28.1201	0.030560	0.002072	14.7484	80.3195	-165.289	0.022376	0.721662	-0.339392	-0.340698	-0.021462	14.7484	-0.338300	-17249.3	1.244220E-6	NaN
76	1.000000	0.762956	7.36579e+06	-42439.1	955.818	-29783.3	0.000000	0.000000	6.763026	0.015798	NaN	0.000000	0.001568	0.001631	28.1194	0.058272	0.002191	26.5948	-69.6006	-165.926	0.032433	0.761660	-0.299404	-0.300700	0.015798	26.5948	-0.299849	-4681.55	-3.374602E-6	NaN
76	1.000000	0.803014	7.36579e+06	-42439.1	955.817	-29783.3	0.000000	0.000000	6.803082	-0.027394	NaN	0.000000	0.001616	0.001627	28.1187	0.106273	0.001892	56.1556	5.019325	-166.128	-0.060117	0.801689	-0.259346	-0.260671	-0.027394	56.1556	-0.258980	-1130.52	2.423095E-5	NaN
76	1.000000	0.843029	7.36579e+06	-42439.1	955.818	-29783.3	0.000000	0.000000	6.843100	0.049633	NaN	0.000000	0.001693	0.001665	28.1168	0.121304	0.001889	64.2263	159.907	-165.219	0.027557	0.841694	-0.219331	-0.220666	0.049633	64.2263	-0.219910	-276.851	-0.000179	NaN
76	1.000000	0.883006	7.36579e+06	-42439.1	955.818	-29783.3	0.000000	0.000000	6.883075	-0.028009	NaN	0.000000	0.001623	0.001658	28.1181	0.073087	0.001903	38.4046	-16.3733	-168.014	-0.021783	0.881719	-0.179353	-0.180641	-0.028009	38.4046	-0.178806	-58.2285	0.000481	NaN
76	1.000000	0.923051	7.36579e+06	-42439.1	955.817	-29783.3	0.000000	0.000000	6.923121	0.015960	NaN	0.000000	0.001620	0.001602	28.1181	0.096607	0.001938	49.8414	50.7639	-170.67	-0.083633	0.921657	-0.139309	-0.140703	0.015960	49.8414	-0.139549	-11.6008	-0.001376	NaN
76	1.000000	0.963060	7.36579e+06	-42439.1	955.819	-29783.3	0.000000	0.000000	6.963126	-0.067266	NaN	0.000000	0.001666	0.001637	28.1197	0.048757	0.002015	24.201	106.115	-164.574	-0.018129	0.961763	-0.099300	-0.100596	-0.067266	24.201	-0.097215	-1.583351	0.042483	NaN
76	1.000000	1.003079	7.36579e+06	-42439.1	955.819	-29783.3	0.000000	0.000000	7.003146	-0.067557	NaN	0.000000	0.001605	0.001667	28.1176	0.057147	0.002041	28.0046	149.451	-165.294	-0.112065	1.001790	-0.059281	-0.060570	-0.067557	28.0046	-0.057471	-0.152189	0.443904	NaN
76	1.000000	1.043081	7.36579e+06	-42439.1	955.818	-29783.3	0.000000	0.000000	7.043150	0.005799	NaN	0.000000	0.001598	0.001663	28.1181	0.045275	0.001964	23.0577	139.001	-166.885	0.077797	1.041805	-0.019279	-0.020555	0.005799	23.0577	-0.019468	-0.012175	-0.476331	NaN
76	2.000000	1.073725	7.36579e+06	-42439.1	955.819	-29783.3	0.000000	0.000000	7.074292	12.1166	NaN	0.000000	0.001579	0.001676	28.1162	12.0931	0.001751	6907.16	6.851373	-176.424	11.4051	1.073366	0.011365	0.011007	12.1166	6907.16	0.010049	0.009236	1311.82	65662.9
76	2.000000	1.083668	7.36579e+06	-42439.1	955.818	-29783.3	0.000000	0.000000	7.084905	28.4122	NaN	0.000000	0.001540	0.001727	28.117	21.9426	0.001712	12817	9.422082	177.363	27.887	1.083365	0.021309	0.021005	28.4122	12817	0.019646	0.021989	1292.1	78969
76	2.000000	1.093640	7.36579e+06	-42439.1	955.82	-29783.3	0.000000	0.000000	7.095852	52.1326	NaN	0.000000	0.001558	0.001690	28.1154	31.4607	0.001853	16980.2	5.871252	179.114	51.9413	1.093355	0.031280	0.030995	52.1326	16980.2	0.028978	0.038652	1348.78	78910.2
76	2.000000	1.103712	7.36579e+06	-42439.1	955.819	-29783.3	0.000000	0.000000	7.107102	80.7985	NaN	0.000000	0.001598	0.001700	28.1179	39.772	0.001854	21449.6	6.673654	177.318	84.4339	1.103321	0.041352	0.040961	80.7985	21449.6	0.038527	0.060278	1340.44	79820.4
76	2.000000	1.113610	7.36579e+06	-42439.1	955.819	-29783.3	0.000000	0.000000	7.118505	117.431	NaN	0.000000	0.001555	0.001667	28.1166	49.981	0.001717	29108.7	4.150859	174.657	116.652	1.113298	0.051250	0.050938	117.431	29108.7	0.048224	0.087003	1349.73	90163
76	2.000000	1.123537	7.36579e+06	-42439.1	955.82	-29783.3	0.000000	0.000000	7.130348	164.023	NaN	0.000000	0.001527	0.001689	28.1174	58.4308	0.001715	34070.8	1.603594	176.056	160.114	1.123296	0.061178	0.060936	164.023	34070.8	0.057567	0.117229	1399.17	90915.6
76	2.000000	1.133569	7.36579e+06	-42439.1	955.82	-29783.3	0.000000	0.000000	7.143333	235.859	NaN	0.000000	0.001541	0.001708	28.1153	69.2089	0.001724	40152.8	4.574321	173.062	235.362	1.133167	0.071210	0.070807	235.859	40152.8	0.066804	0.151331	1558.56	94302.7
76	2.000000	1.143524	7.36579e+06	-42439.1	955.82	-29783.3	0.000000	0.000000	7.155980	301.386	NaN	0.000000	0.001668	0.001740	28.1167	79.3091	0.001885	42080.7	2.143515	174.693	298.666	1.143281	0.081164	0.080921	301.386	42080.7	0.075792	0.188446	1599.33	88565.3
76	2.000000	1.153636	7.36579e+06	-42439.1	955.82	-29783.3	0.000000	0.000000	7.168960	371.15	NaN	0.000000	0.001597	0.001705	28.115	88.1858	0.001803	48897.4	2.317104	173.198	373.616	1.153303	0.091277	0.090943	371.15	48897.4	0.085584	0.233194	1591.59	92512.4
76	2.000000	1.163546	7.36579e+06	-42439.1	955.821	-29783.3	0.000000	0.000000	7.181938	445.815	NaN	0.000000	0.001570	0.001717	28.1158	97.7507	0.001760	55542.7	3.875279	171.006	446.323	1.163374	0.101186	0.101015	445.815	55542.7	0.095166	0.281275	1584.98	95682.9
76	2.000000	1.168943	7.36579e+06	-42439.1	955.819	-29783.3	0.000000	0.000000	7.189565	500.069	NaN	0.000000	0.001571	0.001652	28.0826	101.827	0.001819	55988.6	6.438399	-11.8062	492.414	1.168620	0.106583	0.106261	500.069	55988.6	0.099884	0.306487	1631.62	92398.9

File: 2025-07-22_16-23-58_1_77.txt
2025-07-22, 16:23:58, 1
Index	Phase	Displacement	Time	Pos X	Pos Y	Pos Z	Rot A	Rot B	Piezo Z	Force A	Force B	Gripper	Voltage A	Voltage B	Temperature	Amplitude force	Amplitude pos	Stiffness	Phase shift	Phase excitation	Force A raw	Displacement raw	HMax	HMax raw	Real Force	Real Stiffness	Contact Depth	Area	Hardness	Reduced Mod.
[#]	[#]	[um]	[s]	[um]	[um]	[um]	[m°]	[m°]	[um]	[uN]	[uN]	[V]	[V]	[V]	[°C]	[uN]	[um]	[N/m]	[°]	[°]	[uN]	[um]	[um]	[um]	[uN]	[N/m]	[um]	[um^2]	[MPa]	[MPa]
77	1.000000	0.002182	7.36579e+06	-42489.1	955.818	-29783.1	0.000000	0.000000	6.002793	-0.113680	NaN	0.000000	0.001608	0.001723	28.1098	0.085927	0.000953	90.1441	30.3147	-174.602	-0.079771	0.000996	-0.742057	-0.743243	-0.113680	90.1441	-0.741111	-7.115231E+9	1.597699E-11	NaN
77	1.000000	0.034124	7.36579e+06	-42489.1	955.818	-29783.1	0.000000	0.000000	6.034737	-0.066540	NaN	0.000000	0.001595	0.001717	28.1106	0.108495	0.001867	58.1166	6.408077	-162.414	0.011806	0.032812	-0.710114	-0.711427	-0.066540	58.1166	-0.709256	-2.617522E+9	2.542107E-11	NaN
77	1.000000	0.066138	7.36579e+06	-42489.1	955.819	-29783.1	0.000000	0.000000	6.066752	-0.048583	NaN	0.000000	0.001624	0.001705	28.11	0.109725	0.001972	55.629	69.8189	-167.736	-0.046059	0.064819	-0.678101	-0.679420	-0.048583	55.629	-0.677446	-9.622063E+8	5.049125E-11	NaN
77	1.000000	0.098176	7.3658e+06	-42489.1	955.819	-29783.1	0.000000	0.000000	6.098788	-0.091264	NaN	0.000000	0.001596	0.001694	28.1092	0.111332	0.002097	53.0957	158.821	-170.144	-0.069240	0.096898	-0.646063	-0.647341	-0.091264	53.0957	-0.644773	-3.433757E+8	2.657848E-10	NaN
77	1.000000	0.130161	7.3658e+06	-42489.1	955.818	-29783.1	0.000000	0.000000	6.130776	-0.029684	NaN	0.000000	0.001590	0.001725	28.1116	0.088713	0.001989	44.6019	-55.0583	-166.083	-0.170729	0.128870	-0.614077	-0.615368	-0.029684	44.6019	-0.613578	-1.280368E+8	2.318410E-10	NaN
77	1.000000	0.162186	7.3658e+06	-42489.1	955.818	-29783.1	0.000000	0.000000	6.162798	-0.101848	NaN	0.000000	0.001589	0.001684	28.1112	0.094022	0.001953	48.1457	-61.7469	-165.977	-0.060703	0.160887	-0.582052	-0.583351	-0.101848	48.1457	-0.580466	-4.478691E+7	2.274068E-9	NaN
77	1.000000	0.194185	7.3658e+06	-42489.1	955.818	-29783.1	0.000000	0.000000	6.194797	-0.080023	NaN	0.000000	0.001601	0.001699	28.1112	0.055514	0.002025	27.4135	150.243	-163.17	-0.128498	0.192931	-0.550054	-0.551308	-0.080023	27.4135	-0.547864	-1.586246E+7	5.044822E-9	NaN
77	1.000000	0.226200	7.3658e+06	-42489.1	955.818	-29783.1	0.000000	0.000000	6.226811	-0.108115	NaN	0.000000	0.001626	0.001695	28.1115	0.036138	0.002070	17.4579	148.164	-165.892	-0.043857	0.224862	-0.518039	-0.519377	-0.108115	17.4579	-0.513394	-5.26843e+06	2.052135E-8	NaN
77	1.000000	0.258227	7.3658e+06	-42489.1	955.818	-29783.1	0.000000	0.000000	6.258842	-0.025530	NaN	0.000000	0.001585	0.001697	28.1085	0.068960	0.002110	32.6802	73.4315	-167.725	0.012132	0.256939	-0.486011	-0.487300	-0.025530	32.6802	-0.485425	-2.14507e+06	1.190180E-8	NaN
77	1.000000	0.290263	7.3658e+06	-42489.1	955.818	-29783.1	0.000000	0.000000	6.290876	-0.079185	NaN	0.000000	0.001557	0.001680	28.1091	0.128085	0.001932	66.3135	82.6928	-165.856	-0.058838	0.288929	-0.453976	-0.455310	-0.079185	66.3135	-0.453080	-754575	1.049394E-7	NaN
77	1.000000	0.322227	7.3658e+06	-42489.1	955.818	-29783.1	0.000000	0.000000	6.322842	-0.040922	NaN	0.000000	0.001597	0.001684	28.1078	0.023636	0.002141	11.0425	153.922	-165.335	0.018937	0.320972	-0.422011	-0.423266	-0.040922	11.0425	-0.419232	-250910	1.630933E-7	NaN
77	1.000000	0.354271	7.3658e+06	-42489.1	955.818	-29783.1	0.000000	0.000000	6.354883	-0.091637	NaN	0.000000	0.001564	0.001710	28.1088	0.050097	0.002126	23.5659	119.109	-168.61	-0.200713	0.352958	-0.389968	-0.391280	-0.091637	23.5659	-0.387051	-87290.6	1.049792E-6	NaN
77	1.000000	0.386282	7.3658e+06	-42489.1	955.817	-29783.1	0.000000	0.000000	6.386898	0.000468	NaN	0.000000	0.001579	0.001729	28.1101	0.135425	0.001798	75.3325	-12.2373	-165.564	4.808239E-5	0.385007	-0.357957	-0.359231	0.000468	75.3325	-0.357961	-33293.9	-1.404979E-8	NaN
77	1.000000	0.418270	7.3658e+06	-42489.1	955.818	-29783.1	0.000000	0.000000	6.418883	-0.063127	NaN	0.000000	0.001522	0.001720	28.1095	0.065766	0.001952	33.6878	106.633	-162.99	-0.119283	0.416943	-0.325969	-0.327296	-0.063127	33.6878	-0.324564	-10857.5	5.814128E-6	NaN
77	1.000000	0.450318	7.3658e+06	-42489.1	955.819	-29783.1	0.000000	0.000000	6.450933	-0.034058	NaN	0.000000	0.001524	0.001747	28.1101	0.086202	0.002035	42.362	-160.325	-165.644	-0.003685	0.448984	-0.293920	-0.295255	-0.034058	42.362	-0.293317	-3740.64	9.104874E-6	NaN
77	1.000000	0.482315	7.3658e+06	-42489.1	955.819	-29783.1	0.000000	0.000000	6.482931	0.000928	NaN	0.000000	0.001534	0.001688	28.1083	0.150722	0.001911	78.8796	-122.805	-167.262	0.007950	0.481047	-0.261923	-0.263192	0.000928	78.8796	-0.261932	-1254.6	-7.393009E-7	NaN
77	1.000000	0.514357	7.3658e+06	-42489.1	955.819	-29783.1	0.000000	0.000000	6.514967	-0.137913	NaN	0.000000	0.001527	0.001656	28.1092	0.076510	0.001867	40.9892	167.864	-163.293	-0.117538	0.513027	-0.229882	-0.231212	-0.137913	40.9892	-0.227358	-363.696	0.000379	NaN
77	1.000000	0.546326	7.3658e+06	-42489.1	955.818	-29783.1	0.000000	0.000000	6.546940	-0.050866	NaN	0.000000	0.001563	0.001712	28.1084	0.065195	0.001940	33.6063	-26.6993	-167.554	-0.057927	0.545059	-0.197913	-0.199180	-0.050866	33.6063	-0.196777	-116.575	0.000436	NaN
77	1.000000	0.578305	7.3658e+06	-42489.1	955.818	-29783.1	0.000000	0.000000	6.578920	-0.015593	NaN	0.000000	0.001611	0.001706	28.1068	0.077826	0.002052	37.9223	-91.3823	-165.019	-0.029410	0.577019	-0.165934	-0.167219	-0.015593	37.9223	-0.165626	-34.4573	0.000453	NaN
77	1.000000	0.610417	7.3658e+06	-42489.1	955.818	-29783.1	0.000000	0.000000	6.611032	-0.017098	NaN	0.000000	0.001633	0.001749	28.108	0.078611	0.002094	37.5368	62.2023	-167.154	0.016828	0.609043	-0.133822	-0.135195	-0.017098	37.5368	-0.133480	-8.895997	0.001922	NaN
77	1.000000	0.642379	7.3658e+06	-42489.1	955.818	-29783.1	0.000000	0.000000	6.642992	-0.065044	NaN	0.000000	0.001626	0.001724	28.1059	0.140109	0.002038	68.7404	52.9717	-164.644	-0.053747	0.641135	-0.101860	-0.103104	-0.065044	68.7404	-0.101150	-1.937298	0.033575	NaN
77	1.000000	0.674408	7.3658e+06	-42489.1	955.818	-29783.1	0.000000	0.000000	6.675022	-0.044429	NaN	0.000000	0.001611	0.001707	28.109	0.077324	0.002076	37.2476	18.5455	-165.431	-0.075479	0.673179	-0.069831	-0.071059	-0.044429	37.2476	-0.068936	-0.319363	0.139118	NaN
77	1.000000	0.706394	7.3658e+06	-42489.1	955.818	-29783.1	0.000000	0.000000	6.707008	-0.046448	NaN	0.000000	0.001616	0.001704	28.1078	0.030941	0.001868	16.5671	136.107	-165.804	-0.017109	0.705170	-0.037845	-0.039069	-0.046448	16.5671	-0.035742	-0.033682	1.379010	NaN
77	1.000000	0.738420	7.3658e+06	-42489.1	955.819	-29783.1	0.000000	0.000000	6.739084	1.188648	NaN	0.000000	0.001636	0.001645	28.1072	0.450314	0.001899	237.134	24.4193	-166.279	1.013354	0.737124	-0.005819	-0.007115	1.188648	237.134	-0.009578	-0.006146	-193.407	NaN
77	1.000000	0.770415	7.3658e+06	-42489.1	955.817	-29783.1	0.000000	0.000000	6.771263	5.632440	NaN	0.000000	0.001630	0.001629	28.108	1.568646	0.002034	771.333	19.0219	-168.9	5.386031	0.769145	0.026177	0.024906	5.632440	771.333	0.020700	0.023654	238.115	4582.05
77	2.000000	0.793017	7.3658e+06	-42489.1	955.818	-29783.1	0.000000	0.000000	6.793963	8.038722	NaN	0.000000	0.001606	0.001684	28.1054	2.876933	0.001985	1449.48	11.7133	-165.606	7.997594	0.792697	0.048778	0.048459	8.038722	1449.48	0.044619	0.076509	105.069	4787.74
77	2.000000	0.800979	7.3658e+06	-42489.1	955.819	-29783.1	0.000000	0.000000	6.802000	9.862148	NaN	0.000000	0.001578	0.001684	28.1059	3.517411	0.001996	1762.27	16.1901	-170.984	9.886901	0.800649	0.056740	0.056410	9.862148	1762.27	0.052543	0.100435	98.1948	5080.48
77	2.000000	0.808920	7.3658e+06	-42489.1	955.819	-29783.1	0.000000	0.000000	6.809980	10.802	NaN	0.000000	0.001621	0.001650	28.1065	4.079465	0.001931	2112.86	13.4834	-168.328	10.776	0.808622	0.064682	0.064384	10.802	2112.86	0.060847	0.128864	83.8247	5377.47
77	2.000000	0.816969	7.3658e+06	-42489.1	955.819	-29783.1	0.000000	0.000000	6.818101	12.5419	NaN	0.000000	0.001551	0.001625	28.1046	4.811653	0.002009	2395.41	12.6255	-165.955	12.7392	0.816623	0.072731	0.072385	12.5419	2395.41	0.068804	0.159256	78.7527	5484.09
77	2.000000	0.824923	7.3658e+06	-42489.1	955.818	-29783.1	0.000000	0.000000	6.826133	14.444	NaN	0.000000	0.001524	0.001642	28.1064	5.822598	0.002099	2774.49	14.8299	-169.463	14.5179	0.824673	0.080685	0.080434	14.444	2774.49	0.076780	0.192756	74.9342	5773.67
77	2.000000	0.832871	7.3658e+06	-42489.1	955.819	-29783.1	0.000000	0.000000	6.834195	17.2297	NaN	0.000000	0.001549	0.001640	28.1059	6.285556	0.002001	3141.98	12.8429	-168.94	17.0489	0.832602	0.088632	0.088363	17.2297	3141.98	0.084520	0.228116	75.5307	6010.35
77	2.000000	0.840918	7.3658e+06	-42489.1	955.817	-29783.1	0.000000	0.000000	6.842331	19.3742	NaN	0.000000	0.001533	0.001682	28.1066	7.079152	0.002021	3502.62	13.9836	-170.194	19.5412	0.840642	0.096680	0.096404	19.3742	3502.62	0.092531	0.267634	72.3907	6185.79
77	2.000000	0.848853	7.3658e+06	-42489.1	955.817	-29783.1	0.000000	0.000000	6.850371	21.9425	NaN	0.000000	0.001505	0.001647	28.1061	7.378088	0.001930	3822.43	10.2428	-166.92	21.6309	0.848606	0.104615	0.104367	21.9425	3822.43	0.100309	0.308810	71.0549	6284.44
77	2.000000	0.856889	7.3658e+06	-42489.1	955.818	-29783.1	0.000000	0.000000	6.858489	23.9425	NaN	0.000000	0.001559	0.001666	28.1051	8.328054	0.002076	4012.15	14.1493	-170.642	23.8346	0.856577	0.112650	0.112339	23.9425	4012.15	0.108174	0.353242	67.7792	6167.57
77	2.000000	0.864858	7.3658e+06	-42489.1	955.817	-29783.1	0.000000	0.000000	6.866521	25.4814	NaN	0.000000	0.001572	0.001636	28.1055	8.614382	0.001968	4377.9	11.5485	-168.299	25.4277	0.864589	0.120619	0.120350	25.4814	4377.9	0.116254	0.401808	63.4168	6310
77	2.000000	0.872840	7.3658e+06	-42489.1	955.818	-29783.1	0.000000	0.000000	6.874575	27.2238	NaN	0.000000	0.001587	0.001660	28.1039	9.398604	0.001940	4844.91	13.89	-172.514	26.945	0.872532	0.128602	0.128293	27.2238	4844.91	0.124388	0.453690	60.0053	6571.72
77	2.000000	0.880849	7.3658e+06	-42489.1	955.818	-29783.1	0.000000	0.000000	6.882637	28.5297	NaN	0.000000	0.001579	0.001651	28.1051	10.2112	0.002027	5036.95	12.7739	-170.29	28.4164	0.880545	0.136610	0.136307	28.5297	5036.95	0.132362	0.507481	56.2183	6459.98
77	2.000000	0.887896	7.3658e+06	-42489.1	955.818	-29783.1	0.000000	0.000000	6.889721	29.4238	NaN	0.000000	0.001601	0.001639	28.087	10.8736	0.001930	5632.71	11.7544	-171.009	30.0911	0.887529	0.143657	0.143290	29.4238	5632.71	0.139740	0.559840	52.5575	6877.95