Folder: unikorn_login/remote_trans/data/nanoindenter/0828-1/data/Data_2025-08-06,11h17m57s (part 129)

File: 2025-07-22_16-23-58_1_275.txt
2025-07-22, 16:23:58, 1
Index	Phase	Displacement	Time	Pos X	Pos Y	Pos Z	Rot A	Rot B	Piezo Z	Force A	Force B	Gripper	Voltage A	Voltage B	Temperature	Amplitude force	Amplitude pos	Stiffness	Phase shift	Phase excitation	Force A raw	Displacement raw	HMax	HMax raw	Real Force	Real Stiffness	Contact Depth	Area	Hardness	Reduced Mod.
[#]	[#]	[um]	[s]	[um]	[um]	[um]	[m°]	[m°]	[um]	[uN]	[uN]	[V]	[V]	[V]	[°C]	[uN]	[um]	[N/m]	[°]	[°]	[uN]	[um]	[um]	[um]	[uN]	[N/m]	[um]	[um^2]	[MPa]	[MPa]
275	1.000000	0.003019	7.36775e+06	-52389.1	955.818	-29749.6	0.000000	0.000000	6.002800	0.036999	NaN	0.000000	0.001715	0.001597	28.0817	0.051886	0.000921	56.3551	83.3987	-163.378	-0.021269	0.001797	-0.982746	-0.983968	0.036999	56.3551	-0.983239	-1.349094E+13	-2.742540E-15	NaN
275	1.000000	0.042965	7.36775e+06	-52389.1	955.817	-29749.6	0.000000	0.000000	6.042746	0.049306	NaN	0.000000	0.001739	0.001600	28.0814	0.120269	0.002034	59.1425	11.4541	-166.968	0.057545	0.041661	-0.942801	-0.944104	0.049306	59.1425	-0.943426	-3.920633E+12	-1.257612E-14	NaN
275	1.000000	0.082971	7.36775e+06	-52389.1	955.817	-29749.6	0.000000	0.000000	6.082749	-0.011991	NaN	0.000000	0.001615	0.001607	28.0806	0.103189	0.002012	51.2823	123.159	-159.993	-0.032414	0.081676	-0.902795	-0.904090	-0.011991	51.2823	-0.902620	-1.102712E+12	1.087408E-14	NaN
275	1.000000	0.122965	7.36775e+06	-52389.1	955.818	-29749.6	0.000000	0.000000	6.122746	0.049435	NaN	0.000000	0.001623	0.001632	28.0798	0.043435	0.001961	22.1507	-178.576	-165.356	0.060478	0.121689	-0.862801	-0.864076	0.049435	22.1507	-0.864475	-3.362659E+11	-1.470110E-13	NaN
275	1.000000	0.163045	7.36775e+06	-52389.1	955.818	-29749.6	0.000000	0.000000	6.162825	0.014652	NaN	0.000000	0.001637	0.001601	28.0798	0.085003	0.002135	39.815	-112.94	-165.961	0.059687	0.161727	-0.822721	-0.824039	0.014652	39.815	-0.822997	-9.222456E+10	-1.588697E-13	NaN
275	1.000000	0.203014	7.36775e+06	-52389.1	955.818	-29749.6	0.000000	0.000000	6.202795	0.048730	NaN	0.000000	0.001599	0.001568	28.0798	0.057772	0.001913	30.1976	170.479	-166.214	0.054292	0.201709	-0.782752	-0.784057	0.048730	30.1976	-0.783962	-2.723131E+10	-1.789495E-12	NaN
275	1.000000	0.243060	7.36775e+06	-52389.1	955.818	-29749.6	0.000000	0.000000	6.242841	0.032362	NaN	0.000000	0.001604	0.001612	28.0811	0.124983	0.002062	60.6001	92.1721	-166.776	0.012364	0.241742	-0.742705	-0.744024	0.032362	60.6001	-0.743106	-7.574553E+9	-4.272413E-12	NaN
275	1.000000	0.283089	7.36775e+06	-52389.1	955.819	-29749.6	0.000000	0.000000	6.282869	0.016352	NaN	0.000000	0.001604	0.001590	28.0814	0.079011	0.001987	39.7729	-2.042569	-161.196	-0.030776	0.281776	-0.702676	-0.703989	0.016352	39.7729	-0.702985	-2.149256E+9	-7.608213E-12	NaN
275	1.000000	0.323108	7.36775e+06	-52389.1	955.819	-29749.6	0.000000	0.000000	6.322888	0.016194	NaN	0.000000	0.001606	0.001615	28.0816	0.179938	0.002018	89.1614	179.147	-166.239	0.038822	0.321792	-0.662658	-0.663973	0.016194	89.1614	-0.662794	-6.063697E+8	-2.670579E-11	NaN
275	1.000000	0.363120	7.36775e+06	-52389.1	955.819	-29749.6	0.000000	0.000000	6.362900	0.006673	NaN	0.000000	0.001625	0.001581	28.08	0.145611	0.002000	72.7932	-43.2017	-165.899	-0.038846	0.361819	-0.622645	-0.623946	0.006673	72.7932	-0.622714	-1.709756E+8	-3.903133E-11	NaN
275	1.000000	0.403082	7.36775e+06	-52389.1	955.818	-29749.6	0.000000	0.000000	6.402865	0.077785	NaN	0.000000	0.001600	0.001627	28.0798	0.132746	0.001954	67.9404	36.7541	-166.072	0.060042	0.401819	-0.582683	-0.583946	0.077785	67.9404	-0.583542	-4.938550E+7	-1.575064E-9	NaN
275	1.000000	0.443148	7.36775e+06	-52389.1	955.817	-29749.6	0.000000	0.000000	6.442926	-0.045304	NaN	0.000000	0.001597	0.001635	28.0799	0.041706	0.002056	20.2844	-19.5555	-163.419	-0.065038	0.441844	-0.542617	-0.543922	-0.045304	20.2844	-0.540942	-1.271809E+7	3.562169E-9	NaN
275	1.000000	0.483174	7.36775e+06	-52389.1	955.818	-29749.6	0.000000	0.000000	6.482952	-0.023812	NaN	0.000000	0.001610	0.001633	28.08	0.087176	0.002009	43.3873	-157.3	-165.035	0.040640	0.481869	-0.502592	-0.503896	-0.023812	43.3873	-0.502180	-3.67643e+06	6.476990E-9	NaN
275	1.000000	0.523174	7.36775e+06	-52389.1	955.818	-29749.6	0.000000	0.000000	6.522952	-0.035597	NaN	0.000000	0.001647	0.001625	28.0812	0.066236	0.001965	33.7162	-103.474	-168.52	-0.010509	0.521886	-0.462592	-0.463880	-0.035597	33.7162	-0.461800	-1.0007e+06	3.557171E-8	NaN
275	1.000000	0.563170	7.36775e+06	-52389.1	955.819	-29749.6	0.000000	0.000000	6.562951	0.024101	NaN	0.000000	0.001618	0.001629	28.0812	0.081406	0.001952	41.7141	47.8905	-166.454	0.014134	0.561920	-0.422595	-0.423846	0.024101	41.7141	-0.423029	-284023	-8.485420E-8	NaN
275	1.000000	0.603196	7.36775e+06	-52389.1	955.819	-29749.6	0.000000	0.000000	6.602976	0.016736	NaN	0.000000	0.001652	0.001630	28.0813	0.043006	0.002053	20.9438	-127.028	-165.313	0.138260	0.601885	-0.382569	-0.383880	0.016736	20.9438	-0.383169	-76796.2	-2.179226E-7	NaN
275	1.000000	0.643222	7.36775e+06	-52389.1	955.819	-29749.6	0.000000	0.000000	6.643004	0.077099	NaN	0.000000	0.001677	0.001640	28.0801	0.135129	0.001979	68.2805	152.992	-165.408	0.093104	0.641902	-0.342544	-0.343863	0.077099	68.2805	-0.343391	-20461.8	-3.767940E-6	NaN
275	1.000000	0.683243	7.36775e+06	-52389.1	955.818	-29749.6	0.000000	0.000000	6.683022	-0.009334	NaN	0.000000	0.001622	0.001647	28.0801	0.030544	0.002099	14.5539	73.6203	-163.736	0.004622	0.681930	-0.302523	-0.303835	-0.009334	14.5539	-0.302042	-5046.77	1.849529E-6	NaN
275	1.000000	0.723279	7.36775e+06	-52389.1	955.819	-29749.6	0.000000	0.000000	6.723062	0.098958	NaN	0.000000	0.001677	0.001649	28.0799	0.052614	0.002149	24.4829	-47.8877	-164.74	0.014929	0.721961	-0.262487	-0.263805	0.098958	24.4829	-0.265519	-1423.31	-6.952641E-5	NaN
275	1.000000	0.763269	7.36775e+06	-52389.1	955.818	-29749.6	0.000000	0.000000	6.763046	-0.059886	NaN	0.000000	0.001658	0.001672	28.0798	0.009726	0.002097	4.638901	-80.6683	-165.981	-0.045386	0.762014	-0.222497	-0.223752	-0.059886	4.638901	-0.212814	-212.965	0.000281	NaN
275	1.000000	0.803307	7.36775e+06	-52389.1	955.818	-29749.6	0.000000	0.000000	6.803089	0.063482	NaN	0.000000	0.001654	0.001661	28.081	0.086936	0.002068	42.032	116.658	-162.352	0.029889	0.801987	-0.182459	-0.183779	0.063482	42.032	-0.183592	-70.2042	-0.000904	NaN
275	1.000000	0.843298	7.36775e+06	-52389.1	955.817	-29749.6	0.000000	0.000000	6.843079	0.042358	NaN	0.000000	0.001687	0.001643	28.0812	0.033685	0.001966	17.1319	158.701	-168.493	0.016216	0.842005	-0.142468	-0.143761	0.042358	17.1319	-0.144322	-14.2435	-0.002974	NaN
275	1.000000	0.883333	7.36775e+06	-52389.1	955.819	-29749.6	0.000000	0.000000	6.883114	0.021939	NaN	0.000000	0.001734	0.001670	28.0812	0.047052	0.002019	23.3104	124.332	-164.549	0.076935	0.882038	-0.102432	-0.103728	0.021939	23.3104	-0.103138	-2.141742	-0.010244	NaN
275	1.000000	0.923364	7.36775e+06	-52389.1	955.819	-29749.6	0.000000	0.000000	6.923144	0.015430	NaN	0.000000	0.001676	0.001721	28.0803	0.126182	0.001988	63.459	146.884	-164.812	0.025877	0.922014	-0.062401	-0.063752	0.015430	63.459	-0.062584	-0.213302	-0.072338	NaN
275	1.000000	0.963348	7.36775e+06	-52389.1	955.819	-29749.6	0.000000	0.000000	6.963143	0.373902	NaN	0.000000	0.001601	0.001714	28.0802	0.230545	0.001972	116.929	23.2436	-166.307	0.424668	0.961996	-0.022417	-0.023770	0.373902	116.929	-0.024816	-0.016684	-22.4102	NaN
275	1.000000	1.003352	7.36775e+06	-52389.1	955.817	-29749.6	0.000000	0.000000	7.003216	2.056434	NaN	0.000000	0.001651	0.001727	28.0803	1.831618	0.002001	915.299	30.9285	-169.04	1.914858	1.002118	0.017587	0.016352	2.056434	915.299	0.015902	0.016507	124.582	6508.89
275	2.000000	1.033987	7.36775e+06	-52389.1	955.818	-29749.6	0.000000	0.000000	7.034117	8.521572	NaN	0.000000	0.001698	0.001719	28.0814	6.073156	0.001971	3080.85	13.9149	-171.971	8.459250	1.033721	0.048222	0.047956	8.521572	3080.85	0.046147	0.080877	105.364	9897.63
275	2.000000	1.043953	7.36775e+06	-52389.1	955.817	-29749.6	0.000000	0.000000	7.044243	12.4318	NaN	0.000000	0.001616	0.001779	28.0812	8.207107	0.002024	4055.9	10.0475	-169.96	12.7589	1.043646	0.058187	0.057880	12.4318	4055.9	0.055888	0.111478	111.518	11098.5
275	2.000000	1.053897	7.36775e+06	-52389.1	955.817	-29749.6	0.000000	0.000000	7.054473	19.3703	NaN	0.000000	0.001620	0.001714	28.0814	10.0166	0.001793	5586.41	9.352365	-173.924	19.1007	1.053595	0.068132	0.067830	19.3703	5586.41	0.065531	0.146387	132.323	13340
275	2.000000	1.063920	7.36775e+06	-52389.1	955.817	-29749.6	0.000000	0.000000	7.064624	22.4793	NaN	0.000000	0.001555	0.001727	28.0811	11.6114	0.001988	5840.98	10.0908	-173.559	22.7635	1.063643	0.078155	0.077878	22.4793	5840.98	0.075268	0.186176	120.742	12367.9
275	2.000000	1.073883	7.36775e+06	-52389.1	955.818	-29749.6	0.000000	0.000000	7.074761	26.7019	NaN	0.000000	0.001568	0.001727	28.08	13.051	0.001971	6622.63	9.061679	-173.871	26.5788	1.073570	0.088117	0.087804	26.7019	6622.63	0.085094	0.230848	115.669	12593.3
275	2.000000	1.083866	7.36775e+06	-52389.1	955.817	-29749.6	0.000000	0.000000	7.085020	33.4239	NaN	0.000000	0.001602	0.001709	28.0798	14.7855	0.001970	7506.13	5.613670	-170.496	32.9358	1.083538	0.098100	0.097772	33.4239	7506.13	0.094761	0.279154	119.733	12979.8
275	2.000000	1.093845	7.36775e+06	-52389.1	955.817	-29749.6	0.000000	0.000000	7.095216	38.6813	NaN	0.000000	0.001595	0.001691	28.0801	16.7379	0.001997	8383.5	8.073511	-174.812	37.9789	1.093613	0.108080	0.107848	38.6813	8383.5	0.104619	0.332811	116.226	13277
275	2.000000	1.103863	7.36775e+06	-52389.1	955.818	-29749.6	0.000000	0.000000	7.105424	43.3233	NaN	0.000000	0.001578	0.001699	28.0814	18.3721	0.002003	9171.38	7.529092	-173.682	42.8289	1.103528	0.118097	0.117762	43.3233	9171.38	0.114555	0.391347	110.703	13394.5
275	2.000000	1.113888	7.36775e+06	-52389.1	955.818	-29749.6	0.000000	0.000000	7.115478	44.0268	NaN	0.000000	0.001575	0.001689	28.0812	19.7425	0.001892	10432.6	4.692293	-172.796	44.5137	1.113551	0.128123	0.127786	44.0268	10432.6	0.124957	0.457438	96.2466	14092.8
275	2.000000	1.123832	7.36775e+06	-52389.1	955.817	-29749.6	0.000000	0.000000	7.125729	51.4867	NaN	0.000000	0.001579	0.001747	28.081	22.7522	0.001903	11957	8.401457	-177.659	50.9031	1.123489	0.138066	0.137724	51.4867	11957	0.134837	0.524766	98.1136	15080.4
275	2.000000	1.129324	7.36775e+06	-52389.1	955.817	-29749.6	0.000000	0.000000	7.131401	55.8721	NaN	0.000000	0.001557	0.001762	28.0813	24.6999	0.002015	12255.6	9.859215	1.542804	55.7578	1.128965	0.143558	0.143200	55.8721	12255.6	0.140139	0.562747	99.2846	14926.2

File: 2025-07-22_16-23-58_1_276.txt
2025-07-22, 16:23:58, 1
Index	Phase	Displacement	Time	Pos X	Pos Y	Pos Z	Rot A	Rot B	Piezo Z	Force A	Force B	Gripper	Voltage A	Voltage B	Temperature	Amplitude force	Amplitude pos	Stiffness	Phase shift	Phase excitation	Force A raw	Displacement raw	HMax	HMax raw	Real Force	Real Stiffness	Contact Depth	Area	Hardness	Reduced Mod.
[#]	[#]	[um]	[s]	[um]	[um]	[um]	[m°]	[m°]	[um]	[uN]	[uN]	[V]	[V]	[V]	[°C]	[uN]	[um]	[N/m]	[°]	[°]	[uN]	[um]	[um]	[um]	[uN]	[N/m]	[um]	[um^2]	[MPa]	[MPa]
276	1.000000	0.003042	7.36775e+06	-52439.1	955.819	-29749.5	0.000000	0.000000	6.002800	0.033947	NaN	0.000000	0.001620	0.001707	28.0806	0.081368	0.001077	75.5846	117.439	-164.689	-0.076124	0.001826	-1.087811	-1.089027	0.033947	75.5846	-1.088148	-3.474931E+14	-9.769239E-17	NaN
276	1.000000	0.045000	7.36775e+06	-52439.1	955.819	-29749.5	0.000000	0.000000	6.044759	0.038189	NaN	0.000000	0.001622	0.001744	28.081	0.052584	0.001939	27.1133	-178.137	15.5466	0.068201	0.043669	-1.045853	-1.047184	0.038189	27.1133	-1.046909	-9.701998E+13	-3.936235E-16	NaN
276	1.000000	0.087030	7.36775e+06	-52439.1	955.818	-29749.5	0.000000	0.000000	6.086787	0.003911	NaN	0.000000	0.001606	0.001677	28.0804	0.039338	0.002035	19.332	-167.02	-162.326	0.040738	0.085668	-1.003823	-1.005185	0.003911	19.332	-1.003975	-2.566127E+13	-1.524166E-16	NaN
276	1.000000	0.129049	7.36776e+06	-52439.1	955.819	-29749.5	0.000000	0.000000	6.128809	0.085445	NaN	0.000000	0.001622	0.001674	28.0803	0.066199	0.002045	32.373	140.047	17.5017	0.108522	0.127642	-0.961804	-0.963211	0.085445	32.373	-0.963784	-7.377019E+12	-1.158259E-14	NaN
276	1.000000	0.171031	7.36776e+06	-52439.1	955.817	-29749.5	0.000000	0.000000	6.170793	0.103946	NaN	0.000000	0.001615	0.001793	28.0794	0.114710	0.001997	57.4359	175.414	-166.729	0.011790	0.169710	-0.919822	-0.921143	0.103946	57.4359	-0.921179	-1.963916E+12	-5.292799E-14	NaN
276	1.000000	0.213058	7.36776e+06	-52439.1	955.818	-29749.5	0.000000	0.000000	6.212814	-0.015030	NaN	0.000000	0.001656	0.001714	28.0793	0.047233	0.001993	23.7047	-162.271	14.6088	0.052328	0.211672	-0.877795	-0.879181	-0.015030	23.7047	-0.877319	-5.017140E+11	2.995772E-14	NaN
276	1.000000	0.255091	7.36776e+06	-52439.1	955.818	-29749.5	0.000000	0.000000	6.254849	0.020358	NaN	0.000000	0.001616	0.001701	28.0794	0.026634	0.002044	13.0281	-12.0159	-165.449	-0.032074	0.253729	-0.835762	-0.837124	0.020358	13.0281	-0.836934	-1.424788E+11	-1.428875E-13	NaN
276	1.000000	0.297102	7.36776e+06	-52439.1	955.817	-29749.5	0.000000	0.000000	6.296860	0.005096	NaN	0.000000	0.001589	0.001745	28.0804	0.025099	0.001913	13.1191	-146.439	18.2246	0.009949	0.295738	-0.793751	-0.795115	0.005096	13.1191	-0.794042	-3.732286E+10	-1.365345E-13	NaN
276	1.000000	0.339104	7.36776e+06	-52439.1	955.819	-29749.5	0.000000	0.000000	6.338861	0.000692	NaN	0.000000	0.001608	0.001723	28.0805	0.033931	0.001870	18.149	-42.2264	-162.448	-0.064846	0.337758	-0.751749	-0.753095	0.000692	18.149	-0.751778	-9.940661E+9	-6.960488E-14	NaN
276	1.000000	0.381116	7.36776e+06	-52439.1	955.818	-29749.5	0.000000	0.000000	6.380872	-0.027877	NaN	0.000000	0.001589	0.001746	28.0805	0.120670	0.001971	61.2356	44.3514	16.2384	-0.021824	0.379757	-0.709737	-0.711096	-0.027877	61.2356	-0.709396	-2.629071E+9	1.060353E-11	NaN
276	1.000000	0.423154	7.36776e+06	-52439.1	955.819	-29749.5	0.000000	0.000000	6.422911	-0.007612	NaN	0.000000	0.001596	0.001732	28.0794	0.068884	0.002051	33.5933	-145.806	-167.946	-0.012243	0.421876	-0.667699	-0.668977	-0.007612	33.5933	-0.667529	-7.039881E+8	1.081210E-11	NaN
276	1.000000	0.465184	7.36776e+06	-52439.1	955.819	-29749.5	0.000000	0.000000	6.464943	0.050267	NaN	0.000000	0.001581	0.001708	28.0791	0.106595	0.001964	54.2827	-94.449	14.5011	0.028987	0.463817	-0.625669	-0.627036	0.050267	54.2827	-0.626363	-1.918989E+8	-2.619474E-10	NaN
276	1.000000	0.507155	7.36776e+06	-52439.1	955.818	-29749.5	0.000000	0.000000	6.506913	0.029061	NaN	0.000000	0.001579	0.001721	28.079	0.028041	0.001965	14.2707	178.009	-167.054	0.029590	0.505895	-0.583698	-0.584958	0.029061	14.2707	-0.585225	-5.209799E+7	-5.578065E-10	NaN
276	1.000000	0.549215	7.36776e+06	-52439.1	955.819	-29749.5	0.000000	0.000000	6.548970	-0.051977	NaN	0.000000	0.001582	0.001670	28.0802	0.100560	0.002124	47.3528	111.483	16.5638	0.022715	0.547842	-0.541638	-0.543011	-0.051977	47.3528	-0.540815	-1.266666E+7	4.103445E-9	NaN
276	1.000000	0.591215	7.36776e+06	-52439.1	955.818	-29749.5	0.000000	0.000000	6.590972	-0.010044	NaN	0.000000	0.001632	0.001742	28.0806	0.036726	0.001971	18.6331	63.0811	-160.056	-0.001689	0.589959	-0.499638	-0.500894	-0.010044	18.6331	-0.499233	-3.34443e+06	3.003300E-9	NaN
276	1.000000	0.633242	7.36776e+06	-52439.1	955.818	-29749.5	0.000000	0.000000	6.632999	0.012246	NaN	0.000000	0.001649	0.001685	28.0807	0.086431	0.002014	42.922	-70.6721	11.8333	0.014022	0.631876	-0.457611	-0.458977	0.012246	42.922	-0.457825	-879938	-1.391734E-8	NaN
276	1.000000	0.675264	7.36776e+06	-52439.1	955.819	-29749.5	0.000000	0.000000	6.675023	0.035087	NaN	0.000000	0.001552	0.001681	28.0803	0.076528	0.002120	36.0962	135.922	-165.221	0.047105	0.673917	-0.415589	-0.416936	0.035087	36.0962	-0.416318	-228123	-1.538070E-7	NaN
276	1.000000	0.717256	7.36776e+06	-52439.1	955.818	-29749.5	0.000000	0.000000	6.717014	0.019468	NaN	0.000000	0.001671	0.001673	28.0793	0.107048	0.001914	55.9247	63.7869	13.1584	0.021071	0.715905	-0.373597	-0.374948	0.019468	55.9247	-0.373858	-56448.2	-3.448893E-7	NaN
276	1.000000	0.759282	7.36776e+06	-52439.1	955.819	-29749.5	0.000000	0.000000	6.759040	0.026857	NaN	0.000000	0.001594	0.001694	28.0795	0.088390	0.002087	42.3516	-136.643	-166.852	0.085637	0.758008	-0.331571	-0.332845	0.026857	42.3516	-0.332046	-13976.7	-1.921519E-6	NaN
276	1.000000	0.801329	7.36776e+06	-52439.1	955.818	-29749.5	0.000000	0.000000	6.801089	0.068682	NaN	0.000000	0.001620	0.001690	28.0794	0.082291	0.002029	40.5477	34.6044	13.2061	0.076042	0.799976	-0.289524	-0.290877	0.068682	40.5477	-0.290795	-3429.3	-2.002798E-5	NaN
276	1.000000	0.843334	7.36776e+06	-52439.1	955.819	-29749.5	0.000000	0.000000	6.843095	0.093398	NaN	0.000000	0.001622	0.001693	28.0806	0.088592	0.001862	47.5791	9.776554	-166.286	0.084274	0.842035	-0.247519	-0.248818	0.093398	47.5791	-0.248991	-793.156	-0.000118	NaN
276	1.000000	0.885344	7.36776e+06	-52439.1	955.819	-29749.5	0.000000	0.000000	6.885103	0.062229	NaN	0.000000	0.001599	0.001735	28.0806	0.084016	0.001900	44.2105	110.945	16.3694	0.114383	0.883974	-0.205509	-0.206879	0.062229	44.2105	-0.206565	-168.676	-0.000369	NaN
276	1.000000	0.927350	7.36776e+06	-52439.1	955.818	-29749.5	0.000000	0.000000	6.927108	0.040758	NaN	0.000000	0.001562	0.001667	28.0805	0.062489	0.001893	33.004	78.3817	-163.287	0.046380	0.925997	-0.163503	-0.164856	0.040758	33.004	-0.164430	-32.8309	-0.001241	NaN
276	1.000000	0.969346	7.36776e+06	-52439.1	955.818	-29749.5	0.000000	0.000000	6.969103	0.008958	NaN	0.000000	0.001556	0.001653	28.0793	0.016195	0.002068	7.829747	64.0979	10.304	0.003609	0.968029	-0.121507	-0.122824	0.008958	7.829747	-0.122365	-5.390060	-0.001662	NaN
276	1.000000	1.011383	7.36776e+06	-52439.1	955.818	-29749.5	0.000000	0.000000	7.011140	0.010401	NaN	0.000000	0.001551	0.001696	28.0792	0.071748	0.002034	35.2824	-23.4369	-168.519	0.000530	1.010094	-0.079470	-0.080759	0.010401	35.2824	-0.079691	-0.608078	-0.017105	NaN
276	1.000000	1.053404	7.36776e+06	-52439.1	955.818	-29749.5	0.000000	0.000000	7.053160	-0.021083	NaN	0.000000	0.001558	0.001740	28.0795	0.049335	0.002002	24.6435	-55.8484	14.8429	-0.003681	1.052067	-0.037449	-0.038786	-0.021083	24.6435	-0.036807	-0.036233	0.581862	NaN
276	1.000000	1.095384	7.36776e+06	-52439.1	955.818	-29749.5	0.000000	0.000000	7.095272	3.190018	NaN	0.000000	0.001538	0.001686	28.0804	4.014515	0.001868	2148.82	11.6614	-169.373	2.002960	1.094047	0.004531	0.003194	3.190018	2148.82	0.003418	0.002735	1166.55	37542.9
276	2.000000	1.109561	7.36776e+06	-52439.1	955.817	-29749.5	0.000000	0.000000	7.110114	19.3388	NaN	0.000000	0.001577	0.001683	28.0805	18.5833	0.001939	9585.35	7.349688	3.880074	19.8794	1.109206	0.018708	0.018353	19.3388	9585.35	0.017195	0.018325	1055.32	64693
276	2.000000	1.119946	7.36776e+06	-52439.1	955.817	-29749.5	0.000000	0.000000	7.121578	45.5833	NaN	0.000000	0.001536	0.001688	28.0808	28.7502	0.001817	15825.7	-0.325457	-175.019	42.6776	1.119659	0.029093	0.028806	45.5833	15825.7	0.026933	0.034626	1316.46	77702.7
276	2.000000	1.130464	7.36776e+06	-52439.1	955.818	-29749.5	0.000000	0.000000	7.133361	76.3622	NaN	0.000000	0.001596	0.001723	28.0809	38.7664	0.001788	21687	4.819142	-1.934762	74.6426	1.130106	0.039611	0.039253	76.3622	21687	0.036970	0.056432	1353.17	83408.5
276	2.000000	1.140970	7.36776e+06	-52439.1	955.819	-29749.5	0.000000	0.000000	7.145768	122.57	NaN	0.000000	0.001534	0.001701	28.0793	48.1071	0.001818	26461	4.708045	176.149	122.265	1.140613	0.050117	0.049760	122.57	26461	0.046643	0.082319	1488.95	84261.3
276	2.000000	1.151393	7.36776e+06	-52439.1	955.817	-29749.5	0.000000	0.000000	7.158087	168.67	NaN	0.000000	0.001569	0.001710	28.0794	56.2385	0.001744	32240.4	3.833907	-4.724658	163.352	1.151157	0.060540	0.060304	168.67	32240.4	0.056616	0.113954	1480.15	87258.5
276	2.000000	1.161967	7.36776e+06	-52439.1	955.817	-29749.5	0.000000	0.000000	7.170950	224.334	NaN	0.000000	0.001577	0.001677	28.0792	68.08	0.001861	36585.9	9.546066	168.912	222.345	1.161511	0.071114	0.070658	224.334	36585.9	0.066515	0.150202	1493.55	86248
276	2.000000	1.172446	7.36776e+06	-52439.1	955.816	-29749.5	0.000000	0.000000	7.184280	293.627	NaN	0.000000	0.001559	0.001677	28.0805	76.369	0.001686	45302.6	1.010121	-4.745994	291.759	1.172067	0.081593	0.081214	293.627	45302.6	0.076732	0.192546	1524.97	94325.4
276	2.000000	1.182939	7.36776e+06	-52439.1	955.817	-29749.5	0.000000	0.000000	7.197672	364.134	NaN	0.000000	0.001536	0.001717	28.0806	87.6397	0.001911	45868.7	9.283116	168.093	364.768	1.182583	0.092086	0.091730	364.134	45868.7	0.086132	0.235833	1544.04	86295.4
276	2.000000	1.193425	7.36776e+06	-52439.1	955.817	-29749.5	0.000000	0.000000	7.211256	439.44	NaN	0.000000	0.001620	0.001747	28.0806	95.9521	0.001803	53207.5	0.742658	-5.632013	438.008	1.193036	0.102572	0.102183	439.44	53207.5	0.096378	0.287653	1527.67	90638.2
276	2.000000	1.198899	7.36776e+06	-52439.1	955.817	-29749.5	0.000000	0.000000	7.218287	477.315	NaN	0.000000	0.001590	0.001713	28.0802	102.961	0.001855	55516.3	7.015231	167.369	475.233	1.198582	0.108046	0.107729	477.315	55516.3	0.101598	0.315894	1511	90245