Folder: unikorn_login/remote_trans/data/nanoindenter/0828-1/data/Data_2025-08-06,11h17m57s (part 173)

File: 2025-07-22_16-23-58_1_363.txt
2025-07-22, 16:23:58, 1
Index	Phase	Displacement	Time	Pos X	Pos Y	Pos Z	Rot A	Rot B	Piezo Z	Force A	Force B	Gripper	Voltage A	Voltage B	Temperature	Amplitude force	Amplitude pos	Stiffness	Phase shift	Phase excitation	Force A raw	Displacement raw	HMax	HMax raw	Real Force	Real Stiffness	Contact Depth	Area	Hardness	Reduced Mod.
[#]	[#]	[um]	[s]	[um]	[um]	[um]	[m°]	[m°]	[um]	[uN]	[uN]	[V]	[V]	[V]	[°C]	[uN]	[um]	[N/m]	[°]	[°]	[uN]	[um]	[um]	[um]	[uN]	[N/m]	[um]	[um^2]	[MPa]	[MPa]
363	1.000000	0.002335	7.36861e+06	-56789.1	955.818	-29738.4	0.000000	0.000000	6.002815	-0.030271	NaN	0.000000	0.001647	0.001691	28.0825	0.134521	0.001064	126.465	-67.2604	-164.291	0.028320	0.001082	-1.091578	-1.092830	-0.030271	126.465	-1.091398	-3.842250E+14	7.878497E-17	NaN
363	1.000000	0.044255	7.36861e+06	-56789.1	955.818	-29738.4	0.000000	0.000000	6.044737	-0.001636	NaN	0.000000	0.001663	0.001645	28.0811	0.052808	0.001936	27.2822	114.23	11.5161	-0.013400	0.042960	-1.049657	-1.050953	-0.001636	27.2822	-1.049612	-1.054874E+14	1.550925E-17	NaN
363	1.000000	0.086245	7.36861e+06	-56789.1	955.819	-29738.4	0.000000	0.000000	6.086726	-0.033329	NaN	0.000000	0.001678	0.001697	28.081	0.093995	0.002006	46.8472	-97.838	-167.92	-0.025077	0.084942	-1.007667	-1.008970	-0.033329	46.8472	-1.007133	-2.830072E+13	1.177687E-15	NaN
363	1.000000	0.128283	7.36861e+06	-56789.1	955.819	-29738.4	0.000000	0.000000	6.128765	0.008618	NaN	0.000000	0.001675	0.001723	28.0811	0.057467	0.002090	27.5012	27.6316	15.6478	-0.003367	0.126927	-0.965629	-0.966985	0.008618	27.5012	-0.965864	-7.869091E+12	-1.095196E-15	NaN
363	1.000000	0.170338	7.36861e+06	-56789.1	955.818	-29738.4	0.000000	0.000000	6.170822	0.054859	NaN	0.000000	0.001611	0.001697	28.0825	0.023513	0.001869	12.5828	107.95	-166.429	0.081303	0.169009	-0.923575	-0.924903	0.054859	12.5828	-0.926845	-2.342105E+12	-2.342280E-14	NaN
363	1.000000	0.212336	7.36861e+06	-56789.1	955.819	-29738.4	0.000000	0.000000	6.212821	0.055988	NaN	0.000000	0.001591	0.001686	28.0824	0.051173	0.002111	24.2406	-169.303	12.3336	-0.021244	0.210972	-0.881576	-0.882940	0.055988	24.2406	-0.883308	-6.045669E+11	-9.260825E-14	NaN
363	1.000000	0.254353	7.36861e+06	-56789.1	955.819	-29738.4	0.000000	0.000000	6.254834	-0.017807	NaN	0.000000	0.001653	0.001686	28.0827	0.124869	0.002097	59.5365	126.52	-163.645	-0.035409	0.253089	-0.839560	-0.840823	-0.017807	59.5365	-0.839335	-1.535631E+11	1.159571E-13	NaN
363	1.000000	0.296370	7.36861e+06	-56789.1	955.818	-29738.4	0.000000	0.000000	6.296852	-1.488317E-5	NaN	0.000000	0.001614	0.001724	28.0822	0.115909	0.001979	58.5698	52.4969	12.2012	0.035824	0.295030	-0.797542	-0.798883	-1.488317E-5	58.5698	-0.797542	-4.163878E+10	3.574353E-16	NaN
363	1.000000	0.338367	7.36861e+06	-56789.1	955.817	-29738.4	0.000000	0.000000	6.338846	-0.074808	NaN	0.000000	0.001624	0.001732	28.0809	0.133375	0.001956	68.1748	70.8113	-163.516	-0.090955	0.337050	-0.755546	-0.756862	-0.074808	68.1748	-0.754723	-1.090174E+10	6.862034E-12	NaN
363	1.000000	0.380410	7.36861e+06	-56789.1	955.818	-29738.4	0.000000	0.000000	6.380893	0.010251	NaN	0.000000	0.001566	0.001738	28.081	0.023100	0.001945	11.8772	-87.8912	15.5305	-0.115777	0.379033	-0.713502	-0.714879	0.010251	11.8772	-0.714149	-3.052586E+9	-3.358105E-12	NaN
363	1.000000	0.422409	7.36861e+06	-56789.1	955.819	-29738.4	0.000000	0.000000	6.422889	-0.061039	NaN	0.000000	0.001578	0.001749	28.081	0.052513	0.002020	25.9939	-42.6436	-165.445	0.018052	0.421127	-0.671503	-0.672786	-0.061039	25.9939	-0.669742	-7.548443E+8	8.086241E-11	NaN
363	1.000000	0.464443	7.36861e+06	-56789.1	955.819	-29738.4	0.000000	0.000000	6.464925	0.010341	NaN	0.000000	0.001579	0.001708	28.0824	0.106410	0.001967	54.1071	84.2988	10.3096	0.003077	0.463083	-0.629469	-0.630829	0.010341	54.1071	-0.629613	-2.126691E+8	-4.862517E-11	NaN
363	1.000000	0.506481	7.36861e+06	-56789.1	955.819	-29738.4	0.000000	0.000000	6.506963	0.004395	NaN	0.000000	0.001652	0.001712	28.0822	0.021426	0.002114	10.1331	-112.489	-166.338	-0.070096	0.505147	-0.587431	-0.588765	0.004395	10.1331	-0.587757	-5.645911E+7	-7.783771E-11	NaN
363	1.000000	0.548474	7.36862e+06	-56789.1	955.819	-29738.4	0.000000	0.000000	6.548956	0.013270	NaN	0.000000	0.001644	0.001728	28.0819	0.094575	0.001995	47.412	129.587	12.5044	-0.031288	0.547036	-0.545439	-0.546877	0.013270	47.412	-0.545649	-1.477977E+7	-8.978423E-10	NaN
363	1.000000	0.590492	7.36862e+06	-56789.1	955.818	-29738.4	0.000000	0.000000	6.590973	-0.007126	NaN	0.000000	0.001562	0.001733	28.0807	0.078200	0.001796	43.5484	-18.4206	-166.078	0.084924	0.589159	-0.503421	-0.504753	-0.007126	43.5484	-0.503298	-3.81078e+06	1.869858E-9	NaN
363	1.000000	0.632549	7.36862e+06	-56789.1	955.818	-29738.4	0.000000	0.000000	6.633030	-0.029800	NaN	0.000000	0.001625	0.001677	28.0809	0.103851	0.001950	53.2698	-156.411	14.9761	0.013331	0.631123	-0.461363	-0.462790	-0.029800	53.2698	-0.460944	-973377	3.061487E-8	NaN
363	1.000000	0.674544	7.36862e+06	-56789.1	955.818	-29738.4	0.000000	0.000000	6.675025	-0.017812	NaN	0.000000	0.001602	0.001705	28.0808	0.027251	0.002060	13.2285	-1.135089	-164.794	-0.046025	0.673226	-0.419368	-0.420687	-0.017812	13.2285	-0.418358	-243853	7.304376E-8	NaN
363	1.000000	0.716565	7.36862e+06	-56789.1	955.818	-29738.4	0.000000	0.000000	6.717045	-0.034103	NaN	0.000000	0.001660	0.001733	28.0823	0.067847	0.001886	35.9717	74.7602	12.0824	-0.073392	0.715214	-0.377348	-0.378699	-0.034103	35.9717	-0.376637	-61885.9	5.510552E-7	NaN
363	1.000000	0.758561	7.36862e+06	-56789.1	955.817	-29738.4	0.000000	0.000000	6.759044	0.003974	NaN	0.000000	0.001665	0.001739	28.0821	0.015356	0.001933	7.943682	-129.942	-165.084	-0.002911	0.757282	-0.335351	-0.336630	0.003974	7.943682	-0.335726	-15819.6	-2.512089E-7	NaN
363	1.000000	0.800586	7.36862e+06	-56789.1	955.818	-29738.4	0.000000	0.000000	6.801068	0.000390	NaN	0.000000	0.001685	0.001733	28.0818	0.089818	0.001985	45.2388	-19.8497	12.2767	0.082814	0.799259	-0.293326	-0.294653	0.000390	45.2388	-0.293333	-3742.61	-1.043095E-7	NaN
363	1.000000	0.842619	7.36862e+06	-56789.1	955.818	-29738.4	0.000000	0.000000	6.843096	-0.113962	NaN	0.000000	0.001686	0.001695	28.0821	0.098303	0.001991	49.3794	157.621	-165.246	-0.036479	0.841281	-0.251294	-0.252632	-0.113962	49.3794	-0.249563	-809.472	0.000141	NaN
363	1.000000	0.884639	7.36862e+06	-56789.1	955.819	-29738.4	0.000000	0.000000	6.885119	-0.051159	NaN	0.000000	0.001644	0.001752	28.0808	0.082096	0.002042	40.2056	85.5941	12.6045	-0.009280	0.883271	-0.209274	-0.210641	-0.051159	40.2056	-0.208319	-180.123	0.000284	NaN
363	1.000000	0.926658	7.36862e+06	-56789.1	955.818	-29738.4	0.000000	0.000000	6.927139	-0.040804	NaN	0.000000	0.001558	0.001716	28.0809	0.054682	0.001900	28.7772	-77.8472	-164.402	0.062316	0.925308	-0.167254	-0.168605	-0.040804	28.7772	-0.166190	-35.2519	0.001157	NaN
363	1.000000	0.968666	7.36862e+06	-56789.1	955.818	-29738.4	0.000000	0.000000	6.969147	-0.014099	NaN	0.000000	0.001576	0.001685	28.0806	0.066168	0.002082	31.782	166.752	15.8228	0.009811	0.967245	-0.125247	-0.126667	-0.014099	31.782	-0.124914	-6.057444	0.002328	NaN
363	1.000000	1.010648	7.36862e+06	-56789.1	955.817	-29738.4	0.000000	0.000000	7.011130	-0.001557	NaN	0.000000	0.001602	0.001737	28.0822	0.140050	0.002054	68.193	131.683	-166.34	-0.017950	1.009373	-0.083264	-0.084540	-0.001557	68.193	-0.083247	-0.744765	0.002091	NaN
363	1.000000	1.052714	7.36862e+06	-56789.1	955.818	-29738.4	0.000000	0.000000	7.053196	0.005814	NaN	0.000000	0.001581	0.001722	28.0822	0.082913	0.002101	39.462	21.2806	13.4675	0.010154	1.051302	-0.041199	-0.042610	0.005814	39.462	-0.041309	-0.049567	-0.117288	NaN
363	1.000000	1.094707	7.36862e+06	-56789.1	955.817	-29738.4	0.000000	0.000000	7.095245	1.368305	NaN	0.000000	0.001598	0.001705	28.0824	1.549494	0.002060	752.217	11.8049	-170.557	0.726688	1.093366	0.000794	-0.000547	1.368305	752.217	-0.000570	-0.000421	-3248.57	NaN
363	2.000000	1.110689	7.36862e+06	-56789.1	955.818	-29738.4	0.000000	0.000000	7.111992	19.9726	NaN	0.000000	0.001640	0.001709	28.0809	15.5547	0.001757	8850.81	6.260500	3.437565	19.089	1.110392	0.016776	0.016480	19.9726	8850.81	0.015084	0.015397	1297.14	65167.7
363	2.000000	1.121178	7.36862e+06	-56789.1	955.817	-29738.4	0.000000	0.000000	7.123166	36.6073	NaN	0.000000	0.001721	0.001722	28.0809	23.685	0.001758	13471.1	2.286516	-175.683	34.3423	1.120916	0.027265	0.027004	36.6073	13471.1	0.025227	0.031431	1164.7	69422.6
363	2.000000	1.131680	7.36862e+06	-56789.1	955.818	-29738.4	0.000000	0.000000	7.134704	61.7853	NaN	0.000000	0.001799	0.001681	28.0812	33.8552	0.001827	18534.6	0.951593	3.521377	59.6122	1.131274	0.037768	0.037362	61.7853	18534.6	0.035268	0.052371	1179.76	73996.7
363	2.000000	1.142158	7.36862e+06	-56789.1	955.817	-29738.4	0.000000	0.000000	7.146658	97.6548	NaN	0.000000	0.001717	0.001724	28.0822	43.1963	0.001887	22897.5	4.507327	177.779	96.1562	1.141858	0.048246	0.047946	97.6548	22897.5	0.045047	0.077721	1256.49	75040.2
363	2.000000	1.152590	7.36862e+06	-56789.1	955.816	-29738.4	0.000000	0.000000	7.158797	139.149	NaN	0.000000	0.001771	0.001669	28.0823	51.2251	0.001713	29904.4	1.924828	-1.541050	134.591	1.152313	0.058678	0.058401	139.149	29904.4	0.055188	0.109120	1275.19	82709.6
363	2.000000	1.163169	7.36862e+06	-56789.1	955.817	-29738.4	0.000000	0.000000	7.171461	189.849	NaN	0.000000	0.001725	0.001701	28.0825	61.7133	0.001713	36022	5.692106	173.352	188.81	1.162856	0.069256	0.068944	189.849	36022	0.065303	0.145510	1304.72	86277
363	2.000000	1.173712	7.36862e+06	-56789.1	955.818	-29738.4	0.000000	0.000000	7.184548	251.659	NaN	0.000000	0.001762	0.001702	28.0825	72.0106	0.001857	38777.2	2.975336	-4.198390	252.058	1.173213	0.079799	0.079300	251.659	38777.2	0.074932	0.184727	1362.32	82429.8
363	2.000000	1.184102	7.36862e+06	-56789.1	955.817	-29738.4	0.000000	0.000000	7.197461	312.997	NaN	0.000000	0.001736	0.001705	28.0809	81.0724	0.001743	46524.6	-0.635132	177.059	311.922	1.183883	0.090190	0.089970	312.997	46524.6	0.085144	0.231089	1354.44	88423.1
363	2.000000	1.194496	7.36862e+06	-56789.1	955.818	-29738.4	0.000000	0.000000	7.211473	400.913	NaN	0.000000	0.001713	0.001630	28.081	93.355	0.001811	51537	6.176831	-10.1964	394.528	1.194179	0.100584	0.100267	400.913	51537	0.094749	0.279095	1436.47	89128.4
363	2.000000	1.200514	7.36862e+06	-56789.1	955.818	-29738.4	0.000000	0.000000	7.219393	447.174	NaN	0.000000	0.001610	0.001701	28.0809	98.7594	0.001787	55274.4	6.316823	-10.4737	439.826	1.200109	0.106601	0.106197	447.174	55274.4	0.100534	0.310038	1442.32	90696.4

File: 2025-07-22_16-23-58_1_364.txt
2025-07-22, 16:23:58, 1
Index	Phase	Displacement	Time	Pos X	Pos Y	Pos Z	Rot A	Rot B	Piezo Z	Force A	Force B	Gripper	Voltage A	Voltage B	Temperature	Amplitude force	Amplitude pos	Stiffness	Phase shift	Phase excitation	Force A raw	Displacement raw	HMax	HMax raw	Real Force	Real Stiffness	Contact Depth	Area	Hardness	Reduced Mod.
[#]	[#]	[um]	[s]	[um]	[um]	[um]	[m°]	[m°]	[um]	[uN]	[uN]	[V]	[V]	[V]	[°C]	[uN]	[um]	[N/m]	[°]	[°]	[uN]	[um]	[um]	[um]	[uN]	[N/m]	[um]	[um^2]	[MPa]	[MPa]
364	1.000000	0.002552	7.36862e+06	-56839.1	955.819	-29738.3	0.000000	0.000000	6.002800	0.015509	NaN	0.000000	0.001677	0.001709	28.0808	0.052726	0.001030	51.1999	-144.631	-169.064	-0.072894	0.001289	-1.095686	-1.096948	0.015509	51.1999	-1.095913	-4.417730E+14	-3.510523E-17	NaN
364	1.000000	0.044508	7.36862e+06	-56839.1	955.819	-29738.3	0.000000	0.000000	6.044752	-0.090150	NaN	0.000000	0.001654	0.001696	28.0804	0.129522	0.001916	67.6044	-75.529	10.4175	-0.037108	0.043131	-1.053730	-1.055107	-0.090150	67.6044	-1.052730	-1.161742E+14	7.759894E-16	NaN
364	1.000000	0.086482	7.36862e+06	-56839.1	955.819	-29738.3	0.000000	0.000000	6.086727	-0.064242	NaN	0.000000	0.001610	0.001678	28.0791	0.067588	0.001925	35.1098	-123.298	-168.663	-0.063684	0.085231	-1.011756	-1.013006	-0.064242	35.1098	-1.010383	-3.129994E+13	2.052468E-15	NaN
364	1.000000	0.128523	7.36862e+06	-56839.1	955.818	-29738.3	0.000000	0.000000	6.128769	-0.051710	NaN	0.000000	0.001688	0.001690	28.0796	0.102509	0.002056	49.8652	138.853	10.8711	-0.100208	0.127159	-0.969714	-0.971079	-0.051710	49.8652	-0.968936	-8.656250E+12	5.973686E-15	NaN
364	1.000000	0.170542	7.36862e+06	-56839.1	955.818	-29738.3	0.000000	0.000000	6.170790	-0.002745	NaN	0.000000	0.001695	0.001731	28.079	0.057454	0.002044	28.1033	18.7384	-166.571	-0.029755	0.169273	-0.927696	-0.928964	-0.002745	28.1033	-0.927622	-2.399416E+12	1.143841E-15	NaN
364	1.000000	0.212552	7.36862e+06	-56839.1	955.819	-29738.3	0.000000	0.000000	6.212797	-0.076369	NaN	0.000000	0.001645	0.001766	28.0805	0.059616	0.002020	29.5176	-134.964	14.4267	-0.016955	0.211212	-0.885686	-0.887025	-0.076369	29.5176	-0.883745	-6.128482E+11	1.246128E-13	NaN
364	1.000000	0.254556	7.36862e+06	-56839.1	955.818	-29738.3	0.000000	0.000000	6.254805	0.008745	NaN	0.000000	0.001599	0.001734	28.0805	0.032438	0.001911	16.9736	133.788	-164.855	-0.053420	0.253273	-0.843681	-0.844964	0.008745	16.9736	-0.844068	-1.779888E+11	-4.912990E-14	NaN
364	1.000000	0.296602	7.36862e+06	-56839.1	955.819	-29738.3	0.000000	0.000000	6.296848	-0.044178	NaN	0.000000	0.001604	0.001742	28.0803	0.071519	0.002002	35.7162	157.505	13.9325	-0.070029	0.295275	-0.801636	-0.802962	-0.044178	35.7162	-0.800708	-4.596972E+10	9.610235E-13	NaN
364	1.000000	0.338589	7.36862e+06	-56839.1	955.819	-29738.3	0.000000	0.000000	6.338834	-0.077852	NaN	0.000000	0.001651	0.001776	28.0792	0.115098	0.002040	56.4212	64.2513	-166.461	-0.088261	0.337335	-0.759649	-0.760903	-0.077852	56.4212	-0.758614	-1.231521E+10	6.321578E-12	NaN
364	1.000000	0.380683	7.36862e+06	-56839.1	955.818	-29738.3	0.000000	0.000000	6.380928	-0.074301	NaN	0.000000	0.001646	0.001715	28.0792	0.086158	0.001949	44.21	87.695	13.4887	-0.079448	0.379244	-0.717554	-0.718994	-0.074301	44.21	-0.716294	-3.265308E+9	2.275457E-11	NaN
364	1.000000	0.422683	7.36862e+06	-56839.1	955.818	-29738.3	0.000000	0.000000	6.422926	-0.114699	NaN	0.000000	0.001685	0.001720	28.0792	0.056993	0.002105	27.0756	22.7686	-163.591	-0.131806	0.421368	-0.675554	-0.676869	-0.114699	27.0756	-0.672377	-8.202072E+8	1.398415E-10	NaN
364	1.000000	0.464703	7.36862e+06	-56839.1	955.818	-29738.3	0.000000	0.000000	6.464949	-0.040682	NaN	0.000000	0.001671	0.001782	28.0803	0.103819	0.002021	51.3653	120.12	12.7811	-0.007887	0.463295	-0.633535	-0.634942	-0.040682	51.3653	-0.632941	-2.362665E+8	1.721867E-10	NaN
364	1.000000	0.506677	7.36862e+06	-56839.1	955.819	-29738.3	0.000000	0.000000	6.506920	-0.102017	NaN	0.000000	0.001673	0.001690	28.0801	0.034872	0.002016	17.2988	-158.492	-165.834	-0.073714	0.505415	-0.591561	-0.592822	-0.102017	17.2988	-0.587138	-5.536073E+7	1.842777E-9	NaN
364	1.000000	0.548722	7.36862e+06	-56839.1	955.818	-29738.3	0.000000	0.000000	6.548969	-0.017893	NaN	0.000000	0.001662	0.001713	28.0804	0.024770	0.002062	12.0151	95.5207	13.0367	0.007471	0.547357	-0.549515	-0.550880	-0.017893	12.0151	-0.548398	-1.613501E+7	1.108962E-9	NaN
364	1.000000	0.590752	7.36862e+06	-56839.1	955.817	-29738.3	0.000000	0.000000	6.590998	-0.030012	NaN	0.000000	0.001663	0.001726	28.0805	0.121431	0.001993	60.9427	-42.8367	-165.555	0.010066	0.589389	-0.507486	-0.508848	-0.030012	60.9427	-0.507116	-4.30767e+06	6.967023E-9	NaN
364	1.000000	0.632770	7.36863e+06	-56839.1	955.819	-29738.3	0.000000	0.000000	6.633015	-0.059355	NaN	0.000000	0.001751	0.001763	28.0793	0.118805	0.001886	62.9939	2.672520	15.3385	-0.095438	0.631384	-0.465468	-0.466853	-0.059355	62.9939	-0.464761	-1.10126e+06	5.389720E-8	NaN
364	1.000000	0.674783	7.36863e+06	-56839.1	955.817	-29738.3	0.000000	0.000000	6.675026	-0.114893	NaN	0.000000	0.001774	0.001712	28.0792	0.083255	0.002061	40.4027	132.317	-170.179	-0.077108	0.673474	-0.423455	-0.424763	-0.114893	40.4027	-0.421322	-268636	4.276892E-7	NaN
364	1.000000	0.716774	7.36863e+06	-56839.1	955.817	-29738.3	0.000000	0.000000	6.717019	-0.056738	NaN	0.000000	0.001745	0.001705	28.0793	0.050410	0.002009	25.0923	-80.4294	12.5546	-0.085742	0.715399	-0.381464	-0.382839	-0.056738	25.0923	-0.379768	-68637.1	8.266372E-7	NaN
364	1.000000	0.758819	7.36863e+06	-56839.1	955.819	-29738.3	0.000000	0.000000	6.759064	-0.068508	NaN	0.000000	0.001682	0.001706	28.08	0.030467	0.001950	15.6231	-127.53	-167.789	-0.060054	0.757429	-0.339418	-0.340809	-0.068508	15.6231	-0.336130	-16035.6	4.272252E-6	NaN
364	1.000000	0.800827	7.36863e+06	-56839.1	955.818	-29738.3	0.000000	0.000000	6.801073	-0.042789	NaN	0.000000	0.001666	0.001719	28.08	0.034206	0.002009	17.0232	111.377	11.7278	0.054769	0.799479	-0.297410	-0.298758	-0.042789	17.0232	-0.295525	-4035.79	1.060248E-5	NaN
364	1.000000	0.842830	7.36863e+06	-56839.1	955.818	-29738.3	0.000000	0.000000	6.843076	-0.041490	NaN	0.000000	0.001694	0.001674	28.0798	0.104650	0.001983	52.7779	142.941	-165.405	-0.081581	0.841502	-0.255408	-0.256736	-0.041490	52.7779	-0.254818	-975.703	4.252315E-5	NaN
364	1.000000	0.884816	7.36863e+06	-56839.1	955.819	-29738.3	0.000000	0.000000	6.885062	-0.062272	NaN	0.000000	0.001682	0.001649	28.0791	0.098044	0.002131	46.0179	-71.7411	14.3628	-0.104387	0.883525	-0.213421	-0.214713	-0.062272	46.0179	-0.212406	-209.759	0.000297	NaN
364	1.000000	0.926875	7.36863e+06	-56839.1	955.817	-29738.3	0.000000	0.000000	6.927120	-0.076362	NaN	0.000000	0.001716	0.001704	28.0794	0.199816	0.002056	97.1692	-86.543	-166.351	-0.012648	0.925564	-0.171363	-0.172674	-0.076362	97.1692	-0.170773	-42.3671	0.001802	NaN
364	1.000000	0.968915	7.36863e+06	-56839.1	955.818	-29738.3	0.000000	0.000000	6.969159	-0.093425	NaN	0.000000	0.001722	0.001673	28.0793	0.046486	0.002066	22.501	-116.621	9.299288	-0.140187	0.967542	-0.129322	-0.130696	-0.093425	22.501	-0.126208	-6.424678	0.014542	NaN
364	1.000000	1.010910	7.36863e+06	-56839.1	955.819	-29738.3	0.000000	0.000000	7.011157	0.001243	NaN	0.000000	0.001704	0.001747	28.0806	0.107573	0.001984	54.2274	-87.4599	-168.571	-0.033633	1.009521	-0.087328	-0.088716	0.001243	54.2274	-0.087345	-0.935444	-0.001329	NaN
364	1.000000	1.052914	7.36863e+06	-56839.1	955.818	-29738.3	0.000000	0.000000	7.053158	-0.072603	NaN	0.000000	0.001702	0.001718	28.0804	0.008840	0.001866	4.737024	-40.5601	13.6602	-0.014858	1.051516	-0.045324	-0.046721	-0.072603	4.737024	-0.033829	-0.029592	2.453492	NaN
364	1.000000	1.094935	7.36863e+06	-56839.1	955.818	-29738.3	0.000000	0.000000	7.095179	-0.086403	NaN	0.000000	0.001728	0.001715	28.0807	0.143328	0.001989	72.0737	179.483	-167.622	-0.061812	1.093689	-0.003302	-0.004548	-0.086403	72.0737	-0.002403	-0.001717	50.3265	NaN
364	2.000000	1.114838	7.36863e+06	-56839.1	955.818	-29738.3	0.000000	0.000000	7.115873	19.1132	NaN	0.000000	0.001661	0.001701	28.0804	16.3969	0.001776	9234.27	3.796119	7.409602	17.7993	1.114566	0.016601	0.016329	19.1132	9234.27	0.015048	0.015350	1245.15	68095.8
364	2.000000	1.125286	7.36863e+06	-56839.1	955.818	-29738.3	0.000000	0.000000	7.127237	41.3984	NaN	0.000000	0.001627	0.001728	28.0791	26.2954	0.001754	14994	3.889776	-178.487	38.6465	1.124971	0.027048	0.026733	41.3984	14994	0.024977	0.030974	1336.54	77837.5
364	2.000000	1.135821	7.36863e+06	-56839.1	955.819	-29738.3	0.000000	0.000000	7.139076	73.0951	NaN	0.000000	0.001631	0.001729	28.0794	35.8968	0.001716	20924.3	4.281933	-1.087073	71.5053	1.135376	0.037583	0.037138	73.0951	20924.3	0.034963	0.051661	1414.9	84109
364	2.000000	1.146282	7.36863e+06	-56839.1	955.819	-29738.3	0.000000	0.000000	7.151361	117.436	NaN	0.000000	0.001671	0.001695	28.0792	45.6226	0.001701	26828.3	4.580704	177.722	116.777	1.145913	0.048045	0.047675	117.436	26828.3	0.044762	0.076912	1526.89	88383.2
364	2.000000	1.156803	7.36863e+06	-56839.1	955.819	-29738.3	0.000000	0.000000	7.163593	159.021	NaN	0.000000	0.001634	0.001756	28.0805	56.2735	0.001836	30641.9	4.356359	-3.727391	158.67	1.156376	0.058565	0.058138	159.021	30641.9	0.054673	0.107402	1480.61	85424.5
364	2.000000	1.167264	7.36863e+06	-56839.1	955.819	-29738.3	0.000000	0.000000	7.176185	210.789	NaN	0.000000	0.001650	0.001728	28.0803	66.8749	0.001897	35247.1	5.659216	173.742	208.683	1.166958	0.069027	0.068721	210.789	35247.1	0.064542	0.142596	1478.23	85279.2
364	2.000000	1.177721	7.36863e+06	-56839.1	955.82	-29738.3	0.000000	0.000000	7.189453	279.115	NaN	0.000000	0.001673	0.001754	28.0803	74.971	0.001838	40789.6	4.189992	-6.073621	275.554	1.177457	0.079484	0.079219	279.115	40789.6	0.074352	0.182240	1531.58	87297.3
364	2.000000	1.188250	7.36863e+06	-56839.1	955.82	-29738.3	0.000000	0.000000	7.202567	341.96	NaN	0.000000	0.001596	0.001694	28.0794	85.158	0.001776	47941	3.334970	172.877	339.218	1.187927	0.090013	0.089690	341.96	47941	0.084663	0.228797	1494.6	91570.5
364	2.000000	1.198650	7.36863e+06	-56839.1	955.82	-29738.3	0.000000	0.000000	7.216218	420.971	NaN	0.000000	0.001666	0.001691	28.0791	93.3773	0.001730	53976.7	2.258845	-5.728176	414.766	1.198314	0.100413	0.100076	420.971	53976.7	0.094564	0.278126	1513.6	93510.2
364	2.000000	1.206223	7.36863e+06	-56839.1	955.821	-29738.3	0.000000	0.000000	7.225988	474.377	NaN	0.000000	0.001685	0.001676	28.0793	102.089	0.001762	57949.1	5.872243	169.86	472.656	1.205806	0.107986	0.107568	474.377	57949.1	0.101846	0.317270	1495.18	93995.2