Folder: unikorn_login/remote_trans/data/nanoindenter/0828-1/data/Data_2025-08-06,11h17m57s (part 147)

File: 2025-07-22_16-23-58_1_311.txt
2025-07-22, 16:23:58, 1
Index	Phase	Displacement	Time	Pos X	Pos Y	Pos Z	Rot A	Rot B	Piezo Z	Force A	Force B	Gripper	Voltage A	Voltage B	Temperature	Amplitude force	Amplitude pos	Stiffness	Phase shift	Phase excitation	Force A raw	Displacement raw	HMax	HMax raw	Real Force	Real Stiffness	Contact Depth	Area	Hardness	Reduced Mod.
[#]	[#]	[um]	[s]	[um]	[um]	[um]	[m°]	[m°]	[um]	[uN]	[uN]	[V]	[V]	[V]	[°C]	[uN]	[um]	[N/m]	[°]	[°]	[uN]	[um]	[um]	[um]	[uN]	[N/m]	[um]	[um^2]	[MPa]	[MPa]
311	1.000000	0.002463	7.36811e+06	-54189.1	955.817	-29744.5	0.000000	0.000000	6.002808	-0.082527	NaN	0.000000	0.001570	0.001733	28.0811	0.098031	0.000813	120.506	112.064	-162.263	-0.030345	0.001179	-1.094845	-1.096130	-0.082527	120.506	-1.094332	-4.207009E+14	1.961664E-16	NaN
311	1.000000	0.044420	7.36811e+06	-54189.1	955.818	-29744.5	0.000000	0.000000	6.044768	0.002437	NaN	0.000000	0.001571	0.001696	28.081	0.122132	0.001860	65.6725	50.4635	13.8687	0.032903	0.043039	-1.052889	-1.054269	0.002437	65.6725	-1.052916	-1.168468E+14	-2.085637E-17	NaN
311	1.000000	0.086406	7.36811e+06	-54189.1	955.817	-29744.5	0.000000	0.000000	6.086753	-0.021343	NaN	0.000000	0.001622	0.001689	28.0811	0.022290	0.002168	10.2798	-151.714	-165.643	-0.041472	0.085084	-1.010903	-1.012225	-0.021343	10.2798	-1.009345	-3.030905E+13	7.041935E-16	NaN
311	1.000000	0.128434	7.36811e+06	-54189.1	955.818	-29744.5	0.000000	0.000000	6.128779	-0.057799	NaN	0.000000	0.001638	0.001663	28.0796	0.060435	0.002096	28.8384	82.284	14.9685	-0.026891	0.127068	-0.968875	-0.970241	-0.057799	28.8384	-0.967372	-8.245990E+12	7.009310E-15	NaN
311	1.000000	0.170440	7.36811e+06	-54189.1	955.817	-29744.5	0.000000	0.000000	6.170787	-0.015412	NaN	0.000000	0.001637	0.001757	28.0797	0.028726	0.002070	13.8801	-114.021	-170.068	0.016364	0.169153	-0.926869	-0.928156	-0.015412	13.8801	-0.926036	-2.284004E+12	6.747841E-15	NaN
311	1.000000	0.212451	7.36811e+06	-54189.1	955.818	-29744.5	0.000000	0.000000	6.212798	-0.049020	NaN	0.000000	0.001594	0.001771	28.0798	0.054821	0.001914	28.638	-8.057481	14.9678	-0.006016	0.211086	-0.884857	-0.886223	-0.049020	28.638	-0.883573	-6.095778E+11	8.041703E-14	NaN
311	1.000000	0.254512	7.36811e+06	-54189.1	955.818	-29744.5	0.000000	0.000000	6.254856	-0.099353	NaN	0.000000	0.001586	0.001708	28.0808	0.121699	0.002001	60.8209	-100.974	-164.252	-0.081007	0.253223	-0.842796	-0.844086	-0.099353	60.8209	-0.841571	-1.646559E+11	6.034006E-13	NaN
311	1.000000	0.296493	7.36811e+06	-54189.1	955.818	-29744.5	0.000000	0.000000	6.296841	-0.006121	NaN	0.000000	0.001609	0.001677	28.0808	0.072216	0.002210	32.6706	87.6562	16.1992	-0.008553	0.295171	-0.800815	-0.802137	-0.006121	32.6706	-0.800675	-4.592244E+10	1.332816E-13	NaN
311	1.000000	0.338501	7.36811e+06	-54189.1	955.818	-29744.5	0.000000	0.000000	6.338850	0.022090	NaN	0.000000	0.001613	0.001680	28.081	0.050115	0.002067	24.2435	-65.5366	-163.709	0.093848	0.337194	-0.758807	-0.760115	0.022090	24.2435	-0.759491	-1.265827E+10	-1.745071E-12	NaN
311	1.000000	0.380544	7.36811e+06	-54189.1	955.817	-29744.5	0.000000	0.000000	6.380893	-0.000275	NaN	0.000000	0.001609	0.001681	28.0796	0.024319	0.002141	11.3603	-32.9122	13.8131	0.015843	0.379223	-0.716764	-0.718085	-0.000275	11.3603	-0.716746	-3.312004E+9	8.299572E-14	NaN
311	1.000000	0.422542	7.36811e+06	-54189.1	955.818	-29744.5	0.000000	0.000000	6.422890	-0.005045	NaN	0.000000	0.001571	0.001667	28.0795	0.119420	0.001945	61.3933	148.131	-167.878	-0.040864	0.421311	-0.674767	-0.675998	-0.005045	61.3933	-0.674705	-8.826337E+8	5.715842E-12	NaN
311	1.000000	0.464625	7.36811e+06	-54189.1	955.817	-29744.5	0.000000	0.000000	6.464972	-0.021949	NaN	0.000000	0.001563	0.001703	28.0794	0.037302	0.002170	17.1905	169.975	16.604	-0.116082	0.463219	-0.632684	-0.634090	-0.021949	17.1905	-0.631726	-2.273666E+8	9.653454E-11	NaN
311	1.000000	0.506609	7.36811e+06	-54189.1	955.818	-29744.5	0.000000	0.000000	6.506960	0.057014	NaN	0.000000	0.001651	0.001684	28.0795	0.037725	0.002012	18.7511	127.752	-165.569	0.018779	0.505296	-0.590699	-0.592013	0.057014	18.7511	-0.592980	-6.664054E+7	-8.555473E-10	NaN
311	1.000000	0.548616	7.36811e+06	-54189.1	955.818	-29744.5	0.000000	0.000000	6.548964	-0.026042	NaN	0.000000	0.001703	0.001696	28.0808	0.086748	0.002105	41.2135	-88.3555	13.7765	-0.058158	0.547242	-0.548692	-0.550067	-0.026042	41.2135	-0.548218	-1.604259E+7	1.623326E-9	NaN
311	1.000000	0.590629	7.36811e+06	-54189.1	955.818	-29744.5	0.000000	0.000000	6.590974	-0.063634	NaN	0.000000	0.001672	0.001688	28.0804	0.157098	0.001956	80.3348	42.4354	-165.159	-0.015987	0.589351	-0.506680	-0.507958	-0.063634	80.3348	-0.506086	-4.16756e+06	1.526891E-8	NaN
311	1.000000	0.632642	7.36811e+06	-54189.1	955.817	-29744.5	0.000000	0.000000	6.632988	-0.068540	NaN	0.000000	0.001631	0.001730	28.0805	0.078607	0.002018	38.9574	62.9341	14.6514	-0.058559	0.631318	-0.464666	-0.465991	-0.068540	38.9574	-0.463347	-1.05204e+06	6.514901E-8	NaN
311	1.000000	0.674669	7.36811e+06	-54189.1	955.817	-29744.5	0.000000	0.000000	6.675019	0.039824	NaN	0.000000	0.001592	0.001707	28.0794	0.156178	0.002189	71.3501	165.338	-169.485	0.033645	0.673328	-0.422640	-0.423981	0.039824	71.3501	-0.423058	-284298	-1.400787E-7	NaN
311	1.000000	0.716709	7.36811e+06	-54189.1	955.818	-29744.5	0.000000	0.000000	6.717056	-0.015379	NaN	0.000000	0.001687	0.001684	28.0793	0.072424	0.002078	34.8479	2.782514	13.598	-0.048323	0.715348	-0.380600	-0.381961	-0.015379	34.8479	-0.380269	-69782.7	2.203770E-7	NaN
311	1.000000	0.758711	7.36811e+06	-54189.1	955.817	-29744.5	0.000000	0.000000	6.759056	-0.078311	NaN	0.000000	0.001721	0.001664	28.0797	0.067870	0.001950	34.8017	137.246	-168.159	-0.009325	0.757430	-0.338597	-0.339879	-0.078311	34.8017	-0.336910	-16461.7	4.757163E-6	NaN
311	1.000000	0.800719	7.36811e+06	-54189.1	955.818	-29744.5	0.000000	0.000000	6.801070	0.055829	NaN	0.000000	0.001650	0.001680	28.0807	0.034180	0.001937	17.6472	-80.1429	13.3056	-0.013960	0.799413	-0.296589	-0.297896	0.055829	17.6472	-0.298962	-4541.28	-1.229362E-5	NaN
311	1.000000	0.842756	7.36811e+06	-54189.1	955.818	-29744.5	0.000000	0.000000	6.843104	-0.018490	NaN	0.000000	0.001634	0.001663	28.0804	0.101309	0.001995	50.7726	114.91	-165.092	-0.007428	0.841480	-0.254552	-0.255828	-0.018490	50.7726	-0.254279	-957.228	1.931643E-5	NaN
311	1.000000	0.884743	7.36811e+06	-54189.1	955.817	-29744.5	0.000000	0.000000	6.885089	-0.034328	NaN	0.000000	0.001654	0.001690	28.0805	0.088689	0.002091	42.4202	-23.978	14.8864	-0.037540	0.883413	-0.212566	-0.213895	-0.034328	42.4202	-0.211959	-206.301	0.000166	NaN
311	1.000000	0.926769	7.36811e+06	-54189.1	955.818	-29744.5	0.000000	0.000000	6.927116	-0.026559	NaN	0.000000	0.001651	0.001698	28.0792	0.049385	0.001915	25.789	107.631	-166.574	-0.020819	0.925495	-0.170540	-0.171814	-0.026559	25.789	-0.169767	-40.698	0.000653	NaN
311	1.000000	0.968816	7.36811e+06	-54189.1	955.817	-29744.5	0.000000	0.000000	6.969163	-0.042807	NaN	0.000000	0.001636	0.001647	28.0791	0.098087	0.001972	49.7346	-42.4568	12.9812	-0.107787	0.967452	-0.128492	-0.129857	-0.042807	49.7346	-0.127847	-6.918632	0.006187	NaN
311	1.000000	1.010804	7.36811e+06	-54189.1	955.819	-29744.5	0.000000	0.000000	7.011151	-0.020589	NaN	0.000000	0.001645	0.001690	28.0794	0.068697	0.002019	34.0327	68.2585	-166.509	-0.036849	1.009504	-0.086505	-0.087804	-0.020589	34.0327	-0.086051	-0.871028	0.023638	NaN
311	1.000000	1.052849	7.36811e+06	-54189.1	955.819	-29744.5	0.000000	0.000000	7.053197	0.002544	NaN	0.000000	0.001617	0.001680	28.0797	0.120278	0.002003	60.049	176.469	14.8894	-0.031424	1.051491	-0.044460	-0.045817	0.002544	60.049	-0.044491	-0.062007	-0.041026	NaN
311	1.000000	1.094837	7.36811e+06	-54189.1	955.82	-29744.5	0.000000	0.000000	7.095183	-0.055159	NaN	0.000000	0.001636	0.001678	28.0806	0.080279	0.002076	38.6687	67.4882	-163.103	0.099506	1.093508	-0.002471	-0.003800	-0.055159	38.6687	-0.001401	-0.001020	54.094	NaN
311	2.000000	1.113896	7.36811e+06	-54189.1	955.819	-29744.5	0.000000	0.000000	7.114986	18.0369	NaN	0.000000	0.001738	0.001674	28.0811	16.9955	0.001847	9202.27	7.753705	2.902565	16.3137	1.113571	0.016588	0.016263	18.0369	9202.27	0.015118	0.015443	1168	67656.2
311	2.000000	1.124376	7.36811e+06	-54189.1	955.82	-29744.5	0.000000	0.000000	7.126354	39.6237	NaN	0.000000	0.001683	0.001703	28.0809	27.9257	0.001802	15498.7	5.448191	179.492	38.9069	1.124065	0.027068	0.026757	39.6237	15498.7	0.025150	0.031289	1266.36	80051.4
311	2.000000	1.134873	7.36811e+06	-54189.1	955.82	-29744.5	0.000000	0.000000	7.138119	70.4632	NaN	0.000000	0.001687	0.001692	28.0792	36.9062	0.001710	21577	6.077803	-3.056892	70.0652	1.134475	0.037564	0.037166	70.4632	21577	0.035115	0.052014	1354.69	86437.5
311	2.000000	1.145335	7.36811e+06	-54189.1	955.82	-29744.5	0.000000	0.000000	7.150105	107.493	NaN	0.000000	0.001614	0.001678	28.0793	46.8576	0.001741	26920.8	2.319954	178.851	104.81	1.144979	0.048026	0.047670	107.493	26920.8	0.045032	0.077677	1383.84	88249.8
311	2.000000	1.155841	7.36811e+06	-54189.1	955.819	-29744.5	0.000000	0.000000	7.162371	150.289	NaN	0.000000	0.001639	0.001661	28.0793	55.7656	0.001761	31672.4	-0.250782	-0.604408	147.866	1.155519	0.058533	0.058210	150.289	31672.4	0.054974	0.108405	1386.36	87888.1
311	2.000000	1.166307	7.36811e+06	-54189.1	955.821	-29744.5	0.000000	0.000000	7.175251	208.967	NaN	0.000000	0.001620	0.001662	28.0803	67.9665	0.001767	38470.1	4.970285	172.819	205.301	1.165949	0.068998	0.068641	208.967	38470.1	0.064924	0.144057	1450.59	92604.1
311	2.000000	1.176918	7.36812e+06	-54189.1	955.82	-29744.5	0.000000	0.000000	7.188327	268.903	NaN	0.000000	0.001633	0.001712	28.0803	79.0893	0.001843	42918.9	4.663970	-7.292606	272.853	1.176575	0.079609	0.079266	268.903	42918.9	0.074910	0.184633	1456.42	91257.3
311	2.000000	1.187195	7.36812e+06	-54189.1	955.82	-29744.5	0.000000	0.000000	7.201850	347.803	NaN	0.000000	0.001652	0.001705	28.0802	86.7227	0.001909	45438.3	1.392063	175.394	343.22	1.186910	0.089887	0.089602	347.803	45438.3	0.084146	0.226344	1536.61	87259
311	2.000000	1.197687	7.36812e+06	-54189.1	955.819	-29744.5	0.000000	0.000000	7.215178	416.771	NaN	0.000000	0.001604	0.001707	28.0791	97.7791	0.001793	54528.2	5.196202	-9.787068	409.352	1.197309	0.100378	0.100000	416.771	54528.2	0.094646	0.278554	1496.19	94393
311	2.000000	1.204787	7.36812e+06	-54189.1	955.819	-29744.5	0.000000	0.000000	7.224936	481.385	NaN	0.000000	0.001577	0.001681	28.0796	104.844	0.001848	56737.4	4.331528	-8.895747	480.216	1.204427	0.107478	0.107118	481.385	56737.4	0.101115	0.313231	1536.84	92621.1

File: 2025-07-22_16-23-58_1_312.txt
2025-07-22, 16:23:58, 1
Index	Phase	Displacement	Time	Pos X	Pos Y	Pos Z	Rot A	Rot B	Piezo Z	Force A	Force B	Gripper	Voltage A	Voltage B	Temperature	Amplitude force	Amplitude pos	Stiffness	Phase shift	Phase excitation	Force A raw	Displacement raw	HMax	HMax raw	Real Force	Real Stiffness	Contact Depth	Area	Hardness	Reduced Mod.
[#]	[#]	[um]	[s]	[um]	[um]	[um]	[m°]	[m°]	[um]	[uN]	[uN]	[V]	[V]	[V]	[°C]	[uN]	[um]	[N/m]	[°]	[°]	[uN]	[um]	[um]	[um]	[uN]	[N/m]	[um]	[um^2]	[MPa]	[MPa]
312	1.000000	0.002603	7.36812e+06	-54239.1	955.817	-29744.4	0.000000	0.000000	6.002784	0.007615	NaN	0.000000	0.001640	0.001681	28.0798	0.022745	0.000866	26.2522	16.0632	-162.315	0.037379	0.001371	-1.068857	-1.070089	0.007615	26.2522	-1.069075	-1.926456E+14	-3.952750E-17	NaN
312	1.000000	0.042557	7.36812e+06	-54239.1	955.819	-29744.4	0.000000	0.000000	6.042736	-0.041471	NaN	0.000000	0.001584	0.001698	28.0802	0.037814	0.001909	19.8037	-9.223664	-168.761	-0.049695	0.041280	-1.028903	-1.030180	-0.041471	19.8037	-1.027333	-5.291810E+13	7.836770E-16	NaN
312	1.000000	0.082595	7.36812e+06	-54239.1	955.819	-29744.4	0.000000	0.000000	6.082779	0.095015	NaN	0.000000	0.001584	0.001648	28.0801	0.024880	0.001939	12.8326	64.9371	-164.104	0.048000	0.081215	-0.988865	-0.990245	0.095015	12.8326	-0.994418	-1.908161E+13	-4.979381E-15	NaN
312	1.000000	0.122585	7.36812e+06	-54239.1	955.819	-29744.4	0.000000	0.000000	6.122768	0.072608	NaN	0.000000	0.001553	0.001668	28.0787	0.062913	0.002003	31.4065	122.891	-166.357	0.044714	0.121276	-0.948875	-0.950184	0.072608	31.4065	-0.950609	-4.900545E+12	-1.481639E-14	NaN
312	1.000000	0.162592	7.36812e+06	-54239.1	955.818	-29744.4	0.000000	0.000000	6.162775	0.044911	NaN	0.000000	0.001626	0.001664	28.0788	0.059212	0.002056	28.7973	1.431569	-166.752	0.074131	0.161290	-0.908868	-0.910170	0.044911	28.7973	-0.910037	-1.388891E+12	-3.233602E-14	NaN
312	1.000000	0.202625	7.36812e+06	-54239.1	955.819	-29744.4	0.000000	0.000000	6.202804	-0.025736	NaN	0.000000	0.001558	0.001677	28.0789	0.059743	0.001920	31.1173	130.156	-165.24	-0.008187	0.201285	-0.868835	-0.870175	-0.025736	31.1173	-0.868215	-3.778286E+11	6.811451E-14	NaN
312	1.000000	0.242662	7.36812e+06	-54239.1	955.819	-29744.4	0.000000	0.000000	6.242843	-0.005188	NaN	0.000000	0.001631	0.001651	28.0802	0.079187	0.002085	37.9857	158.571	-165.352	-0.040078	0.241314	-0.828798	-0.830146	-0.005188	37.9857	-0.828695	-1.101796E+11	4.708787E-14	NaN
312	1.000000	0.282679	7.36812e+06	-54239.1	955.818	-29744.4	0.000000	0.000000	6.282856	-0.085057	NaN	0.000000	0.001603	0.001642	28.0798	0.027916	0.002027	13.7726	-103.026	-162.968	-0.031876	0.281395	-0.788781	-0.790065	-0.085057	13.7726	-0.784149	-2.739123E+10	3.105251E-12	NaN
312	1.000000	0.322709	7.36812e+06	-54239.1	955.818	-29744.4	0.000000	0.000000	6.322894	0.111022	NaN	0.000000	0.001611	0.001673	28.0798	0.097292	0.002124	45.81	-173.197	-168.717	0.064275	0.321347	-0.748751	-0.750113	0.111022	45.81	-0.750569	-9.571091E+9	-1.159969E-11	NaN
312	1.000000	0.362725	7.36812e+06	-54239.1	955.818	-29744.4	0.000000	0.000000	6.362906	0.012537	NaN	0.000000	0.001625	0.001601	28.0799	0.109689	0.002078	52.7883	-112.95	-166.705	-0.011209	0.361414	-0.708735	-0.710046	0.012537	52.7883	-0.708913	-2.589502E+9	-4.841556E-12	NaN
312	1.000000	0.402715	7.36812e+06	-54239.1	955.818	-29744.4	0.000000	0.000000	6.402896	0.010856	NaN	0.000000	0.001616	0.001667	28.0788	0.127877	0.002011	63.5779	-171.231	-165.015	-0.025830	0.401371	-0.668745	-0.670089	0.010856	63.5779	-0.668873	-7.344534E+8	-1.478054E-11	NaN
312	1.000000	0.442731	7.36812e+06	-54239.1	955.819	-29744.4	0.000000	0.000000	6.442913	0.017084	NaN	0.000000	0.001617	0.001651	28.0787	0.055479	0.001969	28.1814	150.932	-164.556	0.039473	0.441389	-0.628729	-0.630071	0.017084	28.1814	-0.629183	-2.098023E+8	-8.142947E-11	NaN
312	1.000000	0.482753	7.36812e+06	-54239.1	955.818	-29744.4	0.000000	0.000000	6.482934	-0.002776	NaN	0.000000	0.001609	0.001643	28.0789	0.068949	0.002084	33.0805	119.33	-168.362	-0.024465	0.481449	-0.588707	-0.590011	-0.002776	33.0805	-0.588644	-5.807185E+7	4.781059E-11	NaN
312	1.000000	0.522765	7.36812e+06	-54239.1	955.818	-29744.4	0.000000	0.000000	6.522949	0.056854	NaN	0.000000	0.001628	0.001650	28.0801	0.072623	0.002056	35.3228	-42.9365	-168.676	0.134618	0.521486	-0.548695	-0.549974	0.056854	35.3228	-0.549902	-1.692757E+7	-3.358654E-9	NaN
312	1.000000	0.562804	7.36812e+06	-54239.1	955.818	-29744.4	0.000000	0.000000	6.562988	0.079555	NaN	0.000000	0.001655	0.001653	28.0799	0.057482	0.001982	29.0068	119.459	-166.192	0.095642	0.561474	-0.508656	-0.509986	0.079555	29.0068	-0.510713	-4.83439e+06	-1.645602E-8	NaN
312	1.000000	0.602818	7.36812e+06	-54239.1	955.819	-29744.4	0.000000	0.000000	6.602998	-0.025801	NaN	0.000000	0.001627	0.001663	28.0802	0.068127	0.001917	35.545	131.625	-164.461	-0.039402	0.601489	-0.468642	-0.469971	-0.025801	35.545	-0.468097	-1.22664e+06	2.103418E-8	NaN
312	1.000000	0.642803	7.36812e+06	-54239.1	955.819	-29744.4	0.000000	0.000000	6.642984	-0.009688	NaN	0.000000	0.001623	0.001673	28.0792	0.069032	0.002119	32.5721	15.6282	-164.195	0.012756	0.641490	-0.428657	-0.429970	-0.009688	32.5721	-0.428434	-338763	2.859894E-8	NaN
312	1.000000	0.682843	7.36812e+06	-54239.1	955.818	-29744.4	0.000000	0.000000	6.683024	-0.000116	NaN	0.000000	0.001612	0.001693	28.0793	0.036662	0.001888	19.4196	-6.298043	-167.487	-0.055728	0.681487	-0.388617	-0.389973	-0.000116	19.4196	-0.388612	-91899.8	1.266018E-9	NaN
312	1.000000	0.722829	7.36812e+06	-54239.1	955.819	-29744.4	0.000000	0.000000	6.723011	0.016601	NaN	0.000000	0.001675	0.001635	28.0791	0.048522	0.001936	25.0646	-62.1109	-167.153	0.114421	0.721575	-0.348631	-0.349885	0.016601	25.0646	-0.349128	-24793.5	-6.695521E-7	NaN
312	1.000000	0.762858	7.36812e+06	-54239.1	955.819	-29744.4	0.000000	0.000000	6.763036	-0.066838	NaN	0.000000	0.001670	0.001655	28.0789	0.123587	0.001871	66.0571	-119.86	-168.34	-0.153780	0.761582	-0.308602	-0.309877	-0.066838	66.0571	-0.307843	-6153.45	1.086193E-5	NaN
312	1.000000	0.802900	7.36812e+06	-54239.1	955.818	-29744.4	0.000000	0.000000	6.803082	0.030545	NaN	0.000000	0.001670	0.001698	28.0799	0.096470	0.001987	48.5463	-121.303	-166.009	-0.023843	0.801561	-0.268560	-0.269899	0.030545	48.5463	-0.269032	-1610	-1.897206E-5	NaN
312	1.000000	0.842907	7.36812e+06	-54239.1	955.818	-29744.4	0.000000	0.000000	6.843092	0.086537	NaN	0.000000	0.001675	0.001682	28.08	0.129884	0.001939	66.9888	70.034	-164.085	0.027565	0.841594	-0.228552	-0.229866	0.086537	66.9888	-0.229521	-393.511	-0.000220	NaN
312	1.000000	0.882914	7.36812e+06	-54239.1	955.818	-29744.4	0.000000	0.000000	6.883092	-0.055254	NaN	0.000000	0.001671	0.001677	28.0801	0.069240	0.001925	35.9752	-169.836	-167.685	-0.094553	0.881581	-0.188546	-0.189879	-0.055254	35.9752	-0.187394	-81.3584	0.000679	NaN
312	1.000000	0.922935	7.36812e+06	-54239.1	955.818	-29744.4	0.000000	0.000000	6.923118	0.032467	NaN	0.000000	0.001649	0.001712	28.0789	0.067487	0.001989	33.9377	-9.547415	-163.295	0.074642	0.921626	-0.148524	-0.149834	0.032467	33.9377	-0.149242	-17.5455	-0.001850	NaN
312	1.000000	0.962975	7.36812e+06	-54239.1	955.818	-29744.4	0.000000	0.000000	6.963155	-0.018670	NaN	0.000000	0.001616	0.001702	28.0789	0.134058	0.002112	63.4873	98.3139	-167.249	0.030384	0.961570	-0.108485	-0.109890	-0.018670	63.4873	-0.108264	-2.761358	0.006761	NaN
312	1.000000	1.003003	7.36812e+06	-54239.1	955.819	-29744.4	0.000000	0.000000	7.003184	0.000343	NaN	0.000000	0.001646	0.001713	28.0786	0.043429	0.001990	21.8246	-48.5185	-170.827	-0.005774	1.001705	-0.068457	-0.069755	0.000343	21.8246	-0.068469	-0.310206	-0.001105	NaN
312	1.000000	1.042975	7.36812e+06	-54239.1	955.819	-29744.4	0.000000	0.000000	7.043153	-0.078901	NaN	0.000000	0.001611	0.001678	28.0785	0.007103	0.002087	3.403209	-100.344	-163.605	-0.073891	1.041681	-0.028485	-0.029779	-0.078901	3.403209	-0.011097	-0.007013	11.2503	NaN
312	2.000000	1.082398	7.36812e+06	-54239.1	955.818	-29744.4	0.000000	0.000000	7.082979	9.709005	NaN	0.000000	0.001596	0.001698	28.0797	10.1369	0.001640	6180.29	9.292427	-177.021	8.938139	1.081585	0.010938	0.010125	9.709005	6180.29	0.009760	0.008916	1088.91	59798.4
312	2.000000	1.092495	7.36812e+06	-54239.1	955.819	-29744.4	0.000000	0.000000	7.093677	24.3352	NaN	0.000000	0.001608	0.001691	28.0798	20.3594	0.001678	12134.1	3.690826	-176.472	25.0627	1.092167	0.021035	0.020707	24.3352	12134.1	0.019531	0.021810	1115.78	75067.8
312	2.000000	1.102456	7.36812e+06	-54239.1	955.818	-29744.4	0.000000	0.000000	7.104623	48.2895	NaN	0.000000	0.001684	0.001663	28.0798	31.7449	0.001776	17874.4	7.096841	176.245	48.0948	1.102113	0.030996	0.030653	48.2895	17874.4	0.028970	0.038636	1249.85	83082
312	2.000000	1.112318	7.36812e+06	-54239.1	955.818	-29744.4	0.000000	0.000000	7.115662	76.9036	NaN	0.000000	0.001632	0.001761	28.0789	41.5952	0.001863	22323.2	8.154879	173.33	73.1583	1.112076	0.040858	0.040616	76.9036	22323.2	0.038274	0.059645	1289.36	83511
312	2.000000	1.122391	7.36812e+06	-54239.1	955.819	-29744.4	0.000000	0.000000	7.127218	112.942	NaN	0.000000	0.001643	0.001687	28.0788	50.5602	0.001878	26922	3.436792	176.513	111.548	1.122175	0.050931	0.050715	112.942	26922	0.047785	0.085690	1318.02	84026.2
312	2.000000	1.132343	7.36812e+06	-54239.1	955.82	-29744.4	0.000000	0.000000	7.138883	154.587	NaN	0.000000	0.001641	0.001651	28.0787	60.1069	0.001869	32162.6	8.913724	169.909	152.802	1.132122	0.060883	0.060662	154.587	32162.6	0.057279	0.116231	1330	86191.3
312	2.000000	1.142332	7.36812e+06	-54239.1	955.82	-29744.4	0.000000	0.000000	7.151185	210.827	NaN	0.000000	0.001603	0.001718	28.0786	68.3667	0.001760	38848.5	5.592776	172.281	208.778	1.142065	0.070872	0.070605	210.827	38848.5	0.066802	0.151323	1393.22	91242
312	2.000000	1.152371	7.36812e+06	-54239.1	955.82	-29744.4	0.000000	0.000000	7.163549	267.358	NaN	0.000000	0.001609	0.001652	28.0798	79.1532	0.001820	43502.7	5.461674	170.647	266.256	1.152138	0.080911	0.080678	267.358	43502.7	0.076301	0.190662	1402.26	91024.3
312	2.000000	1.162253	7.36812e+06	-54239.1	955.82	-29744.4	0.000000	0.000000	7.176274	336.47	NaN	0.000000	0.001697	0.001675	28.0801	87.9599	0.001739	50572	0.609220	175.259	330.717	1.161981	0.090793	0.090521	336.47	50572	0.085803	0.234246	1436.4	95465.6
312	2.000000	1.172330	7.36813e+06	-54239.1	955.819	-29744.4	0.000000	0.000000	7.189039	401.808	NaN	0.000000	0.001667	0.001682	28.0801	98.6404	0.001799	54823.5	3.335875	171.566	399.535	1.172047	0.100870	0.100587	401.808	54823.5	0.095373	0.282359	1423.04	94262.6
312	2.000000	1.180837	7.36813e+06	-54239.1	955.819	-29744.4	0.000000	0.000000	7.200185	465.981	NaN	0.000000	0.001707	0.001701	28.079	105.463	0.001840	57326.8	4.084359	-9.116963	463.342	1.180470	0.109377	0.109010	465.981	57326.8	0.103280	0.325263	1432.63	91836.1