Folder: unikorn_login/remote_trans/data/nanoindenter/0828-1/data/Data_2025-08-06,11h17m57s (part 13)

File: 2025-07-22_16-23-58_1_24.txt
2025-07-22, 16:23:58, 1
Index	Phase	Displacement	Time	Pos X	Pos Y	Pos Z	Rot A	Rot B	Piezo Z	Force A	Force B	Gripper	Voltage A	Voltage B	Temperature	Amplitude force	Amplitude pos	Stiffness	Phase shift	Phase excitation	Force A raw	Displacement raw	HMax	HMax raw	Real Force	Real Stiffness	Contact Depth	Area	Hardness	Reduced Mod.
[#]	[#]	[um]	[s]	[um]	[um]	[um]	[m°]	[m°]	[um]	[uN]	[uN]	[V]	[V]	[V]	[°C]	[uN]	[um]	[N/m]	[°]	[°]	[uN]	[um]	[um]	[um]	[uN]	[N/m]	[um]	[um^2]	[MPa]	[MPa]
24	1.000000	0.002304	7.36527e+06	-39839.1	955.818	-29793.1	0.000000	0.000000	6.002767	0.081466	NaN	0.000000	0.001611	0.001717	28.0834	0.057293	0.000904	63.3846	-95.6849	-167.538	0.081332	0.001130	-1.081602	-1.082776	0.081466	63.3846	-1.082566	-2.924035E+14	-2.786072E-16	NaN
24	1.000000	0.042327	7.36527e+06	-39839.1	955.818	-29793.1	0.000000	0.000000	6.042786	-0.000830	NaN	0.000000	0.001505	0.001684	28.081	0.072811	0.002113	34.462	138.103	-169.053	0.099108	0.041007	-1.041580	-1.042900	-0.000830	34.462	-1.041562	-8.221832E+13	1.008932E-17	NaN
24	1.000000	0.082303	7.36527e+06	-39839.1	955.818	-29793.1	0.000000	0.000000	6.082763	0.000241	NaN	0.000000	0.001482	0.001713	28.0845	0.069966	0.001993	35.1117	-162.398	-164.565	-0.065624	0.081015	-1.001603	-1.002891	0.000241	35.1117	-1.001608	-2.384630E+13	-1.009638E-17	NaN
24	1.000000	0.122308	7.36527e+06	-39839.1	955.818	-29793.1	0.000000	0.000000	6.122769	0.023979	NaN	0.000000	0.001492	0.001724	28.0829	0.004789	0.002056	2.329770	-62.4028	-167.257	-0.026570	0.121050	-0.961598	-0.962856	0.023979	2.329770	-0.969317	-8.759171E+12	-2.737555E-15	NaN
24	1.000000	0.162348	7.36527e+06	-39839.1	955.818	-29793.1	0.000000	0.000000	6.162805	-0.048855	NaN	0.000000	0.001513	0.001734	28.0844	0.056977	0.002103	27.0961	144.228	-165.394	-0.044584	0.161043	-0.921559	-0.922863	-0.048855	27.0961	-0.920207	-1.905440E+12	2.563954E-14	NaN
24	1.000000	0.202362	7.36527e+06	-39839.1	955.82	-29793.1	0.000000	0.000000	6.202819	-0.056671	NaN	0.000000	0.001573	0.001684	28.0811	0.048227	0.001920	25.1211	-84.4737	-165.443	-0.082900	0.201067	-0.881545	-0.882840	-0.056671	25.1211	-0.879853	-5.428969E+11	1.043858E-13	NaN
24	1.000000	0.242377	7.36527e+06	-39839.1	955.819	-29793.1	0.000000	0.000000	6.242835	-0.042772	NaN	0.000000	0.001602	0.001676	28.082	0.052272	0.001957	26.7068	-126.985	-166.916	0.029802	0.241062	-0.841530	-0.842844	-0.042772	26.7068	-0.840329	-1.583964E+11	2.700302E-13	NaN
24	1.000000	0.282393	7.36527e+06	-39839.1	955.818	-29793.1	0.000000	0.000000	6.282850	-0.052334	NaN	0.000000	0.001532	0.001645	28.0824	0.075371	0.001976	38.1518	117.868	-170.325	-0.077854	0.281076	-0.801514	-0.802830	-0.052334	38.1518	-0.800485	-4.565019E+10	1.146418E-12	NaN
24	1.000000	0.322432	7.36527e+06	-39839.1	955.818	-29793	0.000000	0.000000	6.322891	-0.027785	NaN	0.000000	0.001524	0.001706	28.0836	0.093549	0.001936	48.3099	-127.622	-167.591	-0.021038	0.321133	-0.761474	-0.762774	-0.027785	48.3099	-0.761043	-1.328886E+10	2.090837E-12	NaN
24	1.000000	0.362398	7.36528e+06	-39839.1	955.819	-29793	0.000000	0.000000	6.362857	-0.014036	NaN	0.000000	0.001575	0.001643	28.0841	0.054187	0.001966	27.5684	-84.7286	-166.604	-0.021003	0.361118	-0.721509	-0.722788	-0.014036	27.5684	-0.721127	-3.800516E+9	3.693203E-12	NaN
24	1.000000	0.402432	7.36528e+06	-39839.1	955.818	-29793.1	0.000000	0.000000	6.402891	-0.027631	NaN	0.000000	0.001560	0.001651	28.0847	0.030932	0.002086	14.8267	164.559	-166.913	-0.002034	0.401132	-0.681474	-0.682774	-0.027631	14.8267	-0.680077	-1.045327E+9	2.643283E-11	NaN
24	1.000000	0.442454	7.36528e+06	-39839.1	955.818	-29793	0.000000	0.000000	6.442913	-0.014432	NaN	0.000000	0.001586	0.001671	28.0844	0.048904	0.001965	24.8917	42.0016	-164.541	-0.035000	0.441150	-0.641453	-0.642756	-0.014432	24.8917	-0.641018	-3.049671E+8	4.732197E-11	NaN
24	1.000000	0.482477	7.36528e+06	-39839.1	955.817	-29793	0.000000	0.000000	6.482935	-0.044379	NaN	0.000000	0.001574	0.001702	28.0831	0.112909	0.001938	58.2739	-75.7939	-168.097	0.036057	0.481188	-0.601430	-0.602718	-0.044379	58.2739	-0.600859	-8.556252E+7	5.186728E-10	NaN
24	1.000000	0.522479	7.36528e+06	-39839.1	955.819	-29793	0.000000	0.000000	6.522938	-0.020881	NaN	0.000000	0.001494	0.001711	28.082	0.037667	0.001939	19.4234	103.511	-166.135	-0.030073	0.521188	-0.561428	-0.562718	-0.020881	19.4234	-0.560622	-2.382185E+7	8.765390E-10	NaN
24	1.000000	0.562522	7.36528e+06	-39839.1	955.819	-29793	0.000000	0.000000	6.562980	-0.059577	NaN	0.000000	0.001528	0.001674	28.0832	0.094472	0.001926	49.0454	-128.739	-166.21	-0.107077	0.561218	-0.521384	-0.522689	-0.059577	49.0454	-0.520473	-6.60962e+06	9.013655E-9	NaN
24	1.000000	0.602522	7.36528e+06	-39839.1	955.818	-29793	0.000000	0.000000	6.602983	0.015078	NaN	0.000000	0.001630	0.001672	28.0823	0.023862	0.001953	12.2181	-13.8507	-167.424	-0.104122	0.601192	-0.481384	-0.482714	0.015078	12.2181	-0.482310	-1.94024e+06	-7.771312E-9	NaN
24	1.000000	0.642581	7.36528e+06	-39839.1	955.818	-29793	0.000000	0.000000	6.643036	-0.099083	NaN	0.000000	0.001540	0.001683	28.0854	0.124378	0.002007	61.9621	-121.856	-167.465	-0.042953	0.641275	-0.441326	-0.442632	-0.099083	61.9621	-0.440126	-495620	1.999183E-7	NaN
24	1.000000	0.682582	7.36528e+06	-39839.1	955.819	-29793	0.000000	0.000000	6.683039	-0.054007	NaN	0.000000	0.001530	0.001680	28.0843	0.062674	0.002129	29.4441	120.43	-167.288	-0.074779	0.681227	-0.401325	-0.402679	-0.054007	29.4441	-0.399949	-133435	4.047410E-7	NaN
24	1.000000	0.722587	7.36528e+06	-39839.1	955.818	-29793	0.000000	0.000000	6.723046	-0.007284	NaN	0.000000	0.001545	0.001701	28.0852	0.028374	0.002030	13.977	30.156	-167.85	0.006304	0.721229	-0.361319	-0.362677	-0.007284	13.977	-0.360929	-36750.8	1.981997E-7	NaN
24	1.000000	0.762589	7.36528e+06	-39839.1	955.818	-29793	0.000000	0.000000	6.763047	-0.026767	NaN	0.000000	0.001526	0.001670	28.0826	0.061897	0.001996	31.0105	-121.723	-165.476	-0.060186	0.761272	-0.321318	-0.322635	-0.026767	31.0105	-0.320670	-9517.02	2.812514E-6	NaN
24	1.000000	0.802620	7.36528e+06	-39839.1	955.818	-29793	0.000000	0.000000	6.803080	0.022563	NaN	0.000000	0.001530	0.001701	28.0845	0.153008	0.001930	79.2588	-60.2373	-164.331	0.005974	0.801329	-0.281287	-0.282578	0.022563	79.2588	-0.281500	-2486.52	-9.074291E-6	NaN
24	1.000000	0.842632	7.36528e+06	-39839.1	955.818	-29793	0.000000	0.000000	6.843091	-0.002458	NaN	0.000000	0.001552	0.001700	28.0829	0.080322	0.002137	37.5945	-16.4996	-167.271	0.047432	0.841341	-0.241275	-0.242565	-0.002458	37.5945	-0.241226	-600.739	4.092407E-6	NaN
24	1.000000	0.882637	7.36528e+06	-39839.1	955.818	-29793	0.000000	0.000000	6.883100	0.072504	NaN	0.000000	0.001583	0.001666	28.0859	0.043725	0.001933	22.6155	75.2257	-166.156	0.080913	0.881375	-0.201269	-0.202532	0.072504	22.6155	-0.203674	-151.324	-0.000479	NaN
24	1.000000	0.922637	7.36528e+06	-39839.1	955.819	-29793	0.000000	0.000000	6.923094	-0.078885	NaN	0.000000	0.001556	0.001696	28.0844	0.094602	0.001977	47.847	13.8107	-165.678	-0.103798	0.921363	-0.161269	-0.162544	-0.078885	47.847	-0.160033	-27.4517	0.002874	NaN
24	1.000000	0.962672	7.36528e+06	-39839.1	955.819	-29793	0.000000	0.000000	6.963130	-0.030093	NaN	0.000000	0.001555	0.001644	28.0865	0.046000	0.001966	23.4022	105.584	-167.264	-0.076660	0.961403	-0.121235	-0.122504	-0.030093	23.4022	-0.120270	-4.892539	0.006151	NaN
24	1.000000	1.002679	7.36528e+06	-39839.1	955.818	-29793	0.000000	0.000000	7.003136	-0.068464	NaN	0.000000	0.001513	0.001664	28.0848	0.091966	0.002021	45.5153	89.7092	-167.687	-0.085485	1.001403	-0.081227	-0.082504	-0.068464	45.5153	-0.080099	-0.622534	0.109976	NaN
24	1.000000	1.042723	7.36528e+06	-39839.1	955.817	-29793	0.000000	0.000000	7.043185	0.068953	NaN	0.000000	0.001545	0.001671	28.0842	0.114642	0.002009	57.0665	93.9397	-164.603	-0.059799	1.041365	-0.041184	-0.042542	0.068953	57.0665	-0.042090	-0.052362	-1.316864	NaN
24	1.000000	1.082691	7.36528e+06	-39839.1	955.818	-29793	0.000000	0.000000	7.083203	1.258953	NaN	0.000000	0.001487	0.001715	28.084	1.930464	0.001923	1003.99	4.403715	-168.2	0.517039	1.081441	-0.001215	-0.002465	1.258953	1003.99	-0.002156	-0.001547	-813.8	NaN
24	2.000000	1.096250	7.36528e+06	-39839.1	955.818	-29793	0.000000	0.000000	7.097626	22.2803	NaN	0.000000	0.001532	0.001673	28.085	13.9343	0.001937	7193.37	13.9391	-174.159	22.4988	1.095909	0.012344	0.012003	22.2803	7193.37	0.010021	0.009205	2420.52	68501.3
24	2.000000	1.106302	7.36528e+06	-39839.1	955.818	-29793	0.000000	0.000000	7.107885	27.3295	NaN	0.000000	0.001573	0.001659	28.0858	19.8159	0.002122	9338.64	14.5235	179.46	29.9688	1.105966	0.022396	0.022060	27.3295	9338.64	0.020201	0.022859	1195.58	56432.6
24	2.000000	1.116242	7.36528e+06	-39839.1	955.819	-29793	0.000000	0.000000	7.118700	48.634	NaN	0.000000	0.001550	0.001673	28.0869	31.0923	0.001799	17284.4	10.853	176.87	52.3997	1.115958	0.032335	0.032052	48.634	17284.4	0.030225	0.041211	1180.12	77789.7
24	2.000000	1.126205	7.36528e+06	-39839.1	955.819	-29793	0.000000	0.000000	7.129961	80.2272	NaN	0.000000	0.001585	0.001740	28.085	40.5365	0.001902	21309	6.885969	175.887	80.2796	1.125912	0.042298	0.042006	80.2272	21309	0.039475	0.062678	1279.99	77764.1
24	2.000000	1.136122	7.36528e+06	-39839.1	955.819	-29793	0.000000	0.000000	7.141236	113.27	NaN	0.000000	0.001558	0.001741	28.0863	48.5315	0.001819	26684.9	7.058973	173.642	110.522	1.135742	0.052215	0.051836	113.27	26684.9	0.049032	0.089444	1266.38	81519.8
24	2.000000	1.146118	7.36528e+06	-39839.1	955.819	-29793	0.000000	0.000000	7.153142	159.759	NaN	0.000000	0.001582	0.001787	28.0835	58.1993	0.001724	33757.1	3.624509	174.72	156.938	1.145793	0.062211	0.061887	159.759	33757.1	0.058662	0.121053	1319.74	88644.3
24	2.000000	1.156159	7.36528e+06	-39839.1	955.819	-29793	0.000000	0.000000	7.165191	208.612	NaN	0.000000	0.001659	0.001710	28.085	69.0232	0.001776	38854.5	4.683999	172.394	210.768	1.155838	0.072252	0.071932	208.612	38854.5	0.068225	0.156944	1329.22	89607.1
24	2.000000	1.166063	7.36528e+06	-39839.1	955.82	-29793	0.000000	0.000000	7.177969	278.558	NaN	0.000000	0.001610	0.001696	28.0828	79.1997	0.001677	47231	6.485184	169.762	273.762	1.165882	0.082156	0.081975	278.558	47231	0.077733	0.196958	1414.3	97232.8
24	2.000000	1.176125	7.36528e+06	-39839.1	955.819	-29793	0.000000	0.000000	7.191360	359.54	NaN	0.000000	0.001594	0.001708	28.0868	93.0333	0.001763	52781.6	11.243	164.6	357.544	1.175986	0.092219	0.092080	359.54	52781.6	0.087110	0.240570	1494.54	98318.5
24	2.000000	1.186030	7.36528e+06	-39839.1	955.818	-29793	0.000000	0.000000	7.205461	461.659	NaN	0.000000	0.001515	0.001670	28.086	101.13	0.001627	62160.4	6.364124	168.258	458.321	1.185871	0.102124	0.101965	461.659	62160.4	0.096554	0.288583	1599.74	105719

File: 2025-07-22_16-23-58_1_25.txt
2025-07-22, 16:23:58, 1
Index	Phase	Displacement	Time	Pos X	Pos Y	Pos Z	Rot A	Rot B	Piezo Z	Force A	Force B	Gripper	Voltage A	Voltage B	Temperature	Amplitude force	Amplitude pos	Stiffness	Phase shift	Phase excitation	Force A raw	Displacement raw	HMax	HMax raw	Real Force	Real Stiffness	Contact Depth	Area	Hardness	Reduced Mod.
[#]	[#]	[um]	[s]	[um]	[um]	[um]	[m°]	[m°]	[um]	[uN]	[uN]	[V]	[V]	[V]	[°C]	[uN]	[um]	[N/m]	[°]	[°]	[uN]	[um]	[um]	[um]	[uN]	[N/m]	[um]	[um^2]	[MPa]	[MPa]
25	1.000000	0.002343	7.36528e+06	-39889.1	955.819	-29792.7	0.000000	0.000000	6.002792	0.015734	NaN	0.000000	0.001609	0.001678	28.0866	0.141542	0.001035	136.737	61.8149	-172.548	-0.036907	0.001120	-1.220266	-1.221489	0.015734	136.737	-1.220352	-2.056943E+16	-7.649119E-19	NaN
25	1.000000	0.046285	7.36528e+06	-39889.1	955.819	-29792.7	0.000000	0.000000	6.046732	-0.029366	NaN	0.000000	0.001592	0.001694	28.1119	0.087626	0.001936	45.2637	122.18	-162.512	-0.050513	0.044959	-1.176324	-1.177650	-0.029366	45.2637	-1.175838	-5.213250E+15	5.633001E-18	NaN
25	1.000000	0.090308	7.36528e+06	-39889.1	955.819	-29792.7	0.000000	0.000000	6.090758	0.038890	NaN	0.000000	0.001567	0.001653	28.0852	0.108506	0.002068	52.4721	-56.4487	-164.832	0.026017	0.088992	-1.132301	-1.133617	0.038890	52.4721	-1.132857	-1.383383E+15	-2.811193E-17	NaN
25	1.000000	0.134332	7.36528e+06	-39889.1	955.819	-29792.7	0.000000	0.000000	6.134783	0.057777	NaN	0.000000	0.001529	0.001639	28.1136	0.049743	0.001982	25.0938	91.0522	-166.621	0.005082	0.133042	-1.088277	-1.089567	0.057777	25.0938	-1.090004	-3.680108E+14	-1.569979E-16	NaN
25	1.000000	0.178384	7.36528e+06	-39889.1	955.819	-29792.7	0.000000	0.000000	6.178830	-0.055986	NaN	0.000000	0.001556	0.001670	28.0869	0.009158	0.002064	4.436766	46.9949	-166.493	-0.001362	0.177047	-1.044226	-1.045563	-0.055986	4.436766	-1.034762	-6.660754E+13	8.405391E-16	NaN
25	1.000000	0.222370	7.36528e+06	-39889.1	955.818	-29792.7	0.000000	0.000000	6.222816	-0.064787	NaN	0.000000	0.001528	0.001704	28.1126	0.028428	0.001897	14.9884	-106.309	-167.82	-0.078024	0.221047	-1.000239	-1.001562	-0.064787	14.9884	-0.996997	-2.066976E+13	3.134381E-15	NaN
25	1.000000	0.266376	7.36528e+06	-39889.1	955.819	-29792.7	0.000000	0.000000	6.266825	0.023682	NaN	0.000000	0.001553	0.001667	28.0849	0.119888	0.002065	58.0624	-114.816	-164.914	0.043984	0.265051	-0.956234	-0.957558	0.023682	58.0624	-0.956539	-5.891306E+12	-4.019863E-15	NaN
25	1.000000	0.310404	7.36528e+06	-39889.1	955.819	-29792.7	0.000000	0.000000	6.310854	0.038978	NaN	0.000000	0.001542	0.001678	28.1115	0.024131	0.002007	12.0204	-139.433	-163.746	0.118727	0.309116	-0.912205	-0.913493	0.038978	12.0204	-0.914637	-1.602474E+12	-2.432387E-14	NaN
25	1.000000	0.354434	7.36528e+06	-39889.1	955.818	-29792.7	0.000000	0.000000	6.354884	0.015374	NaN	0.000000	0.001542	0.001689	28.087	0.080361	0.001992	40.3446	-91.3365	-167.174	0.108714	0.353119	-0.868175	-0.869490	0.015374	40.3446	-0.868461	-3.807294E+11	-4.038148E-14	NaN
25	1.000000	0.398436	7.36528e+06	-39889.1	955.818	-29792.7	0.000000	0.000000	6.398885	0.005840	NaN	0.000000	0.001581	0.001673	28.1126	0.029570	0.002093	14.1262	54.0204	-167.759	0.029405	0.397114	-0.824173	-0.825495	0.005840	14.1262	-0.824483	-9.660422E+10	-6.045032E-14	NaN
25	1.000000	0.442465	7.36529e+06	-39889.1	955.818	-29792.7	0.000000	0.000000	6.442911	-0.076867	NaN	0.000000	0.001585	0.001696	28.0855	0.124269	0.002023	61.4161	123.461	-163.019	-0.008137	0.441162	-0.780144	-0.781447	-0.076867	61.4161	-0.779205	-2.346558E+10	3.275729E-12	NaN
25	1.000000	0.486477	7.36529e+06	-39889.1	955.818	-29792.7	0.000000	0.000000	6.486926	-0.001455	NaN	0.000000	0.001583	0.001689	28.1105	0.096058	0.002028	47.3579	52.2626	-165.86	0.075657	0.485162	-0.736132	-0.737447	-0.001455	47.3579	-0.736109	-6.082049E+9	2.391922E-13	NaN
25	1.000000	0.530529	7.36529e+06	-39889.1	955.819	-29792.7	0.000000	0.000000	6.530979	0.024057	NaN	0.000000	0.001595	0.001657	28.086	0.054491	0.001917	28.4325	-85.0796	-167.118	0.067516	0.529221	-0.692080	-0.693389	0.024057	28.4325	-0.692715	-1.556011E+9	-1.546041E-11	NaN
25	1.000000	0.574547	7.36529e+06	-39889.1	955.82	-29792.7	0.000000	0.000000	6.574998	0.061272	NaN	0.000000	0.001560	0.001700	28.109	0.110267	0.001948	56.5984	125.986	-169.391	0.009199	0.573201	-0.648062	-0.649409	0.061272	56.5984	-0.648874	-3.908443E+8	-1.567674E-10	NaN
25	1.000000	0.618540	7.36529e+06	-39889.1	955.819	-29792.7	0.000000	0.000000	6.618988	-0.025205	NaN	0.000000	0.001613	0.001672	28.0886	0.061235	0.001935	31.6523	-95.4639	-167.043	0.041467	0.617229	-0.604069	-0.605380	-0.025205	31.6523	-0.603472	-9.295325E+7	2.711596E-10	NaN
25	1.000000	0.662546	7.36529e+06	-39889.1	955.818	-29792.7	0.000000	0.000000	6.662993	-0.024161	NaN	0.000000	0.001562	0.001700	28.1095	0.105966	0.002070	51.188	-86.3862	-166.396	-0.020223	0.661288	-0.560063	-0.561322	-0.024161	51.188	-0.559709	-2.313963E+7	1.044150E-9	NaN
25	1.000000	0.706613	7.36529e+06	-39889.1	955.819	-29792.7	0.000000	0.000000	6.707059	-0.053967	NaN	0.000000	0.001598	0.001654	28.0888	0.073456	0.001867	39.3543	118.694	-165.372	-0.060060	0.705276	-0.515996	-0.517333	-0.053967	39.3543	-0.514968	-5.54094e+06	9.739702E-9	NaN
25	1.000000	0.750584	7.36529e+06	-39889.1	955.818	-29792.7	0.000000	0.000000	6.751031	-0.042404	NaN	0.000000	0.001581	0.001688	28.108	0.039407	0.002009	19.614	142.514	-172.22	-0.022099	0.749325	-0.472025	-0.473285	-0.042404	19.614	-0.470404	-1.32151e+06	3.208782E-8	NaN
25	1.000000	0.794631	7.36529e+06	-39889.1	955.819	-29792.7	0.000000	0.000000	6.795081	0.016017	NaN	0.000000	0.001563	0.001614	28.0869	0.051006	0.002070	24.6405	-137.973	-167.771	0.042252	0.793299	-0.427978	-0.429310	0.016017	24.6405	-0.428465	-339115	-4.723129E-8	NaN
25	1.000000	0.838640	7.36529e+06	-39889.1	955.819	-29792.7	0.000000	0.000000	6.839090	0.022163	NaN	0.000000	0.001570	0.001616	28.1075	0.050443	0.002035	24.7921	-161.357	-166.67	0.047765	0.837326	-0.383969	-0.385283	0.022163	24.7921	-0.384639	-80615.2	-2.749177E-7	NaN
25	1.000000	0.882644	7.36529e+06	-39889.1	955.819	-29792.7	0.000000	0.000000	6.883095	0.062485	NaN	0.000000	0.001566	0.001639	28.09	0.086472	0.001880	45.9923	28.1724	-164.979	0.104902	0.881326	-0.339966	-0.341283	0.062485	45.9923	-0.340985	-18875.6	-3.310324E-6	NaN
25	1.000000	0.926679	7.36529e+06	-39889.1	955.818	-29792.7	0.000000	0.000000	6.927128	0.010765	NaN	0.000000	0.001572	0.001608	28.108	0.025053	0.001960	12.78	-82.622	-166.905	-0.011643	0.925356	-0.295930	-0.297253	0.010765	12.78	-0.296562	-4182.2	-2.574017E-6	NaN
25	1.000000	0.970698	7.36529e+06	-39889.1	955.819	-29792.7	0.000000	0.000000	6.971143	-0.077849	NaN	0.000000	0.001507	0.001643	28.0874	0.108981	0.001957	55.6744	129.274	-167.35	-0.031112	0.969383	-0.251911	-0.253226	-0.077849	55.6744	-0.250863	-847.815	9.182328E-5	NaN
25	1.000000	1.014729	7.36529e+06	-39889.1	955.82	-29792.7	0.000000	0.000000	7.015179	0.034384	NaN	0.000000	0.001494	0.001631	28.1073	0.050490	0.002032	24.8534	3.583811	-168.157	0.020885	1.013360	-0.207881	-0.209250	0.034384	24.8534	-0.208918	-184.199	-0.000187	NaN
25	1.000000	1.058759	7.36529e+06	-39889.1	955.819	-29792.7	0.000000	0.000000	7.059207	0.001476	NaN	0.000000	0.001469	0.001604	28.0873	0.060366	0.001948	30.9864	-9.505509	-166.68	0.052769	1.057437	-0.163851	-0.165172	0.001476	30.9864	-0.163886	-32.1161	-4.596238E-5	NaN
25	1.000000	1.102731	7.36529e+06	-39889.1	955.819	-29792.7	0.000000	0.000000	7.103181	0.018528	NaN	0.000000	0.001512	0.001596	28.1068	0.088456	0.001957	45.2083	-107.546	-165.036	0.012406	1.101441	-0.119878	-0.121168	0.018528	45.2083	-0.120185	-4.873256	-0.003802	NaN
25	1.000000	1.146770	7.36529e+06	-39889.1	955.82	-29792.7	0.000000	0.000000	7.147221	0.059303	NaN	0.000000	0.001516	0.001611	28.0896	0.072488	0.002015	35.967	41.494	-163.027	0.107404	1.145428	-0.075839	-0.077182	0.059303	35.967	-0.077076	-0.522200	-0.113564	NaN
25	1.000000	1.190764	7.36529e+06	-39889.1	955.819	-29792.7	0.000000	0.000000	7.191213	0.015518	NaN	0.000000	0.001573	0.001615	28.1082	0.048791	0.002032	24.0124	-120.439	-166.828	0.043816	1.189500	-0.031845	-0.033110	0.015518	24.0124	-0.032330	-0.026782	-0.579426	NaN
25	2.000000	1.233366	7.36529e+06	-39889.1	955.819	-29792.7	0.000000	0.000000	7.234235	10.2315	NaN	0.000000	0.001578	0.001580	28.0894	9.604977	0.001662	5778.42	9.476851	-175.141	10.1373	1.232868	0.010756	0.010259	10.2315	5778.42	0.009428	0.008553	1196.23	57084.9
25	2.000000	1.244266	7.36529e+06	-39889.1	955.818	-29792.7	0.000000	0.000000	7.245884	28.4806	NaN	0.000000	0.001575	0.001613	28.1071	21.1781	0.001854	11421.7	7.578698	-179.252	28.956	1.243993	0.021656	0.021384	28.4806	11421.7	0.019786	0.022207	1282.49	70025.6
25	2.000000	1.255241	7.36529e+06	-39889.1	955.82	-29792.7	0.000000	0.000000	7.258210	61.3239	NaN	0.000000	0.001585	0.001635	28.089	32.0856	0.001821	17616.7	1.505183	-177.586	60.6804	1.254866	0.032632	0.032257	61.3239	17616.7	0.030021	0.040787	1503.5	79695.5
25	2.000000	1.266172	7.36529e+06	-39889.1	955.82	-29792.7	0.000000	0.000000	7.270524	94.9948	NaN	0.000000	0.001563	0.001618	28.1054	42.1345	0.001769	23824.7	4.197459	176.57	91.7647	1.265908	0.043563	0.043298	94.9948	23824.7	0.040572	0.065516	1449.96	85040.9
25	2.000000	1.277193	7.36529e+06	-39889.1	955.82	-29792.7	0.000000	0.000000	7.283204	135.335	NaN	0.000000	0.001579	0.001570	28.0903	53.7762	0.001859	28934.9	4.654156	174.28	134.042	1.277027	0.054584	0.054418	135.335	28934.9	0.051076	0.095769	1413.14	85424.5
25	2.000000	1.288153	7.36529e+06	-39889.1	955.819	-29792.7	0.000000	0.000000	7.296965	203.514	NaN	0.000000	0.001569	0.001613	28.106	63.3496	0.001762	35952.2	3.381413	174.395	202.729	1.287897	0.065543	0.065288	203.514	35952.2	0.061298	0.130504	1559.45	90925.9
25	2.000000	1.299124	7.36529e+06	-39889.1	955.819	-29792.7	0.000000	0.000000	7.310545	266.99	NaN	0.000000	0.001530	0.001605	28.0911	72.5976	0.001747	41555	2.845858	174.067	264.466	1.298823	0.076515	0.076214	266.99	41555	0.071696	0.171057	1560.82	91796.4
25	2.000000	1.310195	7.36529e+06	-39889.1	955.82	-29792.7	0.000000	0.000000	7.324508	337.362	NaN	0.000000	0.001574	0.001632	28.1048	84.0521	0.001766	47590.5	6.363047	169.744	338.746	1.309815	0.087586	0.087206	337.362	47590.5	0.082269	0.217548	1550.74	93221.4
25	2.000000	1.321164	7.36529e+06	-39889.1	955.819	-29792.7	0.000000	0.000000	7.339030	423.84	NaN	0.000000	0.001570	0.001579	28.0913	96.1531	0.001943	49480.4	7.398616	168.229	423.53	1.320830	0.098554	0.098221	423.84	49480.4	0.092130	0.265585	1595.88	87721.3
25	2.000000	1.331042	7.36529e+06	-39889.1	955.819	-29792.7	0.000000	0.000000	7.352291	506.169	NaN	0.000000	0.001564	0.001574	28.09	101.576	0.001750	58039.8	0.752872	174.283	499.568	1.330693	0.108433	0.108084	506.169	58039.8	0.101892	0.317525	1594.1	94104.5