Folder: unikorn_login/remote_trans/data/nanoindenter/0828-1/data/Data_2025-08-06,11h17m57s (part 143)

File: 2025-07-22_16-23-58_1_303.txt
2025-07-22, 16:23:58, 1
Index	Phase	Displacement	Time	Pos X	Pos Y	Pos Z	Rot A	Rot B	Piezo Z	Force A	Force B	Gripper	Voltage A	Voltage B	Temperature	Amplitude force	Amplitude pos	Stiffness	Phase shift	Phase excitation	Force A raw	Displacement raw	HMax	HMax raw	Real Force	Real Stiffness	Contact Depth	Area	Hardness	Reduced Mod.
[#]	[#]	[um]	[s]	[um]	[um]	[um]	[m°]	[m°]	[um]	[uN]	[uN]	[V]	[V]	[V]	[°C]	[uN]	[um]	[N/m]	[°]	[°]	[uN]	[um]	[um]	[um]	[uN]	[N/m]	[um]	[um^2]	[MPa]	[MPa]
303	1.000000	0.002705	7.36803e+06	-53789.1	955.818	-29745.6	0.000000	0.000000	6.002819	-0.008619	NaN	0.000000	0.001657	0.001672	28.0814	0.067149	0.000933	71.9961	-113.363	-168.05	0.006151	0.001443	-1.072786	-1.074049	-0.008619	71.9961	-1.072696	-2.154836E+14	3.999682E-17	NaN
303	1.000000	0.042655	7.36803e+06	-53789.1	955.818	-29745.6	0.000000	0.000000	6.042767	-0.060693	NaN	0.000000	0.001676	0.001702	28.0811	0.082448	0.002079	39.6634	128.811	-167.1	-0.038746	0.041344	-1.032836	-1.034147	-0.060693	39.6634	-1.031689	-6.056091E+13	1.002186E-15	NaN
303	1.000000	0.082635	7.36803e+06	-53789.1	955.818	-29745.6	0.000000	0.000000	6.082748	-0.019600	NaN	0.000000	0.001651	0.001682	28.0801	0.040237	0.002030	19.8215	-97.408	-167.679	0.046254	0.081348	-0.992857	-0.994143	-0.019600	19.8215	-0.992115	-1.776639E+13	1.103222E-15	NaN
303	1.000000	0.122650	7.36803e+06	-53789.1	955.818	-29745.6	0.000000	0.000000	6.122761	-0.064815	NaN	0.000000	0.001677	0.001677	28.0805	0.043571	0.001997	21.8222	58.2577	-167.073	-0.031009	0.121349	-0.952842	-0.954142	-0.064815	21.8222	-0.950615	-4.901361E+12	1.322379E-14	NaN
303	1.000000	0.162652	7.36803e+06	-53789.1	955.819	-29745.6	0.000000	0.000000	6.162765	-0.021942	NaN	0.000000	0.001735	0.001651	28.08	0.065576	0.002008	32.661	-34.1862	-167.992	0.031158	0.161346	-0.912840	-0.914146	-0.021942	32.661	-0.912336	-1.491820E+12	1.470835E-14	NaN
303	1.000000	0.202667	7.36803e+06	-53789.1	955.818	-29745.6	0.000000	0.000000	6.202779	-0.048583	NaN	0.000000	0.001721	0.001711	28.0798	0.064127	0.002071	30.9701	-14.6758	-163.225	0.057920	0.201417	-0.872825	-0.874075	-0.048583	30.9701	-0.871648	-4.204808E+11	1.155409E-13	NaN
303	1.000000	0.242718	7.36803e+06	-53789.1	955.818	-29745.6	0.000000	0.000000	6.242831	-0.031895	NaN	0.000000	0.001680	0.001649	28.0811	0.072783	0.001918	37.946	57.1483	-165.606	0.065335	0.241339	-0.832774	-0.834152	-0.031895	37.946	-0.832143	-1.226968E+11	2.599472E-13	NaN
303	1.000000	0.282716	7.36803e+06	-53789.1	955.819	-29745.6	0.000000	0.000000	6.282829	-0.021579	NaN	0.000000	0.001638	0.001641	28.0812	0.100993	0.002038	49.5634	-67.3257	-166.546	-0.082326	0.281462	-0.792776	-0.794030	-0.021579	49.5634	-0.792449	-3.550952E+10	6.076918E-13	NaN
303	1.000000	0.322739	7.36803e+06	-53789.1	955.819	-29745.6	0.000000	0.000000	6.322850	-0.093095	NaN	0.000000	0.001638	0.001611	28.0814	0.082699	0.002100	39.3778	-155.136	-165.066	-0.121982	0.321495	-0.752752	-0.753997	-0.093095	39.3778	-0.750979	-9.694997E+9	9.602418E-12	NaN
303	1.000000	0.362791	7.36803e+06	-53789.1	955.819	-29745.6	0.000000	0.000000	6.362905	0.001196	NaN	0.000000	0.001660	0.001629	28.08	0.062921	0.001916	32.8316	16.7158	-165.446	-0.020225	0.361475	-0.712700	-0.714017	0.001196	32.8316	-0.712728	-2.919235E+9	-4.098653E-13	NaN
303	1.000000	0.402790	7.36803e+06	-53789.1	955.819	-29745.6	0.000000	0.000000	6.402905	0.029298	NaN	0.000000	0.001635	0.001649	28.0802	0.023738	0.001853	12.8137	-172.622	-166.749	0.048107	0.401469	-0.672702	-0.674022	0.029298	12.8137	-0.674417	-8.746417E+8	-3.349703E-11	NaN
303	1.000000	0.442809	7.36803e+06	-53789.1	955.819	-29745.6	0.000000	0.000000	6.442923	0.009237	NaN	0.000000	0.001657	0.001635	28.0803	0.076904	0.001938	39.6811	62.7001	-161.257	-0.043449	0.441544	-0.632683	-0.633948	0.009237	39.6811	-0.632857	-2.356432E+8	-3.919773E-11	NaN
303	1.000000	0.482815	7.36803e+06	-53789.1	955.818	-29745.6	0.000000	0.000000	6.482928	-0.009881	NaN	0.000000	0.001594	0.001665	28.0803	0.106322	0.001930	55.0893	29.5719	-167.203	-0.028097	0.481470	-0.592677	-0.594021	-0.009881	55.0893	-0.592542	-6.572244E+7	1.503499E-10	NaN
303	1.000000	0.522829	7.36803e+06	-53789.1	955.818	-29745.6	0.000000	0.000000	6.522943	0.013653	NaN	0.000000	0.001648	0.001628	28.0815	0.088187	0.002038	43.2781	-19.1172	-164.162	0.106617	0.521501	-0.552663	-0.553991	0.013653	43.2781	-0.552900	-1.862564E+7	-7.330209E-10	NaN
303	1.000000	0.562838	7.36803e+06	-53789.1	955.818	-29745.6	0.000000	0.000000	6.562952	0.005408	NaN	0.000000	0.001614	0.001624	28.0812	0.043417	0.002038	21.3008	-159.494	-166.058	0.027260	0.561572	-0.512654	-0.513919	0.005408	21.3008	-0.512845	-5.1764e+06	-1.044740E-9	NaN
303	1.000000	0.602842	7.36803e+06	-53789.1	955.818	-29745.6	0.000000	0.000000	6.602956	-0.010816	NaN	0.000000	0.001662	0.001594	28.0812	0.041424	0.001898	21.8289	-59.0168	-164.463	-0.075490	0.601568	-0.472649	-0.473924	-0.010816	21.8289	-0.472278	-1.40394e+06	7.704083E-9	NaN
303	1.000000	0.642886	7.36803e+06	-53789.1	955.819	-29745.6	0.000000	0.000000	6.642998	-0.035052	NaN	0.000000	0.001648	0.001574	28.0803	0.109487	0.001991	54.9853	41.0241	-167.356	-0.018680	0.641587	-0.432606	-0.433904	-0.035052	54.9853	-0.432128	-382084	9.173786E-8	NaN
303	1.000000	0.682914	7.36803e+06	-53789.1	955.818	-29745.6	0.000000	0.000000	6.683026	-0.039051	NaN	0.000000	0.001649	0.001545	28.0799	0.106886	0.002079	51.4035	-89.4366	-168.853	-0.035972	0.681566	-0.392578	-0.393926	-0.039051	51.4035	-0.392008	-102774	3.799672E-7	NaN
303	1.000000	0.722925	7.36803e+06	-53789.1	955.819	-29745.6	0.000000	0.000000	6.723039	0.000542	NaN	0.000000	0.001615	0.001601	28.0803	0.058517	0.002031	28.8173	103.551	-168.058	-0.062536	0.721650	-0.352567	-0.353842	0.000542	28.8173	-0.352581	-27825.3	-1.948167E-8	NaN
303	1.000000	0.762952	7.36803e+06	-53789.1	955.818	-29745.6	0.000000	0.000000	6.763068	0.044342	NaN	0.000000	0.001646	0.001678	28.0814	0.024396	0.002033	12.0008	-150.12	-169.122	0.066663	0.761624	-0.312540	-0.313867	0.044342	12.0008	-0.315311	-7934.86	-5.588235E-6	NaN
303	1.000000	0.802957	7.36803e+06	-53789.1	955.819	-29745.6	0.000000	0.000000	6.803074	0.082970	NaN	0.000000	0.001634	0.001625	28.0813	0.023472	0.001971	11.9087	-99.0486	-170.308	0.110554	0.801633	-0.272535	-0.273859	0.082970	11.9087	-0.277761	-2183.52	-3.799830E-5	NaN
303	1.000000	0.842970	7.36803e+06	-53789.1	955.819	-29745.6	0.000000	0.000000	6.843083	-0.028826	NaN	0.000000	0.001649	0.001660	28.0813	0.043265	0.001892	22.8629	-37.0917	-167.906	0.048583	0.841637	-0.232521	-0.233854	-0.028826	22.8629	-0.231576	-424.01	6.798397E-5	NaN
303	1.000000	0.882984	7.36803e+06	-53789.1	955.819	-29745.6	0.000000	0.000000	6.883100	0.031135	NaN	0.000000	0.001609	0.001685	28.0814	0.101555	0.002091	48.5781	159.154	-166.841	-0.000481	0.881691	-0.192507	-0.193800	0.031135	48.5781	-0.192988	-100.882	-0.000309	NaN
303	1.000000	0.922952	7.36803e+06	-53789.1	955.819	-29745.6	0.000000	0.000000	6.923066	0.001090	NaN	0.000000	0.001652	0.001643	28.0808	0.077420	0.002030	38.1338	88.0841	-163.901	0.056220	0.921707	-0.152540	-0.153784	0.001090	38.1338	-0.152561	-20.1628	-5.406952E-5	NaN
303	1.000000	0.963033	7.36803e+06	-53789.1	955.819	-29745.6	0.000000	0.000000	6.963143	-0.083274	NaN	0.000000	0.001680	0.001659	28.0806	0.022382	0.002060	10.863	39.5836	-167.322	-0.112538	0.961695	-0.112459	-0.113797	-0.083274	10.863	-0.106709	-2.558249	0.032551	NaN
303	1.000000	1.003022	7.36803e+06	-53789.1	955.819	-29745.6	0.000000	0.000000	7.003136	-0.003311	NaN	0.000000	0.001622	0.001653	28.0804	0.013030	0.002079	6.268667	156.719	-163.276	-0.021745	1.001745	-0.072470	-0.073747	-0.003311	6.268667	-0.072073	-0.387287	0.008549	NaN
303	1.000000	1.043068	7.36803e+06	-53789.1	955.819	-29745.6	0.000000	0.000000	7.043179	-0.069452	NaN	0.000000	0.001681	0.001650	28.0815	0.004152	0.002081	1.995380	-61.0265	-166.422	-0.145598	1.041762	-0.032424	-0.033730	-0.069452	1.995380	-0.006319	-0.004231	16.4162	NaN
303	1.000000	1.083058	7.36803e+06	-53789.1	955.82	-29745.6	0.000000	0.000000	7.083421	6.051878	NaN	0.000000	0.001618	0.001633	28.0815	6.247937	0.001820	3432.58	21.6481	-174.207	5.607454	1.081727	0.007566	0.006236	6.051878	3432.58	0.006244	0.005297	1142.42	43088.6
303	2.000000	1.095615	7.36803e+06	-53789.1	955.82	-29745.6	0.000000	0.000000	7.096498	18.6996	NaN	0.000000	0.001613	0.001642	28.0813	18.1907	0.001821	9991.04	6.482656	-175.586	19.0618	1.095315	0.020124	0.019823	18.6996	9991.04	0.018720	0.020571	909.046	63644.4
303	2.000000	1.105506	7.36803e+06	-53789.1	955.82	-29745.6	0.000000	0.000000	7.107231	39.1724	NaN	0.000000	0.001693	0.001656	28.0813	28.6992	0.001810	15858.2	5.768814	178.913	36.4662	1.105239	0.030014	0.029748	39.1724	15858.2	0.028162	0.037020	1058.15	75302.9
303	2.000000	1.115554	7.36804e+06	-53789.1	955.82	-29745.6	0.000000	0.000000	7.118298	63.9404	NaN	0.000000	0.001645	0.001654	28.0802	37.7587	0.001792	21074.8	4.133820	178.465	63.26	1.115150	0.040062	0.039658	63.9404	21074.8	0.037787	0.058434	1094.23	79653.3
303	2.000000	1.125457	7.36804e+06	-53789.1	955.82	-29745.6	0.000000	0.000000	7.129598	97.907	NaN	0.000000	0.001666	0.001675	28.0802	46.8902	0.001680	27907.1	4.699512	174.641	95.0015	1.125170	0.049965	0.049678	97.907	27907.1	0.047334	0.084352	1160.7	87789.2
303	2.000000	1.135522	7.36804e+06	-53789.1	955.819	-29745.6	0.000000	0.000000	7.140940	128.96	NaN	0.000000	0.001699	0.001707	28.0803	56.0301	0.001768	31691.3	0.796437	178.359	129.94	1.135182	0.060030	0.059690	128.96	31691.3	0.056978	0.115195	1119.49	85309.2
303	2.000000	1.145553	7.36804e+06	-53789.1	955.821	-29745.6	0.000000	0.000000	7.152294	161.124	NaN	0.000000	0.001667	0.001692	28.0817	67.1866	0.001822	36868.9	5.577298	172.246	162.09	1.145301	0.070061	0.069810	161.124	36868.9	0.066783	0.151250	1065.28	86613.5
303	2.000000	1.155407	7.36804e+06	-53789.1	955.82	-29745.6	0.000000	0.000000	7.164529	218.996	NaN	0.000000	0.001686	0.001717	28.0817	75.1365	0.001819	41305.3	1.791214	175.478	214.123	1.155134	0.079915	0.079642	218.996	41305.3	0.075939	0.189083	1158.2	86786.6
303	2.000000	1.165439	7.36804e+06	-53789.1	955.819	-29745.6	0.000000	0.000000	7.176502	266.195	NaN	0.000000	0.001619	0.001678	28.0812	86.0318	0.001827	47091.3	2.940330	172.553	261.558	1.165335	0.089947	0.089844	266.195	47091.3	0.085707	0.233788	1138.62	88982.2
303	2.000000	1.175471	7.36804e+06	-53789.1	955.818	-29745.6	0.000000	0.000000	7.189240	331.975	NaN	0.000000	0.001580	0.001649	28.0802	95.5193	0.001871	51042	4.668713	170.406	331.043	1.175270	0.099980	0.099778	331.975	51042	0.095102	0.280936	1181.68	87982.7
303	2.000000	1.184991	7.36804e+06	-53789.1	955.819	-29745.6	0.000000	0.000000	7.201823	406.46	NaN	0.000000	0.001595	0.001684	28.0801	104.341	0.001688	61830	4.705384	-10.2193	404.622	1.184557	0.109499	0.109065	406.46	61830	0.104569	0.332523	1222.35	97962.9

File: 2025-07-22_16-23-58_1_304.txt
2025-07-22, 16:23:58, 1
Index	Phase	Displacement	Time	Pos X	Pos Y	Pos Z	Rot A	Rot B	Piezo Z	Force A	Force B	Gripper	Voltage A	Voltage B	Temperature	Amplitude force	Amplitude pos	Stiffness	Phase shift	Phase excitation	Force A raw	Displacement raw	HMax	HMax raw	Real Force	Real Stiffness	Contact Depth	Area	Hardness	Reduced Mod.
[#]	[#]	[um]	[s]	[um]	[um]	[um]	[m°]	[m°]	[um]	[uN]	[uN]	[V]	[V]	[V]	[°C]	[uN]	[um]	[N/m]	[°]	[°]	[uN]	[um]	[um]	[um]	[uN]	[N/m]	[um]	[um^2]	[MPa]	[MPa]
304	1.000000	0.002370	7.36804e+06	-53839.1	955.818	-29745.4	0.000000	0.000000	6.002805	-0.054271	NaN	0.000000	0.001632	0.001682	28.0792	0.083774	0.000944	88.7533	161.451	-158.881	-0.056246	0.001102	-1.089159	-1.090427	-0.054271	88.7533	-1.088700	-3.534730E+14	1.535368E-16	NaN
304	1.000000	0.044306	7.36804e+06	-53839.1	955.818	-29745.4	0.000000	0.000000	6.044742	-0.029450	NaN	0.000000	0.001635	0.001678	28.0787	0.031359	0.001994	15.729	-129.539	16.2323	0.014526	0.042983	-1.047223	-1.048546	-0.029450	15.729	-1.045819	-9.380066E+13	3.139664E-16	NaN
304	1.000000	0.086334	7.36804e+06	-53839.1	955.819	-29745.4	0.000000	0.000000	6.086772	0.016707	NaN	0.000000	0.001618	0.001657	28.0775	0.028466	0.001972	14.4344	-176.124	-165.907	0.056366	0.084993	-1.005195	-1.006536	0.016707	14.4344	-1.006063	-2.737751E+13	-6.102479E-16	NaN
304	1.000000	0.128326	7.36804e+06	-53839.1	955.818	-29745.4	0.000000	0.000000	6.128764	0.013267	NaN	0.000000	0.001623	0.001674	28.0777	0.084232	0.002031	41.4772	81.3159	14.6986	0.024323	0.126920	-0.963203	-0.964609	0.013267	41.4772	-0.963443	-7.299320E+12	-1.817610E-15	NaN
304	1.000000	0.170356	7.36804e+06	-53839.1	955.818	-29745.4	0.000000	0.000000	6.170793	-0.014081	NaN	0.000000	0.001601	0.001686	28.0776	0.067215	0.001972	34.0824	61.2531	-166.45	-0.067073	0.169069	-0.921172	-0.922460	-0.014081	34.0824	-0.920863	-1.944696E+12	7.240910E-15	NaN
304	1.000000	0.212396	7.36804e+06	-53839.1	955.819	-29745.4	0.000000	0.000000	6.212835	0.025789	NaN	0.000000	0.001623	0.001684	28.0785	0.085133	0.001960	43.4427	-70.9567	11.2174	-0.004970	0.210998	-0.879133	-0.880531	0.025789	43.4427	-0.879578	-5.382685E+11	-4.791034E-14	NaN
304	1.000000	0.254375	7.36804e+06	-53839.1	955.818	-29745.4	0.000000	0.000000	6.254816	0.077722	NaN	0.000000	0.001646	0.001685	28.0793	0.120610	0.002019	59.7439	-27.6068	-168.273	0.009451	0.253137	-0.837154	-0.838392	0.077722	59.7439	-0.838129	-1.478939E+11	-5.255277E-13	NaN
304	1.000000	0.296419	7.36804e+06	-53839.1	955.819	-29745.4	0.000000	0.000000	6.296855	-0.034425	NaN	0.000000	0.001623	0.001656	28.0791	0.079365	0.001884	42.1261	-132.011	15.7467	-0.057577	0.295067	-0.795110	-0.796462	-0.034425	42.1261	-0.794497	-3.785730E+10	9.093410E-13	NaN
304	1.000000	0.338433	7.36804e+06	-53839.1	955.819	-29745.4	0.000000	0.000000	6.338869	-0.026715	NaN	0.000000	0.001647	0.001643	28.079	0.043782	0.001998	21.9076	136.894	-166.372	0.004974	0.337115	-0.753096	-0.754414	-0.026715	21.9076	-0.752181	-1.006728E+10	2.653670E-12	NaN
304	1.000000	0.380439	7.36804e+06	-53839.1	955.818	-29745.4	0.000000	0.000000	6.380878	0.031808	NaN	0.000000	0.001715	0.001695	28.0778	0.099171	0.001975	50.2076	-46.5817	13.2082	-0.002478	0.379054	-0.711090	-0.712475	0.031808	50.2076	-0.711565	-2.814532E+9	-1.130122E-11	NaN
304	1.000000	0.422465	7.36804e+06	-53839.1	955.818	-29745.4	0.000000	0.000000	6.422902	0.009232	NaN	0.000000	0.001670	0.001679	28.078	0.040517	0.001913	21.175	-16.3754	-172.91	0.001507	0.421177	-0.669064	-0.670352	0.009232	21.175	-0.669391	-7.465463E+8	-1.236564E-11	NaN
304	1.000000	0.464496	7.36804e+06	-53839.1	955.82	-29745.4	0.000000	0.000000	6.464932	-0.021940	NaN	0.000000	0.001584	0.001683	28.0782	0.101879	0.002008	50.7472	149.857	13.9352	0.040610	0.463114	-0.627033	-0.628414	-0.021940	50.7472	-0.626709	-1.940094E+8	1.130881E-10	NaN
304	1.000000	0.506522	7.36804e+06	-53839.1	955.817	-29745.4	0.000000	0.000000	6.506958	-0.026016	NaN	0.000000	0.001652	0.001656	28.0793	0.061624	0.002013	30.6119	55.1094	-165.525	0.060712	0.505225	-0.585007	-0.586304	-0.026016	30.6119	-0.584370	-5.070131E+7	5.131157E-10	NaN
304	1.000000	0.548502	7.36804e+06	-53839.1	955.819	-29745.4	0.000000	0.000000	6.548939	0.000667	NaN	0.000000	0.001605	0.001684	28.0796	0.036411	0.002063	17.6535	81.1529	15.0897	0.046504	0.547225	-0.543027	-0.544304	0.000667	17.6535	-0.543055	-1.360574E+7	-4.901417E-11	NaN
304	1.000000	0.590532	7.36804e+06	-53839.1	955.819	-29745.4	0.000000	0.000000	6.590971	0.038791	NaN	0.000000	0.001683	0.001739	28.0792	0.036074	0.002019	17.8669	165.022	-164.829	-0.065499	0.589233	-0.500997	-0.502296	0.038791	17.8669	-0.502625	-3.72935e+06	-1.040149E-8	NaN
304	1.000000	0.632566	7.36804e+06	-53839.1	955.819	-29745.4	0.000000	0.000000	6.633002	-0.050040	NaN	0.000000	0.001610	0.001701	28.0778	0.056312	0.001967	28.6282	-42.2675	12.638	-0.126275	0.631152	-0.458963	-0.460376	-0.050040	28.6282	-0.457652	-875001	5.718881E-8	NaN
304	1.000000	0.674561	7.36804e+06	-53839.1	955.818	-29745.4	0.000000	0.000000	6.674997	-0.025337	NaN	0.000000	0.001679	0.001712	28.0779	0.063150	0.002053	30.7538	-136.994	-167.863	-0.013277	0.673212	-0.416968	-0.418317	-0.025337	30.7538	-0.416350	-228362	1.109533E-7	NaN
304	1.000000	0.716622	7.36804e+06	-53839.1	955.818	-29745.4	0.000000	0.000000	6.717060	0.003238	NaN	0.000000	0.001733	0.001672	28.0819	0.126455	0.002058	61.4492	-67.4911	12.7312	0.045853	0.715209	-0.374907	-0.376320	0.003238	61.4492	-0.374946	-58519	-5.532724E-8	NaN
304	1.000000	0.758631	7.36804e+06	-53839.1	955.818	-29745.4	0.000000	0.000000	6.759070	0.037381	NaN	0.000000	0.001721	0.001659	28.0787	0.050964	0.002046	24.907	-99.1066	-167.768	-0.000162	0.757342	-0.332898	-0.334187	0.037381	24.907	-0.334023	-14938.8	-2.502281E-6	NaN
304	1.000000	0.800638	7.36804e+06	-53839.1	955.818	-29745.4	0.000000	0.000000	6.801074	-0.028146	NaN	0.000000	0.001733	0.001682	28.0791	0.084331	0.002011	41.9306	15.414	15.6806	0.032219	0.799253	-0.290891	-0.292276	-0.028146	41.9306	-0.290388	-3381.53	8.323562E-6	NaN
304	1.000000	0.842628	7.36804e+06	-53839.1	955.819	-29745.4	0.000000	0.000000	6.843067	0.029559	NaN	0.000000	0.001720	0.001693	28.0792	0.030765	0.002029	15.1632	10.3322	-163.808	-0.081911	0.841308	-0.248901	-0.250220	0.029559	15.1632	-0.250363	-832.866	-3.549103E-5	NaN
304	1.000000	0.884673	7.36804e+06	-53839.1	955.817	-29745.4	0.000000	0.000000	6.885110	-0.009379	NaN	0.000000	0.001682	0.001737	28.0794	0.084326	0.001955	43.1354	-158.785	15.922	0.003674	0.883325	-0.206856	-0.208204	-0.009379	43.1354	-0.206693	-169.487	5.533651E-5	NaN
304	1.000000	0.926667	7.36804e+06	-53839.1	955.819	-29745.4	0.000000	0.000000	6.927106	0.022776	NaN	0.000000	0.001660	0.001686	28.0778	0.084566	0.001998	42.3271	-25.7191	-164.249	-0.005155	0.925442	-0.164861	-0.166086	0.022776	42.3271	-0.165265	-33.9592	-0.000671	NaN
304	1.000000	0.968654	7.36804e+06	-53839.1	955.819	-29745.4	0.000000	0.000000	6.969088	-0.067790	NaN	0.000000	0.001649	0.001670	28.0779	0.042562	0.001790	23.7845	-111.294	11.585	-0.125053	0.967383	-0.122875	-0.124146	-0.067790	23.7845	-0.120738	-4.999748	0.013559	NaN
304	1.000000	1.010733	7.36804e+06	-53839.1	955.819	-29745.4	0.000000	0.000000	7.011170	-0.001315	NaN	0.000000	0.001619	0.001715	28.0779	0.068424	0.002105	32.4987	-141.843	-164.779	-0.040585	1.009406	-0.080796	-0.082122	-0.001315	32.4987	-0.080765	-0.646811	0.002033	NaN
304	1.000000	1.052729	7.36804e+06	-53839.1	955.819	-29745.4	0.000000	0.000000	7.053165	-0.045504	NaN	0.000000	0.001639	0.001702	28.079	0.062538	0.001922	32.5307	75.7773	14.2349	0.033735	1.051366	-0.038800	-0.040163	-0.045504	32.5307	-0.037751	-0.038669	1.176738	NaN
304	1.000000	1.094722	7.36804e+06	-53839.1	955.82	-29745.4	0.000000	0.000000	7.095234	1.810879	NaN	0.000000	0.001612	0.001688	28.0792	2.640048	0.001878	1406.09	9.275970	-167.59	0.714933	1.093460	0.003193	0.001931	1.810879	1406.09	0.002227	0.001739	1041.05	30801.8
304	2.000000	1.109771	7.36804e+06	-53839.1	955.82	-29745.4	0.000000	0.000000	7.111105	21.8146	NaN	0.000000	0.001656	0.001710	28.0791	18.9793	0.001817	10445.8	5.340367	2.935055	20.7036	1.109447	0.018242	0.017918	21.8146	10445.8	0.016676	0.017585	1240.52	71968.3
304	2.000000	1.120254	7.36804e+06	-53839.1	955.82	-29745.4	0.000000	0.000000	7.122712	49.138	NaN	0.000000	0.001654	0.001690	28.0779	29.4476	0.001873	15723.2	7.831321	178.924	48.8552	1.119844	0.028725	0.028315	49.138	15723.2	0.026381	0.033576	1463.48	78396.9
304	2.000000	1.130690	7.36804e+06	-53839.1	955.82	-29745.4	0.000000	0.000000	7.134358	78.5442	NaN	0.000000	0.001641	0.001680	28.0782	38.3174	0.001693	22638.1	3.441427	-2.753536	75.7619	1.130425	0.039161	0.038896	78.5442	22638.1	0.036559	0.055438	1416.79	87843.3
304	2.000000	1.141177	7.36805e+06	-53839.1	955.82	-29745.4	0.000000	0.000000	7.146592	121.007	NaN	0.000000	0.001611	0.001671	28.0778	47.3813	0.001648	28756.6	0.739443	178.499	118.137	1.140853	0.049648	0.049324	121.007	28756.6	0.046492	0.081880	1477.87	91816.9
304	2.000000	1.151693	7.36805e+06	-53839.1	955.821	-29745.4	0.000000	0.000000	7.159268	173.535	NaN	0.000000	0.001602	0.001676	28.0787	58.2405	0.001755	33180.1	4.001456	-5.007825	172.063	1.151303	0.060164	0.059774	173.535	33180.1	0.056242	0.112677	1540.1	90309.4
304	2.000000	1.162188	7.36805e+06	-53839.1	955.82	-29745.4	0.000000	0.000000	7.172211	233.033	NaN	0.000000	0.001611	0.001696	28.0792	69.5377	0.001800	38638.6	6.604023	171.126	230.548	1.161833	0.070659	0.070304	233.033	38638.6	0.066136	0.148725	1566.87	91538.1
304	2.000000	1.172564	7.36805e+06	-53839.1	955.82	-29745.4	0.000000	0.000000	7.185134	294.967	NaN	0.000000	0.001637	0.001691	28.0792	77.8665	0.001782	43699.9	0.711783	-3.821070	287.485	1.172259	0.081035	0.080730	294.967	43699.9	0.075973	0.189230	1558.78	91782.3
304	2.000000	1.183120	7.36805e+06	-53839.1	955.821	-29745.4	0.000000	0.000000	7.198754	369.46	NaN	0.000000	0.001647	0.001645	28.0791	87.639	0.001793	48877.7	3.384919	172.107	366.21	1.182810	0.091591	0.091281	369.46	48877.7	0.085922	0.234821	1573.37	92154.2
304	2.000000	1.193626	7.36805e+06	-53839.1	955.821	-29745.4	0.000000	0.000000	7.212543	449.268	NaN	0.000000	0.001698	0.001672	28.078	99.0025	0.001786	55437.4	4.261840	-9.382893	445.147	1.193317	0.102098	0.101789	449.268	55437.4	0.096019	0.285759	1572.19	94749.4
304	2.000000	1.199086	7.36805e+06	-53839.1	955.821	-29745.4	0.000000	0.000000	7.219973	497.145	NaN	0.000000	0.001681	0.001693	28.0779	103.586	0.001670	62036.4	3.528444	170.713	493.339	1.198739	0.107558	0.107210	497.145	62036.4	0.101547	0.315617	1575.15	100888