Folder: unikorn_login/remote_trans/data/nanoindenter/0828-1/data/Data_2025-08-06,11h17m57s (part 200)

File: 2025-07-22_16-23-58_1_417.txt
2025-07-22, 16:23:58, 1
Index	Phase	Displacement	Time	Pos X	Pos Y	Pos Z	Rot A	Rot B	Piezo Z	Force A	Force B	Gripper	Voltage A	Voltage B	Temperature	Amplitude force	Amplitude pos	Stiffness	Phase shift	Phase excitation	Force A raw	Displacement raw	HMax	HMax raw	Real Force	Real Stiffness	Contact Depth	Area	Hardness	Reduced Mod.
[#]	[#]	[um]	[s]	[um]	[um]	[um]	[m°]	[m°]	[um]	[uN]	[uN]	[V]	[V]	[V]	[°C]	[uN]	[um]	[N/m]	[°]	[°]	[uN]	[um]	[um]	[um]	[uN]	[N/m]	[um]	[um^2]	[MPa]	[MPa]
417	1.000000	0.003064	7.36914e+06	-56239.1	1005.82	-29739.6	0.000000	0.000000	6.002791	0.081823	NaN	0.000000	0.001685	0.001659	28.0818	0.025561	0.000907	28.1919	-118.558	-164.881	0.128364	0.001812	-1.056252	-1.057504	0.081823	28.1919	-1.058429	-1.385818E+14	-5.904293E-16	NaN
417	1.000000	0.042997	7.36914e+06	-56239.1	1005.82	-29739.6	0.000000	0.000000	6.042722	0.032497	NaN	0.000000	0.001695	0.001660	28.0803	0.064848	0.001885	34.4106	123.174	-160.509	0.095138	0.041685	-1.016318	-1.017630	0.032497	34.4106	-1.017027	-3.845407E+13	-8.450961E-16	NaN
417	1.000000	0.083027	7.36914e+06	-56239.1	1005.82	-29739.6	0.000000	0.000000	6.082754	0.087174	NaN	0.000000	0.001731	0.001644	28.08	0.030551	0.002042	14.9622	22.3645	-169.584	0.087484	0.081747	-0.976289	-0.977569	0.087174	14.9622	-0.980659	-1.245338E+13	-7.000066E-15	NaN
417	1.000000	0.123079	7.36914e+06	-56239.1	1005.82	-29739.6	0.000000	0.000000	6.122803	0.024308	NaN	0.000000	0.001753	0.001658	28.0801	0.049035	0.001959	25.0346	-129.642	-166.789	0.111419	0.121742	-0.936237	-0.937574	0.024308	25.0346	-0.936965	-3.207663E+12	-7.578145E-15	NaN
417	1.000000	0.163086	7.36914e+06	-56239.1	1005.82	-29739.6	0.000000	0.000000	6.162812	0.043230	NaN	0.000000	0.001759	0.001618	28.0813	0.076601	0.002088	36.6886	103.262	-163.352	0.034551	0.161749	-0.896229	-0.897567	0.043230	36.6886	-0.897113	-9.290866E+11	-4.652935E-14	NaN
417	1.000000	0.203073	7.36914e+06	-56239.1	1005.82	-29739.6	0.000000	0.000000	6.202800	0.088464	NaN	0.000000	0.001712	0.001656	28.0814	0.036234	0.001980	18.3008	-169.67	-166.539	0.076167	0.201766	-0.856243	-0.857550	0.088464	18.3008	-0.859868	-2.912995E+11	-3.036886E-13	NaN
417	1.000000	0.243100	7.36914e+06	-56239.1	1005.82	-29739.6	0.000000	0.000000	6.242825	0.039760	NaN	0.000000	0.001684	0.001644	28.0814	0.059675	0.002062	28.9434	-171.62	-169.154	0.035232	0.241826	-0.816215	-0.817490	0.039760	28.9434	-0.817246	-7.706529E+10	-5.159247E-13	NaN
417	1.000000	0.283095	7.36914e+06	-56239.1	1005.82	-29739.6	0.000000	0.000000	6.282818	-0.015021	NaN	0.000000	0.001648	0.001620	28.0806	0.035967	0.001926	18.677	-119.006	-168.829	-0.004629	0.281811	-0.776221	-0.777505	-0.015021	18.677	-0.775618	-2.097364E+10	7.161891E-13	NaN
417	1.000000	0.323143	7.36914e+06	-56239.1	1005.82	-29739.6	0.000000	0.000000	6.322870	0.078354	NaN	0.000000	0.001719	0.001651	28.0802	0.024346	0.002045	11.9075	50.6824	-169.38	0.047767	0.321813	-0.736172	-0.737502	0.078354	11.9075	-0.741107	-7.114413E+9	-1.101338E-11	NaN
417	1.000000	0.363168	7.36914e+06	-56239.1	1005.82	-29739.6	0.000000	0.000000	6.362893	0.036882	NaN	0.000000	0.001711	0.001659	28.08	0.090638	0.002043	44.355	-154.423	-165.339	0.076606	0.361816	-0.696147	-0.697499	0.036882	44.355	-0.696771	-1.767789E+9	-2.086343E-11	NaN
417	1.000000	0.403145	7.36914e+06	-56239.1	1005.82	-29739.6	0.000000	0.000000	6.402875	0.145647	NaN	0.000000	0.001726	0.001608	28.0799	0.130573	0.001933	67.5615	-168.794	-167.88	0.009320	0.401871	-0.656171	-0.657445	0.145647	67.5615	-0.657787	-5.177956E+8	-2.812829E-10	NaN
417	1.000000	0.443192	7.36914e+06	-56239.1	1005.82	-29739.6	0.000000	0.000000	6.442919	0.102551	NaN	0.000000	0.001630	0.001701	28.0814	0.157894	0.001994	79.1708	66.0899	-164.758	0.086492	0.441917	-0.616124	-0.617399	0.102551	79.1708	-0.617096	-1.431216E+8	-7.165327E-10	NaN
417	1.000000	0.483213	7.36914e+06	-56239.1	1005.82	-29739.6	0.000000	0.000000	6.482938	0.027256	NaN	0.000000	0.001652	0.001705	28.0817	0.059948	0.002027	29.5689	-44.6399	-165.883	-0.000371	0.481871	-0.576103	-0.577444	0.027256	29.5689	-0.576794	-3.985371E+7	-6.839040E-10	NaN
417	1.000000	0.523205	7.36914e+06	-56239.1	1005.82	-29739.6	0.000000	0.000000	6.522930	0.039291	NaN	0.000000	0.001666	0.001761	28.082	0.125290	0.001885	66.4553	-26.4685	-167.643	0.064618	0.521869	-0.536111	-0.537446	0.039291	66.4553	-0.536554	-1.105488E+7	-3.554154E-9	NaN
417	1.000000	0.563236	7.36914e+06	-56239.1	1005.82	-29739.6	0.000000	0.000000	6.562961	0.041708	NaN	0.000000	0.001738	0.001718	28.0808	0.048827	0.001853	26.3536	-133.556	-170.12	0.070762	0.561877	-0.496080	-0.497439	0.041708	26.3536	-0.497267	-3.13963e+06	-1.328443E-8	NaN
417	1.000000	0.603269	7.36914e+06	-56239.1	1005.82	-29739.6	0.000000	0.000000	6.602993	0.016045	NaN	0.000000	0.001674	0.001722	28.0803	0.102651	0.001933	53.1057	-8.047988	-166.403	0.012723	0.601987	-0.456047	-0.457328	0.016045	53.1057	-0.456274	-836816	-1.917333E-8	NaN
417	1.000000	0.643276	7.36914e+06	-56239.1	1005.82	-29739.6	0.000000	0.000000	6.643000	0.005976	NaN	0.000000	0.001729	0.001738	28.08	0.069190	0.002024	34.1873	-79.2116	-168.017	0.048350	0.641921	-0.416039	-0.417395	0.005976	34.1873	-0.416170	-227026	-2.632284E-8	NaN
417	1.000000	0.683273	7.36914e+06	-56239.1	1005.82	-29739.6	0.000000	0.000000	6.682999	0.043801	NaN	0.000000	0.001719	0.001726	28.0803	0.160895	0.002115	76.0748	-72.6655	-163.512	0.072304	0.681990	-0.376042	-0.377325	0.043801	76.0748	-0.376474	-61554.5	-7.115884E-7	NaN
417	1.000000	0.723332	7.36914e+06	-56239.1	1005.82	-29739.7	0.000000	0.000000	6.723058	0.046148	NaN	0.000000	0.001766	0.001729	28.0815	0.043275	0.002019	21.43	-65.2889	-167.504	0.119130	0.721979	-0.335984	-0.337336	0.046148	21.43	-0.337599	-16847.4	-2.739208E-6	NaN
417	1.000000	0.763287	7.36914e+06	-56239.1	1005.82	-29739.7	0.000000	0.000000	6.763016	0.126605	NaN	0.000000	0.001755	0.001675	28.0816	0.026236	0.001827	14.3606	-137.526	-165.048	0.087156	0.762002	-0.296029	-0.297314	0.126605	14.3606	-0.302641	-5151.28	-2.457736E-5	NaN
417	1.000000	0.803333	7.36914e+06	-56239.1	1005.82	-29739.7	0.000000	0.000000	6.803059	0.050091	NaN	0.000000	0.001661	0.001699	28.0817	0.155901	0.002037	76.5445	116.195	-168.619	-0.022613	0.801947	-0.255983	-0.257368	0.050091	76.5445	-0.256473	-1034.63	-4.841419E-5	NaN
417	1.000000	0.843359	7.36914e+06	-56239.1	1005.82	-29739.7	0.000000	0.000000	6.843085	0.054428	NaN	0.000000	0.001680	0.001691	28.0803	0.031878	0.001908	16.7114	-31.9653	-164.953	0.075475	0.842062	-0.215957	-0.217253	0.054428	16.7114	-0.218399	-261.861	-0.000208	NaN
417	1.000000	0.883385	7.36914e+06	-56239.1	1005.82	-29739.7	0.000000	0.000000	6.883110	0.029191	NaN	0.000000	0.001694	0.001728	28.0803	0.031394	0.001943	16.1596	153.198	-167.227	-0.017126	0.882057	-0.175930	-0.177258	0.029191	16.1596	-0.177285	-54.8476	-0.000532	NaN
417	1.000000	0.923388	7.36914e+06	-56239.1	1005.82	-29739.7	0.000000	0.000000	6.923116	0.114671	NaN	0.000000	0.001768	0.001728	28.0804	0.022549	0.002009	11.224	-118.168	-166.614	0.156675	0.922067	-0.135928	-0.137248	0.114671	11.224	-0.143591	-13.8051	-0.008306	NaN
417	1.000000	0.963390	7.36914e+06	-56239.1	1005.82	-29739.7	0.000000	0.000000	6.963113	-0.007501	NaN	0.000000	0.001640	0.001677	28.0805	0.128365	0.001873	68.5416	102.289	-160.795	0.002211	0.962112	-0.095926	-0.097204	-0.007501	68.5416	-0.095844	-1.474337	0.005088	NaN
417	1.000000	1.003416	7.36914e+06	-56239.1	1005.82	-29739.7	0.000000	0.000000	7.003139	-0.003637	NaN	0.000000	0.001700	0.001690	28.0818	0.080325	0.002033	39.5129	-17.2956	-167.345	-0.043249	1.002187	-0.055900	-0.057129	-0.003637	39.5129	-0.055831	-0.136251	0.026690	NaN
417	1.000000	1.043443	7.36914e+06	-56239.1	1005.82	-29739.7	0.000000	0.000000	7.043170	0.085281	NaN	0.000000	0.001668	0.001709	28.0816	0.142656	0.002077	68.6805	131.41	-163.724	0.030529	1.042206	-0.015873	-0.017110	0.085281	68.6805	-0.016804	-0.010386	-8.211444	NaN
417	2.000000	1.072068	7.36914e+06	-56239.1	1005.82	-29739.7	0.000000	0.000000	7.072301	12.3839	NaN	0.000000	0.001680	0.001696	28.0817	13.0403	0.001819	7170.43	9.348127	-175.304	12.368	1.071711	0.012752	0.012396	12.3839	7170.43	0.011457	0.010846	1141.76	62903.9
417	2.000000	1.081937	7.36914e+06	-56239.1	1005.82	-29739.7	0.000000	0.000000	7.083044	33.6428	NaN	0.000000	0.001716	0.001712	28.0811	23.5859	0.001777	13271.3	7.272554	179.37	33.1919	1.081652	0.022621	0.022336	33.6428	13271.3	0.020720	0.023686	1420.38	78785
417	2.000000	1.091875	7.36914e+06	-56239.1	1005.82	-29739.7	0.000000	0.000000	7.093954	57.2457	NaN	0.000000	0.001651	0.001723	28.0806	33.4933	0.001888	17744	3.609144	-178.973	56.1485	1.091751	0.032560	0.032435	57.2457	17744	0.030140	0.041035	1395.06	80029.3
417	2.000000	1.101904	7.36914e+06	-56239.1	1005.82	-29739.7	0.000000	0.000000	7.105494	93.9897	NaN	0.000000	0.001645	0.001742	28.0806	44.4116	0.001824	24344.3	5.280616	175.979	92.594	1.101633	0.042588	0.042317	93.9897	24344.3	0.039692	0.063236	1486.34	88448.2
417	2.000000	1.111943	7.36914e+06	-56239.1	1005.82	-29739.7	0.000000	0.000000	7.117426	139.992	NaN	0.000000	0.001682	0.001718	28.0816	53.9403	0.001825	29563	7.236404	173.638	141.588	1.111575	0.052627	0.052259	139.992	29563	0.049075	0.089577	1562.82	90245.4
417	2.000000	1.121881	7.36914e+06	-56239.1	1005.82	-29739.7	0.000000	0.000000	7.129559	193.36	NaN	0.000000	0.001763	0.001711	28.0817	63.1797	0.001633	38688.2	2.729768	174.153	192.892	1.121602	0.062565	0.062286	193.36	38688.2	0.058817	0.121599	1590.15	101365
417	2.000000	1.131910	7.36914e+06	-56239.1	1005.82	-29739.7	0.000000	0.000000	7.142274	258.627	NaN	0.000000	0.001630	0.001681	28.0819	74.0503	0.001793	41296.6	3.538704	173.618	259.042	1.131608	0.072594	0.072293	258.627	41296.6	0.067897	0.155640	1661.7	95637.1
417	2.000000	1.141796	7.36914e+06	-56239.1	1005.82	-29739.7	0.000000	0.000000	7.155405	337.513	NaN	0.000000	0.001672	0.001643	28.0818	82.7244	0.001785	46354.2	2.722767	173.531	334.395	1.141470	0.082481	0.082155	337.513	46354.2	0.077020	0.193810	1741.47	96199.8
417	2.000000	1.151907	7.36915e+06	-56239.1	1005.82	-29739.7	0.000000	0.000000	7.168967	421.404	NaN	0.000000	0.001673	0.001595	28.0817	93.6076	0.001817	51516.9	3.309610	171.888	423.166	1.151511	0.092591	0.092196	421.404	51516.9	0.086456	0.237397	1775.1	96601.8
417	2.000000	1.161886	7.36915e+06	-56239.1	1005.82	-29739.7	0.000000	0.000000	7.182677	512.107	NaN	0.000000	0.001702	0.001573	28.0805	104.286	0.001805	57768.6	7.141217	168.099	513.021	1.161445	0.102570	0.102130	512.107	57768.6	0.095921	0.285241	1795.35	98823.3
417	2.000000	1.166809	7.36915e+06	-56239.1	1005.82	-29739.7	0.000000	0.000000	7.189109	548.766	NaN	0.000000	0.001720	0.001600	28.0802	107.05	0.001697	63083.6	-0.751045	174.882	546.811	1.166680	0.107493	0.107365	548.766	63083.6	0.100969	0.312429	1756.45	103113

File: 2025-07-22_16-23-58_1_418.txt
2025-07-22, 16:23:58, 1
Index	Phase	Displacement	Time	Pos X	Pos Y	Pos Z	Rot A	Rot B	Piezo Z	Force A	Force B	Gripper	Voltage A	Voltage B	Temperature	Amplitude force	Amplitude pos	Stiffness	Phase shift	Phase excitation	Force A raw	Displacement raw	HMax	HMax raw	Real Force	Real Stiffness	Contact Depth	Area	Hardness	Reduced Mod.
[#]	[#]	[um]	[s]	[um]	[um]	[um]	[m°]	[m°]	[um]	[uN]	[uN]	[V]	[V]	[V]	[°C]	[uN]	[um]	[N/m]	[°]	[°]	[uN]	[um]	[um]	[um]	[uN]	[N/m]	[um]	[um^2]	[MPa]	[MPa]
418	1.000000	0.002599	7.36915e+06	-56189.1	1005.82	-29739.7	0.000000	0.000000	6.002805	0.052876	NaN	0.000000	0.001700	0.001642	28.0815	0.042043	0.001065	39.4786	-12.5564	-172.633	0.070737	0.001357	-1.119794	-1.121037	0.052876	39.4786	-1.120799	-9.532095E+14	-5.547140E-17	NaN
418	1.000000	0.044546	7.36915e+06	-56189.1	1005.82	-29739.7	0.000000	0.000000	6.044752	0.077708	NaN	0.000000	0.001716	0.001644	28.0798	0.084180	0.002028	41.499	-59.0452	18.0973	0.071169	0.043139	-1.077848	-1.079254	0.077708	41.499	-1.079252	-2.639214E+14	-2.944372E-16	NaN
418	1.000000	0.086570	7.36915e+06	-56189.1	1005.82	-29739.7	0.000000	0.000000	6.086775	0.049962	NaN	0.000000	0.001698	0.001637	28.0801	0.052849	0.002075	25.4736	41.2478	-168.818	0.005060	0.085230	-1.035823	-1.037163	0.049962	25.4736	-1.037294	-7.204165E+13	-6.935224E-16	NaN
418	1.000000	0.128566	7.36915e+06	-56189.1	1005.82	-29739.7	0.000000	0.000000	6.128772	0.077208	NaN	0.000000	0.001727	0.001658	28.0802	0.060442	0.001958	30.8692	-106.08	14.4699	0.091007	0.127212	-0.993828	-0.995181	0.077208	30.8692	-0.995703	-1.985717E+13	-3.888153E-15	NaN
418	1.000000	0.170602	7.36915e+06	-56189.1	1005.82	-29739.7	0.000000	0.000000	6.170809	0.081953	NaN	0.000000	0.001663	0.001628	28.0801	0.088313	0.001986	44.4658	-157.653	-162.848	0.130917	0.169303	-0.951792	-0.953091	0.081953	44.4658	-0.953174	-5.306755E+12	-1.544319E-14	NaN
418	1.000000	0.212599	7.36915e+06	-56189.1	1005.82	-29739.7	0.000000	0.000000	6.212802	0.006073	NaN	0.000000	0.001684	0.001635	28.0817	0.024933	0.002051	12.1559	100.022	10.9286	0.012569	0.211260	-0.909795	-0.911133	0.006073	12.1559	-0.910169	-1.394596E+12	-4.354513E-15	NaN
418	1.000000	0.254617	7.36915e+06	-56189.1	1005.82	-29739.7	0.000000	0.000000	6.254823	0.070997	NaN	0.000000	0.001694	0.001647	28.0815	0.027862	0.001973	14.1237	-55.4823	-167.489	0.080955	0.253306	-0.867777	-0.869088	0.070997	14.1237	-0.871547	-4.191488E+11	-1.693850E-13	NaN
418	1.000000	0.296636	7.36915e+06	-56189.1	1005.82	-29739.7	0.000000	0.000000	6.296839	0.014826	NaN	0.000000	0.001698	0.001645	28.0813	0.088283	0.001973	44.7406	-93.9324	15.1519	0.041213	0.295308	-0.825758	-0.827085	0.014826	44.7406	-0.826006	-1.013097E+11	-1.463431E-13	NaN
418	1.000000	0.338670	7.36915e+06	-56189.1	1005.82	-29739.7	0.000000	0.000000	6.338875	0.058031	NaN	0.000000	0.001789	0.001631	28.0801	0.044013	0.001999	22.021	-41.4879	-167.886	0.058840	0.337323	-0.783724	-0.785070	0.058031	22.021	-0.785700	-2.875275E+10	-2.018267E-12	NaN
418	1.000000	0.380702	7.36915e+06	-56189.1	1005.82	-29739.7	0.000000	0.000000	6.380908	0.059496	NaN	0.000000	0.001784	0.001655	28.0803	0.027054	0.002061	13.1238	-71.7604	14.7557	-0.028314	0.379352	-0.741691	-0.743042	0.059496	13.1238	-0.745091	-8.061049E+9	-7.380733E-12	NaN
418	1.000000	0.422721	7.36915e+06	-56189.1	1005.82	-29739.7	0.000000	0.000000	6.422926	0.044921	NaN	0.000000	0.001779	0.001644	28.0803	0.060138	0.001934	31.0917	118.95	-164.937	0.062678	0.421383	-0.699672	-0.701011	0.044921	31.0917	-0.700756	-2.003792E+9	-2.241806E-11	NaN
418	1.000000	0.464727	7.36915e+06	-56189.1	1005.82	-29739.7	0.000000	0.000000	6.464934	0.097638	NaN	0.000000	0.001679	0.001638	28.0815	0.053657	0.001918	27.9783	22.7586	14.2987	0.028840	0.463390	-0.657666	-0.659003	0.097638	27.9783	-0.660284	-5.602155E+8	-1.742860E-10	NaN
418	1.000000	0.506742	7.36915e+06	-56189.1	1005.82	-29739.7	0.000000	0.000000	6.506949	0.098576	NaN	0.000000	0.001687	0.001669	28.0815	0.061601	0.002032	30.3129	-84.413	-166.064	0.039547	0.505449	-0.615652	-0.616944	0.098576	30.3129	-0.618091	-1.477025E+8	-6.673962E-10	NaN
418	1.000000	0.548765	7.36915e+06	-56189.1	1005.82	-29739.7	0.000000	0.000000	6.548969	0.007386	NaN	0.000000	0.001675	0.001641	28.0813	0.128781	0.001944	66.2451	11.1998	11.6357	0.056121	0.547384	-0.573628	-0.575010	0.007386	66.2451	-0.573712	-3.613340E+7	-2.044014E-10	NaN
418	1.000000	0.590768	7.36915e+06	-56189.1	1005.82	-29739.7	0.000000	0.000000	6.590972	0.018632	NaN	0.000000	0.001653	0.001658	28.0805	0.036723	0.001937	18.9599	-97.4817	-169.446	-0.061010	0.589495	-0.531626	-0.532899	0.018632	18.9599	-0.532363	-9.66899e+06	-1.927025E-9	NaN
418	1.000000	0.632798	7.36915e+06	-56189.1	1005.82	-29739.7	0.000000	0.000000	6.633001	0.016612	NaN	0.000000	0.001639	0.001641	28.0805	0.061093	0.001918	31.8586	161.85	13.9348	-0.065138	0.631468	-0.489596	-0.490926	0.016612	31.8586	-0.489987	-2.48434e+06	-6.686543E-9	NaN
418	1.000000	0.674836	7.36915e+06	-56189.1	1005.82	-29739.7	0.000000	0.000000	6.675041	0.056837	NaN	0.000000	0.001692	0.001656	28.0806	0.123610	0.001948	63.441	135.374	-168.087	0.016075	0.673518	-0.447558	-0.448876	0.056837	63.441	-0.448230	-644774	-8.814965E-8	NaN
418	1.000000	0.716813	7.36915e+06	-56189.1	1005.82	-29739.7	0.000000	0.000000	6.717018	0.031556	NaN	0.000000	0.001627	0.001705	28.0804	0.132417	0.002051	64.5592	19.8678	14.7526	0.097324	0.715472	-0.405580	-0.406921	0.031556	64.5592	-0.405947	-162454	-1.942486E-7	NaN
418	1.000000	0.758858	7.36915e+06	-56189.1	1005.82	-29739.7	0.000000	0.000000	6.759063	0.044283	NaN	0.000000	0.001671	0.001674	28.0817	0.030334	0.001984	15.2879	-111.921	-166.915	0.053629	0.757539	-0.363536	-0.364855	0.044283	15.2879	-0.365708	-43079.4	-1.027934E-6	NaN
418	1.000000	0.800851	7.36915e+06	-56189.1	1005.82	-29739.7	0.000000	0.000000	6.801056	0.048739	NaN	0.000000	0.001727	0.001680	28.0816	0.065207	0.002010	32.4374	-177.45	14.8165	0.086144	0.799499	-0.321543	-0.322895	0.048739	32.4374	-0.322670	-10183.7	-4.785969E-6	NaN
418	1.000000	0.842895	7.36915e+06	-56189.1	1005.82	-29739.7	0.000000	0.000000	6.843100	0.047992	NaN	0.000000	0.001694	0.001691	28.0817	0.024535	0.001985	12.3578	116.567	-166.755	0.040236	0.841559	-0.279499	-0.280834	0.047992	12.3578	-0.282411	-2566.35	-1.870029E-5	NaN
418	1.000000	0.884894	7.36915e+06	-56189.1	1005.82	-29739.7	0.000000	0.000000	6.885095	-0.040073	NaN	0.000000	0.001731	0.001662	28.0803	0.139237	0.001948	71.4852	-69.9949	15.4397	0.063087	0.883557	-0.237500	-0.238837	-0.040073	71.4852	-0.237079	-517.445	7.744361E-5	NaN
418	1.000000	0.926922	7.36915e+06	-56189.1	1005.82	-29739.7	0.000000	0.000000	6.927127	0.035758	NaN	0.000000	0.001729	0.001669	28.0803	0.015173	0.002115	7.173897	12.1451	-166.699	-0.024364	0.925613	-0.195471	-0.196780	0.035758	7.173897	-0.199210	-127.851	-0.000280	NaN
418	1.000000	0.968941	7.36915e+06	-56189.1	1005.82	-29739.7	0.000000	0.000000	6.969146	0.056305	NaN	0.000000	0.001659	0.001670	28.0802	0.034532	0.002047	16.8679	-64.9727	14.8937	0.074360	0.967590	-0.153453	-0.154804	0.056305	16.8679	-0.155956	-23.2147	-0.002425	NaN
418	1.000000	1.010953	7.36915e+06	-56189.1	1005.82	-29739.7	0.000000	0.000000	7.011159	0.076898	NaN	0.000000	0.001704	0.001659	28.0815	0.050064	0.002057	24.3403	83.3521	-167.026	0.107419	1.009659	-0.111441	-0.112734	0.076898	24.3403	-0.113810	-3.610035	-0.021301	NaN
418	1.000000	1.052966	7.36915e+06	-56189.1	1005.82	-29739.7	0.000000	0.000000	7.053171	0.025169	NaN	0.000000	0.001717	0.001615	28.0814	0.029424	0.002049	14.3597	75.4094	12.3039	-0.050354	1.051592	-0.069427	-0.070802	0.025169	14.3597	-0.070742	-0.357031	-0.070494	NaN
418	1.000000	1.094971	7.36915e+06	-56189.1	1005.82	-29739.7	0.000000	0.000000	7.095173	-0.032495	NaN	0.000000	0.001672	0.001640	28.0816	0.023414	0.001945	12.0372	-2.749354	-167.51	0.000430	1.093651	-0.027422	-0.028742	-0.032495	12.0372	-0.025398	-0.017280	1.880539	NaN
418	2.000000	1.135155	7.36915e+06	-56189.1	1005.82	-29739.7	0.000000	0.000000	7.135742	9.317415	NaN	0.000000	0.001684	0.001637	28.0803	10.1589	0.001547	6566.61	6.198198	4.538476	8.468908	1.134732	0.012762	0.012338	9.317415	6566.61	0.011697	0.011130	837.171	56868.7
418	2.000000	1.145560	7.36915e+06	-56189.1	1005.82	-29739.7	0.000000	0.000000	7.146966	29.2451	NaN	0.000000	0.001702	0.001715	28.0806	23.5079	0.001819	12926.2	7.846108	178.81	29.6428	1.145269	0.023166	0.022876	29.2451	12926.2	0.021469	0.024904	1174.31	74835.5
418	2.000000	1.156032	7.36915e+06	-56189.1	1005.82	-29739.7	0.000000	0.000000	7.158374	52.0013	NaN	0.000000	0.001749	0.001672	28.0807	32.5439	0.001800	18075.5	4.132302	0.828711	52.7281	1.155649	0.033638	0.033255	52.0013	18075.5	0.031480	0.043868	1185.41	78847.8
418	2.000000	1.166494	7.36915e+06	-56189.1	1005.82	-29739.7	0.000000	0.000000	7.170288	87.2829	NaN	0.000000	0.001729	0.001655	28.0802	41.5854	0.001719	24189.7	5.541957	176.373	85.9094	1.166219	0.044100	0.043826	87.2829	24189.7	0.041394	0.067680	1289.64	84951.8
418	2.000000	1.176959	7.36915e+06	-56189.1	1005.82	-29739.7	0.000000	0.000000	7.182540	130.729	NaN	0.000000	0.001760	0.001624	28.0816	50.7728	0.001726	29413.6	2.402639	-3.126351	127.142	1.176658	0.054565	0.054264	130.729	29413.6	0.051232	0.096260	1358.09	86616.2
418	2.000000	1.187551	7.36915e+06	-56189.1	1005.82	-29739.7	0.000000	0.000000	7.194890	173.449	NaN	0.000000	0.001791	0.001649	28.0815	62.5296	0.001844	33901	4.099424	175.124	175.65	1.187158	0.065157	0.064764	173.449	33901	0.061320	0.130585	1328.25	85711.7
418	2.000000	1.197905	7.36915e+06	-56189.1	1005.82	-29739.7	0.000000	0.000000	7.207711	233.435	NaN	0.000000	0.001747	0.001664	28.0813	72.6168	0.001860	39037.1	3.731965	-5.925524	228.899	1.197684	0.075511	0.075291	233.435	39037.1	0.071026	0.168288	1387.11	86940.9
418	2.000000	1.208370	7.36915e+06	-56189.1	1005.82	-29739.7	0.000000	0.000000	7.220957	301.014	NaN	0.000000	0.001731	0.001632	28.0801	82.8887	0.001763	47026.7	2.540141	173.42	296.536	1.208156	0.085976	0.085763	301.014	47026.7	0.081175	0.212496	1416.57	93205.7
418	2.000000	1.218948	7.36915e+06	-56189.1	1005.82	-29739.7	0.000000	0.000000	7.234662	377.022	NaN	0.000000	0.001747	0.001654	28.0799	93.5952	0.001835	51017	4.978638	-9.273859	374.329	1.218580	0.096555	0.096187	377.022	51017	0.091012	0.259914	1450.57	91426.8
418	2.000000	1.229461	7.36916e+06	-56189.1	1005.82	-29739.7	0.000000	0.000000	7.248559	459.261	NaN	0.000000	0.001688	0.001650	28.0804	101.52	0.001754	57872.9	2.967953	172.372	462.307	1.229114	0.107068	0.106721	459.261	57872.9	0.101116	0.313238	1466.17	94473.9
418	2.000000	1.233036	7.36916e+06	-56189.1	1005.82	-29739.7	0.000000	0.000000	7.253340	488.592	NaN	0.000000	0.001680	0.001627	28.0801	104.669	0.001652	63346.5	4.645739	-10.4694	491.397	1.232766	0.110642	0.110373	488.592	63346.5	0.104858	0.334162	1462.14	100119