Folder: unikorn_login/remote_trans/data/nanoindenter/0828-1/data/Data_2025-08-06,11h17m57s (part 156)

File: 2025-07-22_16-23-58_1_329.txt
2025-07-22, 16:23:58, 1
Index	Phase	Displacement	Time	Pos X	Pos Y	Pos Z	Rot A	Rot B	Piezo Z	Force A	Force B	Gripper	Voltage A	Voltage B	Temperature	Amplitude force	Amplitude pos	Stiffness	Phase shift	Phase excitation	Force A raw	Displacement raw	HMax	HMax raw	Real Force	Real Stiffness	Contact Depth	Area	Hardness	Reduced Mod.
[#]	[#]	[um]	[s]	[um]	[um]	[um]	[m°]	[m°]	[um]	[uN]	[uN]	[V]	[V]	[V]	[°C]	[uN]	[um]	[N/m]	[°]	[°]	[uN]	[um]	[um]	[um]	[uN]	[N/m]	[um]	[um^2]	[MPa]	[MPa]
329	1.000000	0.002655	7.36828e+06	-55089.1	955.817	-29742.5	0.000000	0.000000	6.002814	-0.007055	NaN	0.000000	0.001799	0.001704	28.0789	0.062114	0.001004	61.8375	123.031	-166.502	0.037094	0.001390	-1.178371	-1.179637	-0.007055	61.8375	-1.178285	-5.622112E+15	1.254883E-18	NaN
329	1.000000	0.046588	7.36828e+06	-55089.1	955.818	-29742.5	0.000000	0.000000	6.046746	-0.020384	NaN	0.000000	0.001701	0.001686	28.0792	0.034096	0.001930	17.6659	-94.7349	-169.105	-0.010994	0.045256	-1.134438	-1.135771	-0.020384	17.6659	-1.133572	-1.414287E+15	1.441286E-17	NaN
329	1.000000	0.090576	7.36828e+06	-55089.1	955.818	-29742.5	0.000000	0.000000	6.090732	-0.078510	NaN	0.000000	0.001740	0.001775	28.0778	0.055821	0.001905	29.3084	121.223	-165.252	-0.052297	0.089294	-1.090450	-1.091732	-0.078510	29.3084	-1.088441	-3.506519E+14	2.238967E-16	NaN
329	1.000000	0.134618	7.36828e+06	-55089.1	955.818	-29742.5	0.000000	0.000000	6.134777	0.023208	NaN	0.000000	0.001709	0.001679	28.0778	0.043685	0.002090	20.9027	39.5183	-163.71	-0.047474	0.133309	-1.046408	-1.047717	0.023208	20.9027	-1.047241	-9.802250E+13	-2.367659E-16	NaN
329	1.000000	0.178633	7.36828e+06	-55089.1	955.818	-29742.5	0.000000	0.000000	6.178790	-0.048416	NaN	0.000000	0.001773	0.001713	28.0786	0.051157	0.002139	23.9188	-19.3323	-166.584	-0.038335	0.177296	-1.002393	-1.003730	-0.048416	23.9188	-1.000875	-2.331036E+13	2.077035E-15	NaN
329	1.000000	0.222673	7.36828e+06	-55089.1	955.818	-29742.5	0.000000	0.000000	6.222833	0.024507	NaN	0.000000	0.001784	0.001693	28.0786	0.047760	0.001941	24.6039	89.416	-170.871	-0.019742	0.221410	-0.958353	-0.959616	0.024507	24.6039	-0.959100	-6.378703E+12	-3.842060E-15	NaN
329	1.000000	0.266678	7.36828e+06	-55089.1	955.818	-29742.5	0.000000	0.000000	6.266834	-0.075632	NaN	0.000000	0.001763	0.001692	28.0786	0.146652	0.001924	76.2398	21.5673	-165.879	-0.114852	0.265319	-0.914348	-0.915707	-0.075632	76.2398	-0.913604	-1.551800E+12	4.873850E-14	NaN
329	1.000000	0.310675	7.36828e+06	-55089.1	955.818	-29742.5	0.000000	0.000000	6.310828	-0.132992	NaN	0.000000	0.001708	0.001700	28.0774	0.091843	0.002150	42.7222	-56.1291	-167.382	-0.052317	0.309430	-0.870351	-0.871596	-0.132992	42.7222	-0.868016	-3.754972E+11	3.541761E-13	NaN
329	1.000000	0.354717	7.36828e+06	-55089.1	955.818	-29742.5	0.000000	0.000000	6.354875	-0.006092	NaN	0.000000	0.001693	0.001675	28.0776	0.076630	0.001931	39.6868	-82.7678	-167.117	-0.046465	0.353406	-0.826309	-0.827620	-0.006092	39.6868	-0.826194	-1.019044E+11	5.978450E-14	NaN
329	1.000000	0.398734	7.36828e+06	-55089.1	955.818	-29742.5	0.000000	0.000000	6.398891	-0.041471	NaN	0.000000	0.001662	0.001655	28.0774	0.042064	0.002051	20.5114	119.784	-170.497	-0.030681	0.397428	-0.782292	-0.783598	-0.041471	20.5114	-0.780776	-2.464754E+10	1.682560E-12	NaN
329	1.000000	0.442738	7.36828e+06	-55089.1	955.818	-29742.5	0.000000	0.000000	6.442897	0.014331	NaN	0.000000	0.001693	0.001673	28.0784	0.172042	0.001911	90.0045	-117.289	-166.289	-0.001339	0.441428	-0.738288	-0.739599	0.014331	90.0045	-0.738408	-6.536825E+9	-2.192414E-12	NaN
329	1.000000	0.486782	7.36828e+06	-55089.1	955.818	-29742.5	0.000000	0.000000	6.486940	-0.015067	NaN	0.000000	0.001731	0.001669	28.0784	0.043742	0.001930	22.6638	-69.568	-163.582	-0.082867	0.485470	-0.694244	-0.695556	-0.015067	22.6638	-0.693746	-1.607312E+9	9.374034E-12	NaN
329	1.000000	0.530819	7.36828e+06	-55089.1	955.817	-29742.5	0.000000	0.000000	6.530977	-0.004903	NaN	0.000000	0.001714	0.001711	28.0793	0.044086	0.002073	21.2657	61.633	-166.654	-0.040927	0.529453	-0.650208	-0.651573	-0.004903	21.2657	-0.650035	-4.054274E+8	1.209337E-11	NaN
329	1.000000	0.574839	7.36828e+06	-55089.1	955.817	-29742.5	0.000000	0.000000	6.574996	-0.024276	NaN	0.000000	0.001723	0.001689	28.0776	0.118069	0.002004	58.9248	43.8408	-168.409	-0.007976	0.573485	-0.606188	-0.607542	-0.024276	58.9248	-0.605879	-1.003223E+8	2.419784E-10	NaN
329	1.000000	0.618826	7.36829e+06	-55089.1	955.817	-29742.5	0.000000	0.000000	6.618982	-0.048192	NaN	0.000000	0.001701	0.001707	28.0774	0.025705	0.002082	12.3471	-88.8141	-162.437	-0.028828	0.617533	-0.562200	-0.563493	-0.048192	12.3471	-0.559273	-2.282033E+7	2.111808E-9	NaN
329	1.000000	0.662839	7.36829e+06	-55089.1	955.818	-29742.5	0.000000	0.000000	6.662996	-0.026977	NaN	0.000000	0.001686	0.001717	28.0776	0.012814	0.001973	6.495222	-120.151	-163.129	-0.006775	0.661565	-0.518187	-0.519461	-0.026977	6.495222	-0.515072	-5.55956e+06	4.852293E-9	NaN
329	1.000000	0.706875	7.36829e+06	-55089.1	955.818	-29742.5	0.000000	0.000000	6.707032	-0.045022	NaN	0.000000	0.001658	0.001730	28.0788	0.102941	0.001944	52.9553	42.6894	-167.321	-0.049486	0.705532	-0.474151	-0.475495	-0.045022	52.9553	-0.473513	-1.46106e+06	3.081449E-8	NaN
329	1.000000	0.750908	7.36829e+06	-55089.1	955.817	-29742.5	0.000000	0.000000	6.751065	-0.018259	NaN	0.000000	0.001654	0.001682	28.079	0.084444	0.002009	42.0238	-56.2304	-164.452	-0.036405	0.749615	-0.430119	-0.431411	-0.018259	42.0238	-0.429793	-354102	5.156445E-8	NaN
329	1.000000	0.794931	7.36829e+06	-55089.1	955.818	-29742.5	0.000000	0.000000	6.795092	0.041643	NaN	0.000000	0.001693	0.001695	28.0789	0.057972	0.002040	28.4213	161.467	-164.098	0.001248	0.793589	-0.386095	-0.387438	0.041643	28.4213	-0.387194	-87701	-4.748305E-7	NaN
329	1.000000	0.838909	7.36829e+06	-55089.1	955.818	-29742.5	0.000000	0.000000	6.839064	-0.076693	NaN	0.000000	0.001693	0.001728	28.0782	0.096547	0.002106	45.8398	-42.4438	-165.256	-0.010317	0.837610	-0.342117	-0.343416	-0.076693	45.8398	-0.340862	-18798.5	4.079746E-6	NaN
329	1.000000	0.882953	7.36829e+06	-55089.1	955.819	-29742.5	0.000000	0.000000	6.883110	-0.032918	NaN	0.000000	0.001689	0.001696	28.0775	0.117590	0.002107	55.8168	87.1249	-166.293	0.070746	0.881676	-0.298073	-0.299351	-0.032918	55.8168	-0.297631	-4338.55	7.587424E-6	NaN
329	1.000000	0.926953	7.36829e+06	-55089.1	955.819	-29742.5	0.000000	0.000000	6.927109	-0.075664	NaN	0.000000	0.001692	0.001679	28.0775	0.178258	0.001990	89.5577	173.27	-165.895	-0.084728	0.925651	-0.254073	-0.255375	-0.075664	89.5577	-0.253439	-929.124	8.143542E-5	NaN
329	1.000000	0.970970	7.36829e+06	-55089.1	955.818	-29742.5	0.000000	0.000000	6.971129	-0.000477	NaN	0.000000	0.001767	0.001673	28.0779	0.064087	0.002005	31.9577	-79.8368	-165.547	0.015721	0.969659	-0.210056	-0.211367	-0.000477	31.9577	-0.210045	-192.109	2.482355E-6	NaN
329	1.000000	1.015006	7.36829e+06	-55089.1	955.817	-29742.5	0.000000	0.000000	7.015160	-0.105191	NaN	0.000000	0.001704	0.001692	28.079	0.115371	0.001943	59.3889	-1.354279	-160.715	-0.094790	1.013659	-0.166020	-0.167367	-0.105191	59.3889	-0.164692	-33.1814	0.003170	NaN
329	1.000000	1.059002	7.36829e+06	-55089.1	955.818	-29742.5	0.000000	0.000000	7.059159	-0.033515	NaN	0.000000	0.001708	0.001681	28.0787	0.068317	0.001908	35.797	-100.355	-167.314	0.030219	1.057757	-0.122024	-0.123269	-0.033515	35.797	-0.121322	-5.136815	0.006525	NaN
329	1.000000	1.103036	7.36829e+06	-55089.1	955.817	-29742.5	0.000000	0.000000	7.103195	0.007710	NaN	0.000000	0.001649	0.001732	28.0788	0.078707	0.002021	38.9391	-149.109	-161.192	0.007080	1.101690	-0.077990	-0.079336	0.007710	38.9391	-0.078138	-0.555701	-0.013874	NaN
329	1.000000	1.147049	7.36829e+06	-55089.1	955.819	-29742.5	0.000000	0.000000	7.147207	-0.014257	NaN	0.000000	0.001685	0.001648	28.078	0.049467	0.001987	24.8904	96.1164	-167.042	-0.048422	1.145750	-0.033977	-0.035276	-0.014257	24.8904	-0.033547	-0.029039	0.490945	NaN
329	2.000000	1.190572	7.36829e+06	-55089.1	955.818	-29742.5	0.000000	0.000000	7.191048	7.716906	NaN	0.000000	0.001684	0.001686	28.078	7.640032	0.001591	4803.26	9.321408	-168.807	7.776861	1.189687	0.009546	0.008661	7.716906	4803.26	0.008341	0.007396	1043.45	51029.8
329	2.000000	1.201610	7.36829e+06	-55089.1	955.818	-29742.5	0.000000	0.000000	7.202843	26.1174	NaN	0.000000	0.001670	0.001701	28.0775	19.2117	0.001801	10666	5.705331	-175.092	25.2759	1.201218	0.020584	0.020192	26.1174	10666	0.018747	0.020612	1267.09	67875.8
329	2.000000	1.212627	7.36829e+06	-55089.1	955.819	-29742.5	0.000000	0.000000	7.214982	53.3971	NaN	0.000000	0.001706	0.001667	28.0788	30.138	0.001804	16704.3	8.857264	177.843	53.199	1.212308	0.031601	0.031282	53.3971	16704.3	0.029203	0.039109	1365.35	77172.8
329	2.000000	1.223542	7.36829e+06	-55089.1	955.822	-29742.5	0.000000	0.000000	7.227469	91.6074	NaN	0.000000	0.001692	0.001685	28.0787	40.5605	0.001758	23068.2	3.120398	179.875	89.0573	1.223282	0.042516	0.042256	91.6074	23068.2	0.039537	0.062838	1457.83	84076.6
329	2.000000	1.234590	7.36829e+06	-55089.1	955.821	-29742.5	0.000000	0.000000	7.240394	137.256	NaN	0.000000	0.001692	0.001661	28.0794	51.933	0.001773	29294.9	3.173235	177.239	135.483	1.234326	0.053563	0.053300	137.256	29294.9	0.050049	0.092566	1482.79	87970.8
329	2.000000	1.245567	7.36829e+06	-55089.1	955.821	-29742.5	0.000000	0.000000	7.253748	195.032	NaN	0.000000	0.001660	0.001678	28.0771	61.099	0.001701	35917.5	2.568768	177.468	195.551	1.245245	0.064540	0.064219	195.032	35917.5	0.060468	0.127492	1529.76	91905
329	2.000000	1.256677	7.36829e+06	-55089.1	955.821	-29742.5	0.000000	0.000000	7.267493	259.075	NaN	0.000000	0.001671	0.001689	28.0773	73.6125	0.001773	41508.9	5.901509	172.597	265.448	1.256329	0.075651	0.075303	259.075	41508.9	0.070969	0.168054	1541.62	92510.3
329	2.000000	1.267513	7.36829e+06	-55089.1	955.821	-29742.5	0.000000	0.000000	7.281874	345.254	NaN	0.000000	0.001655	0.001669	28.0774	82.6666	0.001800	45935.6	4.032238	173.878	344.525	1.267226	0.086487	0.086200	345.254	45935.6	0.080850	0.211004	1636.25	91364.6
329	2.000000	1.278487	7.36829e+06	-55089.1	955.82	-29742.5	0.000000	0.000000	7.296450	432.813	NaN	0.000000	0.001688	0.001687	28.0787	92.9393	0.001803	51533.6	10.6245	168.143	430.76	1.277974	0.097461	0.096948	432.813	51533.6	0.091162	0.260672	1660.37	92218.1
329	2.000000	1.289025	7.36829e+06	-55089.1	955.822	-29742.5	0.000000	0.000000	7.310785	525.112	NaN	0.000000	0.001680	0.001688	28.0786	99.6967	0.001772	56277.6	1.273594	-4.412795	523.355	1.288650	0.107999	0.107624	525.112	56277.6	0.101001	0.312601	1679.81	91963

File: 2025-07-22_16-23-58_1_330.txt
2025-07-22, 16:23:58, 1
Index	Phase	Displacement	Time	Pos X	Pos Y	Pos Z	Rot A	Rot B	Piezo Z	Force A	Force B	Gripper	Voltage A	Voltage B	Temperature	Amplitude force	Amplitude pos	Stiffness	Phase shift	Phase excitation	Force A raw	Displacement raw	HMax	HMax raw	Real Force	Real Stiffness	Contact Depth	Area	Hardness	Reduced Mod.
[#]	[#]	[um]	[s]	[um]	[um]	[um]	[m°]	[m°]	[um]	[uN]	[uN]	[V]	[V]	[V]	[°C]	[uN]	[um]	[N/m]	[°]	[°]	[uN]	[um]	[um]	[um]	[uN]	[N/m]	[um]	[um^2]	[MPa]	[MPa]
330	1.000000	0.002929	7.36829e+06	-55139.1	955.818	-29742.5	0.000000	0.000000	6.002808	-0.014155	NaN	0.000000	0.001676	0.001669	28.0801	0.115746	0.001159	99.9085	37.6383	-167.126	0.017459	0.001655	-1.000857	-1.002131	-0.014155	99.9085	-1.000750	-2.322041E+13	6.095889E-16	NaN
330	1.000000	0.040878	7.36829e+06	-55139.1	955.818	-29742.5	0.000000	0.000000	6.040758	0.022869	NaN	0.000000	0.001670	0.001704	28.0799	0.038556	0.001963	19.6402	177.903	15.3656	0.126090	0.039501	-0.962908	-0.964284	0.022869	19.6402	-0.963781	-7.376384E+12	-3.100331E-15	NaN
330	1.000000	0.078870	7.36829e+06	-55139.1	955.818	-29742.5	0.000000	0.000000	6.078747	-0.069225	NaN	0.000000	0.001659	0.001674	28.0808	0.104866	0.002006	52.264	-128.279	-162.093	-0.003963	0.077615	-0.924916	-0.926171	-0.069225	52.264	-0.923922	-2.138740E+12	3.236707E-14	NaN
330	1.000000	0.116881	7.36829e+06	-55139.1	955.818	-29742.5	0.000000	0.000000	6.116763	0.060507	NaN	0.000000	0.001702	0.001698	28.081	0.022396	0.002038	10.9882	62.6238	12.2105	-0.000795	0.115553	-0.886905	-0.888233	0.060507	10.9882	-0.891035	-7.689608E+11	-7.868707E-14	NaN
330	1.000000	0.154880	7.36829e+06	-55139.1	955.819	-29742.5	0.000000	0.000000	6.154763	0.069153	NaN	0.000000	0.001679	0.001702	28.0815	0.058390	0.001968	29.6767	12.4156	-164.564	0.000651	0.153624	-0.848905	-0.850162	0.069153	29.6767	-0.850653	-2.185656E+11	-3.163968E-13	NaN
330	1.000000	0.192946	7.36829e+06	-55139.1	955.818	-29742.5	0.000000	0.000000	6.192825	-0.013167	NaN	0.000000	0.001692	0.001705	28.0814	0.086742	0.001968	44.0796	124.54	12.2754	-0.058618	0.191621	-0.810840	-0.812165	-0.013167	44.0796	-0.810616	-6.265076E+10	2.101719E-13	NaN
330	1.000000	0.230962	7.36829e+06	-55139.1	955.819	-29742.5	0.000000	0.000000	6.230842	0.019423	NaN	0.000000	0.001694	0.001713	28.0799	0.102863	0.002045	50.2891	48.9181	-166.094	-0.031346	0.229644	-0.772824	-0.774142	0.019423	50.2891	-0.773114	-1.939266E+10	-1.001540E-12	NaN
330	1.000000	0.268945	7.36829e+06	-55139.1	955.819	-29742.5	0.000000	0.000000	6.268824	-0.032560	NaN	0.000000	0.001666	0.001716	28.0801	0.077116	0.001961	39.3188	-175.659	13.1568	-0.046381	0.267590	-0.734840	-0.736195	-0.032560	39.3188	-0.734219	-5.731991E+9	5.680405E-12	NaN
330	1.000000	0.306965	7.36829e+06	-55139.1	955.818	-29742.5	0.000000	0.000000	6.306845	0.013216	NaN	0.000000	0.001692	0.001715	28.0798	0.084905	0.001933	43.9129	-54.0139	-168.445	0.072549	0.305650	-0.696821	-0.698135	0.013216	43.9129	-0.697046	-1.783163E+9	-7.411763E-12	NaN
330	1.000000	0.344972	7.36829e+06	-55139.1	955.818	-29742.5	0.000000	0.000000	6.344849	-0.068454	NaN	0.000000	0.001669	0.001676	28.0811	0.047139	0.001924	24.5014	-124.144	14.1288	-0.017462	0.343687	-0.658813	-0.660099	-0.068454	24.5014	-0.656718	-5.006154E+8	1.367403E-10	NaN
330	1.000000	0.383026	7.36829e+06	-55139.1	955.819	-29742.5	0.000000	0.000000	6.382904	-0.061002	NaN	0.000000	0.001668	0.001666	28.0813	0.089284	0.001959	45.5855	12.3324	-168.227	-0.053424	0.381708	-0.620759	-0.622077	-0.061002	45.5855	-0.619756	-1.556950E+8	3.918064E-10	NaN
330	1.000000	0.421037	7.36829e+06	-55139.1	955.817	-29742.5	0.000000	0.000000	6.420915	-0.042893	NaN	0.000000	0.001691	0.001630	28.0814	0.109696	0.002027	54.1134	-157.891	13.4887	-0.085052	0.419661	-0.582749	-0.584125	-0.042893	54.1134	-0.582154	-4.725580E+7	9.076696E-10	NaN
330	1.000000	0.459038	7.36829e+06	-55139.1	955.819	-29742.5	0.000000	0.000000	6.458920	0.047704	NaN	0.000000	0.001726	0.001707	28.0816	0.038185	0.002021	18.8917	-130.707	-164.254	0.024379	0.457727	-0.544748	-0.546059	0.047704	18.8917	-0.546641	-1.525550E+7	-3.126999E-9	NaN
330	1.000000	0.497103	7.36829e+06	-55139.1	955.818	-29742.5	0.000000	0.000000	6.496981	-0.045505	NaN	0.000000	0.001711	0.001726	28.0805	0.013282	0.002017	6.584289	50.8385	12.3381	0.092434	0.495676	-0.506683	-0.508109	-0.045505	6.584289	-0.501499	-3.59695e+06	1.265100E-8	NaN
330	1.000000	0.535090	7.36829e+06	-55139.1	955.818	-29742.5	0.000000	0.000000	6.534971	0.032975	NaN	0.000000	0.001699	0.001756	28.0806	0.047814	0.002042	23.4112	48.6392	-164.597	-0.023501	0.533806	-0.468696	-0.469980	0.032975	23.4112	-0.469752	-1.29399e+06	-2.548293E-8	NaN
330	1.000000	0.573088	7.36829e+06	-55139.1	955.818	-29742.5	0.000000	0.000000	6.572967	-0.022875	NaN	0.000000	0.001673	0.001718	28.0803	0.040901	0.001895	21.5878	109.893	16.048	-0.074285	0.571765	-0.430697	-0.432020	-0.022875	21.5878	-0.429903	-355373	6.436806E-8	NaN
330	1.000000	0.611125	7.3683e+06	-55139.1	955.818	-29742.5	0.000000	0.000000	6.611007	0.061989	NaN	0.000000	0.001647	0.001743	28.0816	0.128489	0.002072	62.0236	-176.065	-164.102	0.013721	0.609805	-0.392661	-0.393980	0.061989	62.0236	-0.393410	-107627	-5.759640E-7	NaN
330	1.000000	0.649103	7.3683e+06	-55139.1	955.818	-29742.5	0.000000	0.000000	6.648984	0.022915	NaN	0.000000	0.001647	0.001703	28.0815	0.083546	0.002002	41.7262	-34.8086	14.896	-0.024982	0.647792	-0.354682	-0.355994	0.022915	41.7262	-0.355094	-30259.5	-7.572997E-7	NaN
330	1.000000	0.687140	7.3683e+06	-55139.1	955.819	-29742.6	0.000000	0.000000	6.687021	0.014479	NaN	0.000000	0.001647	0.001705	28.0817	0.075009	0.001954	38.3919	179.981	-168.311	-0.025213	0.685852	-0.316645	-0.317934	0.014479	38.3919	-0.316928	-8382.8	-1.727285E-6	NaN
330	1.000000	0.725157	7.3683e+06	-55139.1	955.819	-29742.6	0.000000	0.000000	6.725038	0.040250	NaN	0.000000	0.001598	0.001673	28.0816	0.070308	0.002009	34.99	-145.286	16.4489	0.050879	0.723795	-0.278629	-0.279991	0.040250	34.99	-0.279491	-2318.98	-1.735677E-5	NaN
330	1.000000	0.763171	7.3683e+06	-55139.1	955.818	-29742.6	0.000000	0.000000	6.763050	-0.013274	NaN	0.000000	0.001611	0.001681	28.0803	0.038054	0.002029	18.758	141.02	-166.347	-0.032488	0.761834	-0.240615	-0.241951	-0.013274	18.758	-0.240084	-576.587	2.302129E-5	NaN
330	1.000000	0.801188	7.3683e+06	-55139.1	955.818	-29742.6	0.000000	0.000000	6.801068	0.002861	NaN	0.000000	0.001637	0.001691	28.0803	0.116594	0.002127	54.8096	-29.7343	14.4321	-0.053580	0.799863	-0.202598	-0.203922	0.002861	54.8096	-0.202637	-145.528	-1.965706E-5	NaN
330	1.000000	0.839187	7.3683e+06	-55139.1	955.818	-29742.6	0.000000	0.000000	6.839064	-0.059038	NaN	0.000000	0.001658	0.001719	28.0801	0.172454	0.002004	86.034	7.521392	-168.067	-0.093191	0.837912	-0.164599	-0.165874	-0.059038	86.034	-0.164084	-32.375	0.001824	NaN
330	1.000000	0.877206	7.3683e+06	-55139.1	955.818	-29742.6	0.000000	0.000000	6.877084	-0.039670	NaN	0.000000	0.001597	0.001674	28.0804	0.049054	0.002062	23.7883	29.6172	16.8963	-0.058572	0.875842	-0.126580	-0.127944	-0.039670	23.7883	-0.125329	-6.173087	0.006426	NaN
330	1.000000	0.915269	7.3683e+06	-55139.1	955.819	-29742.6	0.000000	0.000000	6.915148	0.000572	NaN	0.000000	0.001732	0.001694	28.0812	0.055388	0.002111	26.2405	165.045	-162.999	0.025244	0.913925	-0.088517	-0.089861	0.000572	26.2405	-0.088533	-0.998277	-0.000573	NaN
330	1.000000	0.953245	7.3683e+06	-55139.1	955.818	-29742.6	0.000000	0.000000	6.953124	-0.030169	NaN	0.000000	0.001755	0.001669	28.0811	0.071720	0.001964	36.5121	167.254	17.5879	-0.010629	0.951915	-0.050540	-0.051871	-0.030169	36.5121	-0.049921	-0.090748	0.332447	NaN
330	1.000000	0.991247	7.3683e+06	-55139.1	955.819	-29742.6	0.000000	0.000000	6.991127	0.001528	NaN	0.000000	0.001670	0.001684	28.0814	0.024250	0.002049	11.834	-92.7487	-164.882	-0.006556	0.989955	-0.012538	-0.013830	0.001528	11.834	-0.012635	-0.007892	-0.193657	NaN
330	2.000000	1.019349	7.3683e+06	-55139.1	955.818	-29742.6	0.000000	0.000000	7.019728	12.1546	NaN	0.000000	0.001627	0.001686	28.0799	12.5457	0.001744	7195.12	4.342619	9.749768	12.0006	1.019061	0.015563	0.015275	12.1546	7195.12	0.014296	0.014358	846.523	54860.5
330	2.000000	1.028855	7.3683e+06	-55139.1	955.819	-29742.6	0.000000	0.000000	7.030123	33.7422	NaN	0.000000	0.001639	0.001682	28.08	23.0185	0.001837	12532.6	6.372759	-175.449	34.4793	1.028390	0.025069	0.024605	33.7422	12532.6	0.023050	0.027564	1224.15	68967.6
330	2.000000	1.038214	7.3683e+06	-55139.1	955.819	-29742.6	0.000000	0.000000	7.040476	57.9167	NaN	0.000000	0.001648	0.001720	28.0797	32.883	0.001759	18690.6	6.726491	-1.578102	55.1211	1.037907	0.034428	0.034122	57.9167	18690.6	0.032104	0.045218	1280.83	80304.4
330	2.000000	1.047760	7.3683e+06	-55139.1	955.817	-29742.6	0.000000	0.000000	7.051212	86.8318	NaN	0.000000	0.001653	0.001683	28.0801	42.0166	0.001786	23523.7	6.351322	176.881	87.766	1.047401	0.043974	0.043615	86.8318	23523.7	0.041206	0.067182	1292.49	82918.7
330	2.000000	1.057190	7.3683e+06	-55139.1	955.819	-29742.6	0.000000	0.000000	7.062360	128.598	NaN	0.000000	0.001649	0.001726	28.0811	51.379	0.001884	27267.9	4.736432	-1.818995	126.402	1.056856	0.053404	0.053071	128.598	27267.9	0.049867	0.092003	1397.76	82134.2
330	2.000000	1.066736	7.3683e+06	-55139.1	955.818	-29742.6	0.000000	0.000000	7.073557	168.753	NaN	0.000000	0.001711	0.001662	28.0815	62.2147	0.001799	34573.5	7.418429	172.103	170.761	1.066421	0.062950	0.062636	168.753	34573.5	0.059289	0.123272	1368.94	89967
330	2.000000	1.076116	7.3683e+06	-55139.1	955.817	-29742.6	0.000000	0.000000	7.085199	223.725	NaN	0.000000	0.001651	0.001656	28.081	71.1858	0.001906	37341.4	3.411596	-3.955055	219.023	1.075825	0.072331	0.072039	223.725	37341.4	0.067837	0.155401	1439.66	86544
330	2.000000	1.085644	7.3683e+06	-55139.1	955.818	-29742.6	0.000000	0.000000	7.097262	285.34	NaN	0.000000	0.001647	0.001706	28.0798	80.9523	0.001737	46613.3	3.905054	173.869	282.355	1.085493	0.081858	0.081708	285.34	46613.3	0.077267	0.194901	1464.02	96466.5
330	2.000000	1.095131	7.3683e+06	-55139.1	955.818	-29742.6	0.000000	0.000000	7.109689	356.826	NaN	0.000000	0.001665	0.001654	28.08	90.4437	0.001760	51384.3	4.654935	-7.660089	350.154	1.094899	0.091345	0.091114	356.826	51384.3	0.086137	0.235855	1512.9	96667.6
330	2.000000	1.104631	7.3683e+06	-55139.1	955.819	-29742.6	0.000000	0.000000	7.122402	434.909	NaN	0.000000	0.001610	0.001675	28.08	99.47	0.001638	60723.3	5.096157	170.743	433.066	1.104359	0.100846	0.100574	434.909	60723.3	0.095474	0.282889	1537.39	104309
330	2.000000	1.114116	7.3683e+06	-55139.1	955.818	-29742.6	0.000000	0.000000	7.135386	519.974	NaN	0.000000	0.001733	0.001724	28.0799	109.352	0.001705	64143.8	5.001237	-9.608482	513.751	1.113788	0.110330	0.110002	519.974	64143.8	0.104251	0.330724	1572.23	101905
330	2.000000	1.114657	7.3683e+06	-55139.1	955.819	-29742.6	0.000000	0.000000	7.136159	525.631	NaN	0.000000	0.001744	0.001735	28.0805	109.915	0.001778	61822	6.731762	169.691	523.751	1.114265	0.110871	0.110479	525.631	61822	0.104495	0.332104	1582.73	98012