Folder: unikorn_login/remote_trans/data/nanoindenter/0828-1/data/Data_2025-08-06,11h17m57s (part 95)

File: 2025-07-22_16-23-58_1_207.txt
2025-07-22, 16:23:58, 1
Index	Phase	Displacement	Time	Pos X	Pos Y	Pos Z	Rot A	Rot B	Piezo Z	Force A	Force B	Gripper	Voltage A	Voltage B	Temperature	Amplitude force	Amplitude pos	Stiffness	Phase shift	Phase excitation	Force A raw	Displacement raw	HMax	HMax raw	Real Force	Real Stiffness	Contact Depth	Area	Hardness	Reduced Mod.
[#]	[#]	[um]	[s]	[um]	[um]	[um]	[m°]	[m°]	[um]	[uN]	[uN]	[V]	[V]	[V]	[°C]	[uN]	[um]	[N/m]	[°]	[°]	[uN]	[um]	[um]	[um]	[uN]	[N/m]	[um]	[um^2]	[MPa]	[MPa]
207	1.000000	0.002393	7.36707e+06	-48989.1	955.819	-29760.8	0.000000	0.000000	6.002795	-0.056859	NaN	0.000000	0.001750	0.001646	28.0794	0.092972	0.001095	84.8793	-94.4127	-161.688	-0.052070	0.001142	-1.167293	-1.168544	-0.056859	84.8793	-1.166791	-3.943469E+15	1.441843E-17	NaN
207	1.000000	0.046334	7.36707e+06	-48989.1	955.818	-29760.8	0.000000	0.000000	6.046740	0.037156	NaN	0.000000	0.001687	0.001661	28.0795	0.009724	0.001950	4.987749	-167.839	-165.781	0.021070	0.045063	-1.123352	-1.124623	0.037156	4.987749	-1.128939	-1.225720E+15	-3.031377E-17	NaN
207	1.000000	0.090377	7.36707e+06	-48989.1	955.819	-29760.8	0.000000	0.000000	6.090781	-0.009017	NaN	0.000000	0.001721	0.001683	28.0792	0.061965	0.002101	29.4945	65.6414	-164.608	0.001421	0.089084	-1.079309	-1.080602	-0.009017	29.4945	-1.079080	-2.625168E+14	3.434775E-17	NaN
207	1.000000	0.134407	7.36707e+06	-48989.1	955.819	-29760.8	0.000000	0.000000	6.134811	0.002320	NaN	0.000000	0.001686	0.001682	28.078	0.038613	0.002034	18.9848	-102.15	-166.303	0.003944	0.133078	-1.035279	-1.036608	0.002320	18.9848	-1.035371	-6.787546E+13	-3.418406E-17	NaN
207	1.000000	0.178373	7.36707e+06	-48989.1	955.819	-29760.8	0.000000	0.000000	6.178778	0.016263	NaN	0.000000	0.001701	0.001649	28.078	0.073476	0.001882	39.0405	174.277	-169.008	0.008071	0.177061	-0.991313	-0.992625	0.016263	39.0405	-0.991626	-1.749863E+13	-9.293604E-16	NaN
207	1.000000	0.222412	7.36707e+06	-48989.1	955.818	-29760.8	0.000000	0.000000	6.222815	-0.037127	NaN	0.000000	0.001770	0.001632	28.0783	0.112124	0.001991	56.3143	-84.7982	-166.063	0.004116	0.221101	-0.947274	-0.948585	-0.037127	56.3143	-0.946779	-4.351015E+12	8.532924E-15	NaN
207	1.000000	0.266413	7.36707e+06	-48989.1	955.819	-29760.8	0.000000	0.000000	6.266816	-0.023742	NaN	0.000000	0.001756	0.001682	28.0791	0.076627	0.001942	39.4622	158.303	-165.302	-0.006044	0.265141	-0.903273	-0.904545	-0.023742	39.4622	-0.902822	-1.109658E+12	2.139584E-14	NaN
207	1.000000	0.310456	7.36707e+06	-48989.1	955.819	-29760.8	0.000000	0.000000	6.310859	-0.023021	NaN	0.000000	0.001718	0.001625	28.0791	0.037746	0.001910	19.7616	-143.359	-164.225	-0.031544	0.309157	-0.859230	-0.860529	-0.023021	19.7616	-0.858357	-2.778918E+11	8.284266E-14	NaN
207	1.000000	0.354480	7.36707e+06	-48989.1	955.819	-29760.8	0.000000	0.000000	6.354884	-0.000590	NaN	0.000000	0.001756	0.001650	28.0787	0.023963	0.001898	12.6238	31.2104	-162.205	0.055567	0.353111	-0.815206	-0.816575	-0.000590	12.6238	-0.815171	-7.223112E+10	8.166287E-15	NaN
207	1.000000	0.398467	7.36707e+06	-48989.1	955.818	-29760.8	0.000000	0.000000	6.398871	-0.003045	NaN	0.000000	0.001764	0.001698	28.0779	0.120838	0.002063	58.5636	-44.1673	-166.401	-0.038512	0.397203	-0.771219	-0.772483	-0.003045	58.5636	-0.771180	-1.825351E+10	1.668143E-13	NaN
207	1.000000	0.442531	7.36707e+06	-48989.1	955.82	-29760.8	0.000000	0.000000	6.442939	0.080704	NaN	0.000000	0.001653	0.001630	28.0774	0.010478	0.001898	5.522056	-136.631	-165.538	0.041824	0.441234	-0.727155	-0.728453	0.080704	5.522056	-0.738116	-6.477275E+9	-1.245956E-11	NaN
207	1.000000	0.486512	7.36707e+06	-48989.1	955.818	-29760.8	0.000000	0.000000	6.486918	0.054981	NaN	0.000000	0.001673	0.001679	28.0778	0.098083	0.001930	50.8316	-77.3675	-167.087	-0.036138	0.485220	-0.683174	-0.684466	0.054981	50.8316	-0.683985	-1.182220E+9	-4.650633E-11	NaN
207	1.000000	0.530526	7.36707e+06	-48989.1	955.819	-29760.8	0.000000	0.000000	6.530930	0.024432	NaN	0.000000	0.001736	0.001628	28.0776	0.044660	0.001953	22.8622	-123.88	-168.137	-0.075043	0.529229	-0.639161	-0.640458	0.024432	22.8622	-0.639962	-2.949641E+8	-8.282959E-11	NaN
207	1.000000	0.574605	7.36707e+06	-48989.1	955.819	-29760.8	0.000000	0.000000	6.575013	0.095570	NaN	0.000000	0.001759	0.001669	28.0787	0.019413	0.002028	9.570523	76.8095	-165.535	0.134660	0.573231	-0.595081	-0.596455	0.095570	9.570523	-0.602570	-9.033388E+7	-1.057959E-9	NaN
207	1.000000	0.618579	7.36707e+06	-48989.1	955.819	-29760.8	0.000000	0.000000	6.618982	-0.039613	NaN	0.000000	0.001728	0.001695	28.079	0.055197	0.001941	28.4373	103.523	-166.892	-0.004466	0.617307	-0.551107	-0.552379	-0.039613	28.4373	-0.550062	-1.701429E+7	2.328235E-9	NaN
207	1.000000	0.662609	7.36707e+06	-48989.1	955.819	-29760.8	0.000000	0.000000	6.663011	-0.045957	NaN	0.000000	0.001685	0.001676	28.0794	0.099777	0.002047	48.7503	102.543	-167.874	-0.030907	0.661226	-0.507077	-0.508460	-0.045957	48.7503	-0.506370	-4.20575e+06	1.092717E-8	NaN
207	1.000000	0.706643	7.36707e+06	-48989.1	955.818	-29760.8	0.000000	0.000000	6.707044	-0.057655	NaN	0.000000	0.001737	0.001628	28.0777	0.064351	0.002162	29.7627	-157.636	-164.052	0.015109	0.705347	-0.463043	-0.464339	-0.057655	29.7627	-0.461590	-993951	5.800584E-8	NaN
207	1.000000	0.750614	7.36707e+06	-48989.1	955.818	-29760.8	0.000000	0.000000	6.751016	-0.048061	NaN	0.000000	0.001684	0.001698	28.0778	0.040823	0.001985	20.5658	107.112	-165.485	-0.014032	0.749293	-0.419072	-0.420394	-0.048061	20.5658	-0.417320	-235715	2.038946E-7	NaN
207	1.000000	0.794674	7.36707e+06	-48989.1	955.818	-29760.8	0.000000	0.000000	6.795078	0.015945	NaN	0.000000	0.001698	0.001677	28.0779	0.095406	0.001853	51.4899	-91.1786	-166.634	0.022067	0.793322	-0.375012	-0.376365	0.015945	51.4899	-0.375244	-59099.8	-2.698038E-7	NaN
207	1.000000	0.838705	7.36707e+06	-48989.1	955.819	-29760.8	0.000000	0.000000	6.839110	0.022849	NaN	0.000000	0.001752	0.001684	28.0791	0.046854	0.001954	23.9748	146.388	-167.048	0.052340	0.837377	-0.330981	-0.332309	0.022849	23.9748	-0.331696	-13812.7	-1.654234E-6	NaN
207	1.000000	0.882717	7.36707e+06	-48989.1	955.818	-29760.8	0.000000	0.000000	6.883121	0.001298	NaN	0.000000	0.001722	0.001712	28.0793	0.057487	0.002041	28.161	-165.193	-166.543	0.077532	0.881382	-0.286969	-0.288304	0.001298	28.161	-0.287004	-3008.64	-4.312652E-7	NaN
207	1.000000	0.926710	7.36708e+06	-48989.1	955.818	-29760.8	0.000000	0.000000	6.927112	-0.047494	NaN	0.000000	0.001720	0.001733	28.0791	0.088722	0.002030	43.7112	155.929	-166.994	0.009026	0.925401	-0.242976	-0.244285	-0.047494	43.7112	-0.242161	-621.262	7.644698E-5	NaN
207	1.000000	0.970709	7.36708e+06	-48989.1	955.818	-29760.8	0.000000	0.000000	6.971112	-0.034645	NaN	0.000000	0.001721	0.001725	28.078	0.066099	0.001974	33.4827	-164.3	-166.959	-0.063498	0.969410	-0.198977	-0.200277	-0.034645	33.4827	-0.198201	-123.052	0.000282	NaN
207	1.000000	1.014770	7.36708e+06	-48989.1	955.819	-29760.8	0.000000	0.000000	7.015176	0.050482	NaN	0.000000	0.001714	0.001708	28.078	0.121476	0.002058	59.0134	145.197	-160.612	0.056978	1.013479	-0.154916	-0.156207	0.050482	59.0134	-0.155558	-22.8356	-0.002211	NaN
207	1.000000	1.058768	7.36708e+06	-48989.1	955.819	-29760.8	0.000000	0.000000	7.059170	-0.027566	NaN	0.000000	0.001734	0.001725	28.078	0.090552	0.002008	45.0943	-79.1151	-164.54	-0.055579	1.057484	-0.110919	-0.112202	-0.027566	45.0943	-0.110460	-3.073003	0.008970	NaN
207	1.000000	1.102796	7.36708e+06	-48989.1	955.82	-29760.8	0.000000	0.000000	7.103199	-0.003285	NaN	0.000000	0.001718	0.001680	28.0794	0.037641	0.002022	18.6138	123.807	-163.377	-0.006565	1.101506	-0.066890	-0.068180	-0.003285	18.6138	-0.066758	-0.278644	0.011790	NaN
207	1.000000	1.146820	7.36708e+06	-48989.1	955.82	-29760.8	0.000000	0.000000	7.147225	0.030411	NaN	0.000000	0.001749	0.001661	28.0797	0.039504	0.001931	20.4561	-74.4122	-170.789	0.025279	1.145487	-0.022866	-0.024199	0.030411	20.4561	-0.023981	-0.015873	-1.915889	NaN
207	2.000000	1.181422	7.36708e+06	-48989.1	955.819	-29760.8	0.000000	0.000000	7.182374	13.3134	NaN	0.000000	0.001714	0.001699	28.0791	12.2724	0.001690	7259.87	2.758669	-173.988	12.5785	1.181165	0.011736	0.011479	13.3134	7259.87	0.010361	0.009585	1388.92	67748
207	2.000000	1.192329	7.36708e+06	-48989.1	955.818	-29760.8	0.000000	0.000000	7.193976	30.2241	NaN	0.000000	0.001721	0.001693	28.0779	22.146	0.001774	12483.9	0.668726	-173.663	28.6725	1.192061	0.022643	0.022375	30.2241	12483.9	0.020827	0.023859	1266.8	73841.8
207	2.000000	1.203385	7.36708e+06	-48989.1	955.819	-29760.8	0.000000	0.000000	7.206022	54.3057	NaN	0.000000	0.001749	0.001698	28.078	32.071	0.001754	18280.9	3.717737	-179.399	56.3094	1.203033	0.033699	0.033347	54.3057	18280.9	0.031471	0.043848	1238.51	79762.3
207	2.000000	1.214304	7.36708e+06	-48989.1	955.819	-29760.8	0.000000	0.000000	7.218222	85.4495	NaN	0.000000	0.001738	0.001742	28.0784	43.0396	0.001793	24001.8	2.599633	178.518	84.8494	1.214082	0.044618	0.044396	85.4495	24001.8	0.041948	0.069160	1235.53	83385.1
207	2.000000	1.225283	7.36708e+06	-48989.1	955.818	-29760.8	0.000000	0.000000	7.231014	129.544	NaN	0.000000	0.001714	0.001738	28.0798	52.4272	0.001834	28582.7	6.443657	173.542	129.328	1.224967	0.055597	0.055281	129.544	28582.7	0.052198	0.099328	1304.2	82859.1
207	2.000000	1.236267	7.36708e+06	-48989.1	955.819	-29760.8	0.000000	0.000000	7.244131	181.446	NaN	0.000000	0.001767	0.001714	28.0795	62.6268	0.001763	35524.4	4.603915	173.204	178.752	1.235972	0.066581	0.066285	181.446	35524.4	0.062750	0.135854	1335.6	88056.9
207	2.000000	1.247272	7.36708e+06	-48989.1	955.82	-29760.8	0.000000	0.000000	7.257847	247.383	NaN	0.000000	0.001710	0.001715	28.0793	75.2944	0.001853	40639.1	1.435133	176.119	245.4	1.246983	0.077586	0.077297	247.383	40639.1	0.073020	0.176591	1400.89	88355.4
207	2.000000	1.258206	7.36708e+06	-48989.1	955.821	-29760.8	0.000000	0.000000	7.271715	318.731	NaN	0.000000	0.001701	0.001709	28.0779	86.4105	0.001834	47127.9	6.058721	169.773	314.283	1.257894	0.088520	0.088208	318.731	47127.9	0.083447	0.223051	1428.96	91169.4
207	2.000000	1.269260	7.36708e+06	-48989.1	955.819	-29760.8	0.000000	0.000000	7.286421	407.548	NaN	0.000000	0.001746	0.001694	28.0777	97.1825	0.001797	54076.9	6.896068	168.303	407.009	1.268952	0.099574	0.099266	407.548	54076.9	0.093922	0.274791	1483.12	94250.4
207	2.000000	1.276667	7.36708e+06	-48989.1	955.819	-29760.8	0.000000	0.000000	7.296351	468.915	NaN	0.000000	0.001685	0.001729	28.0776	102.788	0.001622	63351.9	3.453605	-9.583513	461.528	1.276438	0.106980	0.106752	468.915	63351.9	0.101429	0.314964	1488.79	103134

File: 2025-07-22_16-23-58_1_208.txt
2025-07-22, 16:23:58, 1
Index	Phase	Displacement	Time	Pos X	Pos Y	Pos Z	Rot A	Rot B	Piezo Z	Force A	Force B	Gripper	Voltage A	Voltage B	Temperature	Amplitude force	Amplitude pos	Stiffness	Phase shift	Phase excitation	Force A raw	Displacement raw	HMax	HMax raw	Real Force	Real Stiffness	Contact Depth	Area	Hardness	Reduced Mod.
[#]	[#]	[um]	[s]	[um]	[um]	[um]	[m°]	[m°]	[um]	[uN]	[uN]	[V]	[V]	[V]	[°C]	[uN]	[um]	[N/m]	[°]	[°]	[uN]	[um]	[um]	[um]	[uN]	[N/m]	[um]	[um^2]	[MPa]	[MPa]
208	1.000000	0.002242	7.36708e+06	-49039.1	955.816	-29760.8	0.000000	0.000000	6.002814	0.026969	NaN	0.000000	0.001741	0.001700	28.079	0.047018	0.001175	40.0083	150.744	-171.062	-0.054983	0.000976	-0.962908	-0.964174	0.026969	40.0083	-0.963414	-7.292786E+12	-3.698037E-15	NaN
208	1.000000	0.040178	7.36708e+06	-49039.1	955.819	-29760.8	0.000000	0.000000	6.040751	0.036050	NaN	0.000000	0.001684	0.001729	28.0786	0.069509	0.001997	34.8036	-111.635	15.5565	0.037640	0.038804	-0.924972	-0.926346	0.036050	34.8036	-0.925749	-2.263691E+12	-1.592538E-14	NaN
208	1.000000	0.078187	7.36708e+06	-49039.1	955.818	-29760.8	0.000000	0.000000	6.078761	0.067211	NaN	0.000000	0.001690	0.001642	28.0777	0.104748	0.002031	51.5631	-42.7036	-163.322	-0.019479	0.076929	-0.886963	-0.888221	0.067211	51.5631	-0.887941	-6.983625E+11	-9.624017E-14	NaN
208	1.000000	0.116237	7.36708e+06	-49039.1	955.818	-29760.8	0.000000	0.000000	6.116807	-0.017428	NaN	0.000000	0.001641	0.001677	28.0778	0.089251	0.002027	44.0262	97.2426	13.3003	0.023041	0.114849	-0.848913	-0.850301	-0.017428	44.0262	-0.848616	-2.051155E+11	8.496861E-14	NaN
208	1.000000	0.154203	7.36708e+06	-49039.1	955.818	-29760.8	0.000000	0.000000	6.154773	-0.015525	NaN	0.000000	0.001737	0.001664	28.0777	0.159409	0.002088	76.3457	-72.5716	-162.878	0.024559	0.152952	-0.810948	-0.812198	-0.015525	76.3457	-0.810795	-6.300244E+10	2.464133E-13	NaN
208	1.000000	0.192212	7.36708e+06	-49039.1	955.819	-29760.8	0.000000	0.000000	6.192783	-0.006583	NaN	0.000000	0.001680	0.001669	28.0788	0.012657	0.001747	7.246937	-7.636651	15.4976	-0.086966	0.190884	-0.772938	-0.774266	-0.006583	7.246937	-0.772256	-1.887917E+10	3.487044E-13	NaN
208	1.000000	0.230239	7.36708e+06	-49039.1	955.819	-29760.8	0.000000	0.000000	6.230811	0.020442	NaN	0.000000	0.001715	0.001679	28.079	0.069456	0.002070	33.5544	16.1493	-168.413	0.010869	0.228914	-0.734911	-0.736236	0.020442	33.5544	-0.735368	-5.942393E+9	-3.439970E-12	NaN
208	1.000000	0.268290	7.36708e+06	-49039.1	955.818	-29760.8	0.000000	0.000000	6.268859	-0.062946	NaN	0.000000	0.001695	0.001690	28.0789	0.059606	0.002172	27.445	-3.812784	13.9263	-0.001671	0.266934	-0.696860	-0.698216	-0.062946	27.445	-0.695140	-1.679367E+9	3.748209E-11	NaN
208	1.000000	0.306289	7.36708e+06	-49039.1	955.819	-29760.8	0.000000	0.000000	6.306858	-0.050647	NaN	0.000000	0.001670	0.001679	28.0792	0.096323	0.002009	47.9371	65.7129	-165.014	-0.009507	0.304995	-0.658861	-0.660156	-0.050647	47.9371	-0.658068	-5.224073E+8	9.694962E-11	NaN
208	1.000000	0.344288	7.36708e+06	-49039.1	955.819	-29760.8	0.000000	0.000000	6.344862	0.054058	NaN	0.000000	0.001689	0.001632	28.0778	0.067766	0.002092	32.3876	64.028	14.2541	0.089292	0.342949	-0.620862	-0.622201	0.054058	32.3876	-0.622113	-1.677569E+8	-3.222390E-10	NaN
208	1.000000	0.382318	7.36708e+06	-49039.1	955.818	-29760.8	0.000000	0.000000	6.382892	0.062563	NaN	0.000000	0.001745	0.001703	28.0782	0.026939	0.001987	13.5549	-107.633	-161.003	0.018016	0.381031	-0.582832	-0.584119	0.062563	13.5549	-0.586293	-5.389560E+7	-1.160825E-9	NaN
208	1.000000	0.420339	7.36708e+06	-49039.1	955.817	-29760.8	0.000000	0.000000	6.420911	0.020534	NaN	0.000000	0.001716	0.001675	28.0778	0.075656	0.001898	39.8651	98.4949	15.05	-0.021176	0.418951	-0.544811	-0.546199	0.020534	39.8651	-0.545197	-1.456841E+7	-1.409485E-9	NaN
208	1.000000	0.458353	7.36708e+06	-49039.1	955.818	-29760.8	0.000000	0.000000	6.458923	-0.028990	NaN	0.000000	0.001670	0.001735	28.079	0.050315	0.001877	26.804	165.632	-164.228	-0.064104	0.457057	-0.506797	-0.508093	-0.028990	26.804	-0.505986	-4.15423e+06	6.978396E-9	NaN
208	1.000000	0.496383	7.36708e+06	-49039.1	955.819	-29760.8	0.000000	0.000000	6.496954	0.005276	NaN	0.000000	0.001651	0.001724	28.0793	0.071117	0.001978	35.9492	158.428	15.9408	0.020414	0.495006	-0.468767	-0.470144	0.005276	35.9492	-0.468878	-1.25795e+06	-4.194173E-9	NaN
208	1.000000	0.534364	7.36708e+06	-49039.1	955.819	-29760.8	0.000000	0.000000	6.534934	-0.019898	NaN	0.000000	0.001698	0.001748	28.079	0.071482	0.002045	34.9481	-99.418	-166.386	-0.114824	0.533132	-0.430786	-0.432018	-0.019898	34.9481	-0.430359	-360699	5.516630E-8	NaN
208	1.000000	0.572416	7.36708e+06	-49039.1	955.819	-29760.8	0.000000	0.000000	6.572984	-0.080028	NaN	0.000000	0.001645	0.001773	28.079	0.036147	0.002003	18.0449	-130.877	13.8004	0.014355	0.571027	-0.392734	-0.394124	-0.080028	18.0449	-0.389408	-94340.7	8.482859E-7	NaN
208	1.000000	0.610394	7.36708e+06	-49039.1	955.819	-29760.8	0.000000	0.000000	6.610961	-0.098778	NaN	0.000000	0.001640	0.001752	28.0776	0.089453	0.001947	45.9404	-172.764	-161.715	-0.006323	0.609123	-0.354756	-0.356027	-0.098778	45.9404	-0.353143	-28352.7	3.483894E-6	NaN
208	1.000000	0.648430	7.36708e+06	-49039.1	955.818	-29760.8	0.000000	0.000000	6.649002	0.018334	NaN	0.000000	0.001705	0.001706	28.0776	0.019257	0.001937	9.941010	163.247	13.2261	0.005211	0.647073	-0.316720	-0.318078	0.018334	9.941010	-0.318103	-8723.79	-2.101601E-6	NaN
208	1.000000	0.686458	7.36708e+06	-49039.1	955.819	-29760.8	0.000000	0.000000	6.687033	0.086087	NaN	0.000000	0.001719	0.001790	28.0772	0.049613	0.002036	24.367	-122.623	-166.576	0.017039	0.685113	-0.278692	-0.280037	0.086087	24.367	-0.281341	-2472.85	-3.481274E-5	NaN
208	1.000000	0.724497	7.36708e+06	-49039.1	955.819	-29760.8	0.000000	0.000000	6.725069	0.017125	NaN	0.000000	0.001716	0.001737	28.0786	0.093699	0.001843	50.844	-54.1653	14.5557	0.072195	0.723083	-0.240653	-0.242068	0.017125	50.844	-0.240906	-593.876	-2.883588E-5	NaN
208	1.000000	0.762492	7.36708e+06	-49039.1	955.818	-29760.8	0.000000	0.000000	6.763063	-0.000726	NaN	0.000000	0.001642	0.001670	28.0788	0.117982	0.002124	55.5384	-178.904	-163.202	-0.024655	0.761207	-0.202658	-0.203943	-0.000726	55.5384	-0.202648	-145.591	4.988007E-6	NaN
208	1.000000	0.800523	7.36708e+06	-49039.1	955.818	-29760.8	0.000000	0.000000	6.801095	0.019806	NaN	0.000000	0.001659	0.001644	28.0791	0.029194	0.002029	14.3882	-7.751846	17.2291	0.056524	0.799158	-0.164627	-0.165992	0.019806	14.3882	-0.165660	-34.5049	-0.000574	NaN
208	1.000000	0.838542	7.36708e+06	-49039.1	955.818	-29760.8	0.000000	0.000000	6.839112	-0.014056	NaN	0.000000	0.001655	0.001665	28.0789	0.071699	0.002083	34.4227	-169.679	-163.262	-0.003474	0.837210	-0.126608	-0.127940	-0.014056	34.4227	-0.126302	-6.452038	0.002179	NaN
208	1.000000	0.876531	7.36708e+06	-49039.1	955.818	-29760.8	0.000000	0.000000	6.877101	-0.017577	NaN	0.000000	0.001646	0.001682	28.0775	0.144094	0.002267	63.5598	165.48	16.5691	0.037080	0.875165	-0.088619	-0.089985	-0.017577	63.5598	-0.088412	-0.991696	0.017724	NaN
208	1.000000	0.914532	7.36708e+06	-49039.1	955.818	-29760.8	0.000000	0.000000	6.915101	-0.033945	NaN	0.000000	0.001650	0.001668	28.0776	0.073441	0.002098	35.0052	-32.6087	-162.686	0.044782	0.913273	-0.050618	-0.051877	-0.033945	35.0052	-0.049891	-0.090561	0.374829	NaN
208	1.000000	0.952547	7.36709e+06	-49039.1	955.818	-29760.8	0.000000	0.000000	6.953142	0.579067	NaN	0.000000	0.001660	0.001671	28.0777	0.594663	0.001952	304.695	14.0727	13.3087	0.355606	0.951213	-0.012603	-0.013937	0.579067	304.695	-0.014028	-0.008700	-66.5604	NaN
208	2.000000	0.987288	7.36709e+06	-49039.1	955.819	-29760.8	0.000000	0.000000	6.988187	7.959584	NaN	0.000000	0.001560	0.001678	28.0778	8.091336	0.001685	4801.62	3.141295	-167.711	7.949946	0.986960	0.022138	0.021810	7.959584	4801.62	0.020895	0.023968	332.094	28336.5
208	2.000000	0.996715	7.36709e+06	-49039.1	955.819	-29760.8	0.000000	0.000000	6.998164	21.3484	NaN	0.000000	0.001595	0.001659	28.0792	17.8672	0.001816	9839.85	7.938340	4.321349	22.2465	0.996435	0.031565	0.031285	21.3484	9839.85	0.029938	0.040616	525.62	44608.2
208	2.000000	1.006202	7.36709e+06	-49039.1	955.819	-29760.8	0.000000	0.000000	7.008461	41.0434	NaN	0.000000	0.001577	0.001689	28.0791	27.1813	0.001836	14806.8	8.351718	-179.461	40.9598	1.005818	0.041052	0.040668	41.0434	14806.8	0.038973	0.061402	668.44	54594
208	2.000000	1.015609	7.36709e+06	-49039.1	955.82	-29760.8	0.000000	0.000000	7.019127	71.663	NaN	0.000000	0.001700	0.001705	28.0798	36.5184	0.001747	20907.2	7.011357	-3.315778	69.4395	1.015328	0.050459	0.050178	71.663	20907.2	0.047888	0.085998	833.308	65136.6
208	2.000000	1.025102	7.36709e+06	-49039.1	955.819	-29760.8	0.000000	0.000000	7.030134	108.496	NaN	0.000000	0.001731	0.001653	28.0776	44.1963	0.001712	25823	3.597970	177.977	106.809	1.024791	0.059952	0.059641	108.496	25823	0.056800	0.114586	946.85	69697.2
208	2.000000	1.034586	7.36709e+06	-49039.1	955.819	-29760.8	0.000000	0.000000	7.041354	150.711	NaN	0.000000	0.001713	0.001710	28.0777	53.3135	0.001764	30229.6	0.984408	0.335961	147.95	1.034274	0.069436	0.069124	150.711	30229.6	0.065697	0.147026	1025.07	72029.3
208	2.000000	1.044120	7.36709e+06	-49039.1	955.82	-29760.8	0.000000	0.000000	7.052899	199.635	NaN	0.000000	0.001620	0.001687	28.0777	62.9746	0.001826	34480.6	4.752065	175.208	198.75	1.043735	0.078969	0.078585	199.635	34480.6	0.074627	0.183418	1088.41	73557.5
208	2.000000	1.053605	7.36709e+06	-49039.1	955.82	-29760.8	0.000000	0.000000	7.064413	248.978	NaN	0.000000	0.001667	0.001691	28.0775	69.6711	0.001707	40822	0.543517	-1.959598	247.507	1.053339	0.088455	0.088189	248.978	40822	0.083881	0.225091	1106.12	78612.1
208	2.000000	1.063082	7.36709e+06	-49039.1	955.82	-29760.8	0.000000	0.000000	7.076556	313.817	NaN	0.000000	0.001682	0.001678	28.0789	80.5096	0.001857	43346.9	3.215598	175.48	312.408	1.062741	0.097932	0.097591	313.817	43346.9	0.092502	0.267483	1173.22	76574.3
208	2.000000	1.072571	7.36709e+06	-49039.1	955.819	-29760.8	0.000000	0.000000	7.088956	384.612	NaN	0.000000	0.001693	0.001665	28.0791	89.0565	0.001831	48638.4	6.549814	-8.748069	382.445	1.072372	0.107421	0.107222	384.612	48638.4	0.101490	0.315300	1219.83	79138.9
208	2.000000	1.081944	7.36709e+06	-49039.1	955.819	-29760.8	0.000000	0.000000	7.101548	462.902	NaN	0.000000	0.001681	0.001683	28.0794	95.9458	0.001913	50152.8	1.853770	176.276	456.591	1.081601	0.116794	0.116450	462.902	50152.8	0.109871	0.363195	1274.52	76032.4
208	2.000000	1.084544	7.36709e+06	-49039.1	955.82	-29760.8	0.000000	0.000000	7.104683	475.915	NaN	0.000000	0.001648	0.001710	28.0791	99.4184	0.001759	56524.8	6.847320	-9.970596	472.825	1.084222	0.119394	0.119072	475.915	56524.8	0.113079	0.382371	1244.64	83515.9