Folder: unikorn_login/remote_trans/data/nanoindenter/0828-1/data/Data_2025-08-06,11h17m57s (part 65)

File: 2025-07-22_16-23-58_1_147.txt
2025-07-22, 16:23:58, 1
Index	Phase	Displacement	Time	Pos X	Pos Y	Pos Z	Rot A	Rot B	Piezo Z	Force A	Force B	Gripper	Voltage A	Voltage B	Temperature	Amplitude force	Amplitude pos	Stiffness	Phase shift	Phase excitation	Force A raw	Displacement raw	HMax	HMax raw	Real Force	Real Stiffness	Contact Depth	Area	Hardness	Reduced Mod.
[#]	[#]	[um]	[s]	[um]	[um]	[um]	[m°]	[m°]	[um]	[uN]	[uN]	[V]	[V]	[V]	[°C]	[uN]	[um]	[N/m]	[°]	[°]	[uN]	[um]	[um]	[um]	[uN]	[N/m]	[um]	[um^2]	[MPa]	[MPa]
147	1.000000	0.002596	7.36648e+06	-45989.1	955.818	-29771	0.000000	0.000000	6.002821	0.000868	NaN	0.000000	0.001671	0.001690	28.0874	0.069701	0.000981	71.0441	-171.184	-165.494	-0.018421	0.001344	-1.157457	-1.158709	0.000868	71.0441	-1.157467	-2.957420E+15	-2.935554E-19	NaN
147	1.000000	0.044547	7.36648e+06	-45989.1	955.819	-29771	0.000000	0.000000	6.044776	0.091074	NaN	0.000000	0.001617	0.001657	28.0825	0.090359	0.002001	45.1619	-60.3528	17.3531	0.031006	0.043207	-1.115506	-1.116846	0.091074	45.1619	-1.117018	-8.481399E+14	-1.073803E-16	NaN
147	1.000000	0.086541	7.36648e+06	-45989.1	955.818	-29771	0.000000	0.000000	6.086770	0.072389	NaN	0.000000	0.001617	0.001669	28.1114	0.045635	0.002230	20.4597	116.067	-163.357	0.011513	0.085234	-1.073512	-1.074819	0.072389	20.4597	-1.076166	-2.398921E+14	-3.017552E-16	NaN
147	1.000000	0.128552	7.36648e+06	-45989.1	955.818	-29771	0.000000	0.000000	6.128779	0.047355	NaN	0.000000	0.001599	0.001642	28.127	0.059911	0.002045	29.2988	93.9597	13.0369	0.011750	0.127150	-1.031502	-1.032903	0.047355	29.2988	-1.032714	-6.251450E+13	-7.574998E-16	NaN
147	1.000000	0.170572	7.36648e+06	-45989.1	955.818	-29771	0.000000	0.000000	6.170800	0.040960	NaN	0.000000	0.001625	0.001717	28.0861	0.145886	0.001937	75.3234	154.503	-164.971	-0.034959	0.169293	-0.989481	-0.990760	0.040960	75.3234	-0.989889	-1.658100E+13	-2.470287E-15	NaN
147	1.000000	0.212576	7.36648e+06	-45989.1	955.818	-29771	0.000000	0.000000	6.212802	0.004276	NaN	0.000000	0.001603	0.001749	28.0828	0.048962	0.001925	25.43	-58.7432	15.1463	0.069531	0.211202	-0.947477	-0.948851	0.004276	25.43	-0.947603	-4.463739E+12	-9.579728E-16	NaN
147	1.000000	0.254615	7.36648e+06	-45989.1	955.818	-29771	0.000000	0.000000	6.254841	0.013761	NaN	0.000000	0.001579	0.001740	28.1119	0.010150	0.001957	5.186246	5.225940	-162.773	-0.068726	0.253328	-0.905438	-0.906725	0.013761	5.186246	-0.907428	-1.280638E+12	-1.074557E-14	NaN
147	1.000000	0.296621	7.36648e+06	-45989.1	955.818	-29771	0.000000	0.000000	6.296849	0.049600	NaN	0.000000	0.001576	0.001768	28.1288	0.101135	0.001977	51.1508	26.7983	14.7301	0.010537	0.295309	-0.863432	-0.864744	0.049600	51.1508	-0.864159	-3.329753E+11	-1.489609E-13	NaN
147	1.000000	0.338658	7.36648e+06	-45989.1	955.819	-29771	0.000000	0.000000	6.338884	0.009097	NaN	0.000000	0.001592	0.001767	28.0874	0.096703	0.002298	42.0867	3.465748	-164.426	0.032169	0.337341	-0.821395	-0.822712	0.009097	42.0867	-0.821557	-8.817127E+10	-1.031700E-13	NaN
147	1.000000	0.380685	7.36648e+06	-45989.1	955.818	-29771	0.000000	0.000000	6.380909	-0.022895	NaN	0.000000	0.001558	0.001775	28.0799	0.088492	0.002000	44.2367	58.7188	15.6845	0.028453	0.379332	-0.779368	-0.780721	-0.022895	44.2367	-0.778980	-2.330096E+10	9.825593E-13	NaN
147	1.000000	0.422654	7.36648e+06	-45989.1	955.818	-29771	0.000000	0.000000	6.422881	0.019087	NaN	0.000000	0.001590	0.001751	28.1102	0.035822	0.001886	18.9889	-26.4125	-165.486	0.001525	0.421339	-0.737399	-0.738714	0.019087	18.9889	-0.738153	-6.484724E+9	-2.943388E-12	NaN
147	1.000000	0.464687	7.36648e+06	-45989.1	955.818	-29771	0.000000	0.000000	6.464913	0.012561	NaN	0.000000	0.001592	0.001778	28.1267	0.104342	0.001945	53.6325	140.474	10.5665	-0.037312	0.463358	-0.695367	-0.696695	0.012561	53.6325	-0.695542	-1.700761E+9	-7.385600E-12	NaN
147	1.000000	0.506707	7.36648e+06	-45989.1	955.818	-29771	0.000000	0.000000	6.506932	-0.028817	NaN	0.000000	0.001573	0.001761	28.0898	0.072129	0.002006	35.9646	136.844	-165.795	-0.044149	0.505444	-0.653346	-0.654609	-0.028817	35.9646	-0.652745	-4.416304E+8	6.525245E-11	NaN
147	1.000000	0.548732	7.36648e+06	-45989.1	955.819	-29771	0.000000	0.000000	6.548956	-0.038288	NaN	0.000000	0.001664	0.001763	28.0825	0.081167	0.002154	37.6738	-135.408	15.9503	-0.063484	0.547413	-0.611321	-0.612640	-0.038288	37.6738	-0.610559	-1.163609E+8	3.290418E-10	NaN
147	1.000000	0.590748	7.36648e+06	-45989.1	955.819	-29771	0.000000	0.000000	6.590975	0.014393	NaN	0.000000	0.001667	0.001754	28.1097	0.157213	0.002106	74.6502	-35.3185	-164.979	0.035101	0.589469	-0.569305	-0.570584	0.014393	74.6502	-0.569449	-3.155160E+7	-4.561694E-10	NaN
147	1.000000	0.632762	7.36648e+06	-45989.1	955.82	-29771	0.000000	0.000000	6.632987	0.006520	NaN	0.000000	0.001640	0.001798	28.1276	0.116148	0.002016	57.611	48.1394	15.7391	0.048876	0.631406	-0.527291	-0.528647	0.006520	57.611	-0.527376	-8.24385e+06	-7.908401E-10	NaN
147	1.000000	0.674766	7.36648e+06	-45989.1	955.817	-29771	0.000000	0.000000	6.674991	0.001397	NaN	0.000000	0.001591	0.001801	28.0891	0.028227	0.001969	14.3345	-73.4129	-166.144	0.043893	0.673434	-0.485287	-0.486619	0.001397	14.3345	-0.485360	-2.14057e+06	-6.526482E-10	NaN
147	1.000000	0.716818	7.36648e+06	-45989.1	955.818	-29771	0.000000	0.000000	6.717045	0.025064	NaN	0.000000	0.001642	0.001771	28.0787	0.127245	0.002051	62.0399	-84.6076	17.1324	-0.011377	0.715404	-0.443235	-0.444649	0.025064	62.0399	-0.443538	-553700	-4.526605E-8	NaN
147	1.000000	0.758842	7.36648e+06	-45989.1	955.818	-29771	0.000000	0.000000	6.759068	0.016687	NaN	0.000000	0.001648	0.001782	28.1092	0.091360	0.002005	45.5609	128.638	-165.653	-0.048475	0.757540	-0.401211	-0.402513	0.016687	45.5609	-0.401486	-140339	-1.189035E-7	NaN
147	1.000000	0.800854	7.36648e+06	-45989.1	955.819	-29771	0.000000	0.000000	6.801083	0.088328	NaN	0.000000	0.001552	0.001793	28.128	0.060435	0.001984	30.4611	3.688387	12.2288	0.129336	0.799429	-0.359199	-0.360624	0.088328	30.4611	-0.361374	-37299.4	-2.368080E-6	NaN
147	1.000000	0.842877	7.36648e+06	-45989.1	955.818	-29771	0.000000	0.000000	6.843106	0.071763	NaN	0.000000	0.001585	0.001816	28.0913	0.024609	0.001936	12.7093	173.99	-166.361	0.041461	0.841566	-0.317176	-0.318487	0.071763	12.7093	-0.321411	-9758.73	-7.353696E-6	NaN
147	1.000000	0.884873	7.36648e+06	-45989.1	955.818	-29771	0.000000	0.000000	6.885101	0.041136	NaN	0.000000	0.001533	0.001738	28.0804	0.058518	0.002214	26.4272	-92.9155	15.7881	0.044143	0.883522	-0.275180	-0.276532	0.041136	26.4272	-0.276347	-2078.67	-1.978948E-5	NaN
147	1.000000	0.926908	7.36648e+06	-45989.1	955.819	-29771	0.000000	0.000000	6.927130	-0.076172	NaN	0.000000	0.001561	0.001781	28.1074	0.084992	0.001954	43.4941	-64.3928	-166.92	-0.057635	0.925547	-0.233145	-0.234506	-0.076172	43.4941	-0.231831	-427.964	0.000178	NaN
147	1.000000	0.968936	7.36648e+06	-45989.1	955.818	-29771	0.000000	0.000000	6.969163	0.029092	NaN	0.000000	0.001585	0.001716	28.1277	0.022348	0.002017	11.0795	-160.058	15.8643	0.026855	0.967550	-0.191117	-0.192504	0.029092	11.0795	-0.193086	-101.264	-0.000287	NaN
147	1.000000	1.010911	7.36648e+06	-45989.1	955.818	-29771	0.000000	0.000000	7.011137	0.024667	NaN	0.000000	0.001542	0.001753	28.0907	0.089900	0.001923	46.7493	12.8058	-168.919	0.032898	1.009618	-0.149142	-0.150435	0.024667	46.7493	-0.149538	-17.7655	-0.001389	NaN
147	1.000000	1.052904	7.36648e+06	-45989.1	955.819	-29771	0.000000	0.000000	7.053131	0.049378	NaN	0.000000	0.001553	0.001725	28.0809	0.066921	0.001972	33.9385	-24.8576	11.2675	-0.077202	1.051608	-0.107149	-0.108445	0.049378	33.9385	-0.108240	-2.758124	-0.017903	NaN
147	1.000000	1.094933	7.36648e+06	-45989.1	955.818	-29771	0.000000	0.000000	7.095157	-0.048636	NaN	0.000000	0.001546	0.001751	28.1073	0.035377	0.001864	18.975	-40.8801	-167.377	0.002503	1.093638	-0.065120	-0.066415	-0.048636	18.975	-0.063197	-0.221954	0.219128	NaN
147	1.000000	1.136979	7.36648e+06	-45989.1	955.819	-29771	0.000000	0.000000	7.137205	0.025753	NaN	0.000000	0.001577	0.001771	28.1295	0.102435	0.002015	50.8341	-159.312	14.7568	0.073710	1.135640	-0.023075	-0.024413	0.025753	50.8341	-0.023454	-0.015384	-1.673980	NaN
147	2.000000	1.171585	7.36648e+06	-45989.1	955.819	-29771	0.000000	0.000000	7.172253	10.7764	NaN	0.000000	0.001614	0.001709	28.0905	11.1335	0.001710	6510.82	9.640516	-177.422	10.7113	1.171230	0.011532	0.011177	10.7764	6510.82	0.010290	0.009506	1133.64	61011.2
147	2.000000	1.182039	7.36648e+06	-45989.1	955.818	-29771	0.000000	0.000000	7.183548	31.2297	NaN	0.000000	0.001616	0.001739	28.0813	22.2801	0.001901	11721.2	8.661293	0.133415	32.6741	1.181630	0.021986	0.021577	31.2297	11721.2	0.019987	0.022523	1386.6	71357
147	2.000000	1.192470	7.36648e+06	-45989.1	955.818	-29771	0.000000	0.000000	7.195397	65.7218	NaN	0.000000	0.001656	0.001761	28.1051	30.8147	0.001809	17037.4	0.579801	-175.406	64.5589	1.192167	0.032417	0.032114	65.7218	17037.4	0.029524	0.039763	1652.84	78061.5
147	2.000000	1.202937	7.36648e+06	-45989.1	955.819	-29771	0.000000	0.000000	7.207326	101.288	NaN	0.000000	0.001628	0.001737	28.1309	38.9295	0.001630	23889.9	1.600902	-0.407550	98.8507	1.202663	0.042884	0.042610	101.288	23889.9	0.039704	0.063266	1600.97	86776.1
147	2.000000	1.213460	7.36648e+06	-45989.1	955.818	-29771	0.000000	0.000000	7.219767	147.947	NaN	0.000000	0.001600	0.001781	28.0911	50.3644	0.001780	28290.5	3.438163	176.966	146.817	1.213057	0.053406	0.053004	147.947	28290.5	0.049484	0.090826	1628.91	85764.7
147	2.000000	1.223956	7.36648e+06	-45989.1	955.82	-29771	0.000000	0.000000	7.232144	193.695	NaN	0.000000	0.001563	0.001745	28.082	61.718	0.001848	33391.4	7.735807	-9.096461	192.679	1.223584	0.063903	0.063531	193.695	33391.4	0.059552	0.124208	1559.44	86563.1
147	2.000000	1.234410	7.36648e+06	-45989.1	955.819	-29771	0.000000	0.000000	7.245028	252.82	NaN	0.000000	0.001591	0.001734	28.1034	70.2122	0.001829	38382.3	3.881333	173.601	252.43	1.234062	0.074356	0.074009	252.82	38382.3	0.069416	0.161722	1563.3	87200.8
147	2.000000	1.244796	7.36648e+06	-45989.1	955.82	-29771	0.000000	0.000000	7.257928	313.969	NaN	0.000000	0.001524	0.001777	28.1313	78.5296	0.001819	43161.4	3.954516	-6.937498	308.491	1.244569	0.084743	0.084516	313.969	43161.4	0.079287	0.203906	1539.77	87328.1
147	2.000000	1.255313	7.36648e+06	-45989.1	955.819	-29771	0.000000	0.000000	7.271383	385.434	NaN	0.000000	0.001585	0.001743	28.0916	89.0609	0.001834	48565.9	7.656415	168.598	381.964	1.255006	0.095260	0.094953	385.434	48565.9	0.089307	0.251376	1533.29	88499.7
147	2.000000	1.265795	7.36648e+06	-45989.1	955.819	-29771	0.000000	0.000000	7.284976	461.11	NaN	0.000000	0.001548	0.001765	28.0807	97.0548	0.001819	53367.2	3.148695	-7.802307	454.166	1.265543	0.105742	0.105490	461.11	53367.2	0.099262	0.303104	1521.29	88563
147	2.000000	1.267308	7.36648e+06	-45989.1	955.82	-29771	0.000000	0.000000	7.286670	465.521	NaN	0.000000	0.001537	0.001730	28.0931	99.5035	0.001798	55351.9	1.571378	173.061	460.266	1.267069	0.107255	0.107016	465.521	55351.9	0.100947	0.312306	1490.59	90493.1

File: 2025-07-22_16-23-58_1_148.txt
2025-07-22, 16:23:58, 1
Index	Phase	Displacement	Time	Pos X	Pos Y	Pos Z	Rot A	Rot B	Piezo Z	Force A	Force B	Gripper	Voltage A	Voltage B	Temperature	Amplitude force	Amplitude pos	Stiffness	Phase shift	Phase excitation	Force A raw	Displacement raw	HMax	HMax raw	Real Force	Real Stiffness	Contact Depth	Area	Hardness	Reduced Mod.
[#]	[#]	[um]	[s]	[um]	[um]	[um]	[m°]	[m°]	[um]	[uN]	[uN]	[V]	[V]	[V]	[°C]	[uN]	[um]	[N/m]	[°]	[°]	[uN]	[um]	[um]	[um]	[uN]	[N/m]	[um]	[um^2]	[MPa]	[MPa]
148	1.000000	0.002381	7.36649e+06	-46039.1	955.818	-29770.9	0.000000	0.000000	6.002731	0.046863	NaN	0.000000	0.001571	0.001735	28.0994	0.053766	0.001007	53.3661	-9.671003	174.595	0.031107	0.001148	-1.069808	-1.071041	0.046863	53.3661	-1.070467	-2.011211E+14	-2.330094E-16	NaN
148	1.000000	0.042350	7.36649e+06	-46039.1	955.818	-29770.9	0.000000	0.000000	6.042699	0.023463	NaN	0.000000	0.001608	0.001736	28.1004	0.057544	0.001864	30.8727	62.1714	177.542	-0.053950	0.041000	-1.029839	-1.031189	0.023463	30.8727	-1.030409	-5.820713E+13	-4.030992E-16	NaN
148	1.000000	0.082337	7.36649e+06	-46039.1	955.818	-29770.9	0.000000	0.000000	6.082687	0.050203	NaN	0.000000	0.001636	0.001742	28.098	0.062125	0.001887	32.9181	74.2049	172.62	0.003131	0.081034	-0.989852	-0.991154	0.050203	32.9181	-0.990996	-1.716024E+13	-2.925540E-15	NaN
148	1.000000	0.122406	7.36649e+06	-46039.1	955.818	-29770.9	0.000000	0.000000	6.122753	-0.035690	NaN	0.000000	0.001603	0.001782	28.0996	0.124093	0.001986	62.4691	-74.9015	173.051	-0.015533	0.121053	-0.949783	-0.951136	-0.035690	62.4691	-0.949354	-4.713212E+12	7.572374E-15	NaN
148	1.000000	0.162364	7.36649e+06	-46039.1	955.818	-29770.9	0.000000	0.000000	6.162714	0.065762	NaN	0.000000	0.001582	0.001795	28.0988	0.037260	0.001963	18.9803	49.2894	-179.699	0.041690	0.161092	-0.909825	-0.911096	0.065762	18.9803	-0.912424	-1.495877E+12	-4.396189E-14	NaN
148	1.000000	0.202411	7.36649e+06	-46039.1	955.818	-29770.9	0.000000	0.000000	6.202760	0.023423	NaN	0.000000	0.001576	0.001773	28.1	0.180399	0.001938	93.0675	-27.8127	173.509	0.042468	0.201131	-0.869778	-0.871057	0.023423	93.0675	-0.869967	-3.990184E+11	-5.870096E-14	NaN
148	1.000000	0.242400	7.36649e+06	-46039.1	955.818	-29770.9	0.000000	0.000000	6.242747	-0.026182	NaN	0.000000	0.001563	0.001773	28.0988	0.090623	0.002034	44.5565	-79.1424	177.618	-0.036177	0.241093	-0.829789	-0.831095	-0.026182	44.5565	-0.829348	-1.124479E+11	2.328381E-13	NaN
148	1.000000	0.282439	7.36649e+06	-46039.1	955.818	-29770.9	0.000000	0.000000	6.282787	0.003312	NaN	0.000000	0.001609	0.001803	28.0984	0.069473	0.001984	35.0199	-85.1208	174.382	-0.002761	0.281101	-0.789750	-0.791088	0.003312	35.0199	-0.789821	-3.270779E+10	-1.012566E-13	NaN
148	1.000000	0.322442	7.36649e+06	-46039.1	955.819	-29770.9	0.000000	0.000000	6.322788	-0.047393	NaN	0.000000	0.001629	0.001760	28.0977	0.009909	0.002028	4.886978	177.878	178.044	-0.033889	0.321132	-0.749747	-0.751056	-0.047393	4.886978	-0.742474	-7.425858E+9	6.382107E-12	NaN
148	1.000000	0.362499	7.36649e+06	-46039.1	955.819	-29770.9	0.000000	0.000000	6.362851	0.096520	NaN	0.000000	0.001560	0.001740	28.0985	0.120732	0.001892	63.7971	-85.9586	175.655	0.125066	0.361195	-0.709689	-0.710994	0.096520	63.7971	-0.710824	-2.749762E+9	-3.510105E-11	NaN
148	1.000000	0.402495	7.36649e+06	-46039.1	955.818	-29770.9	0.000000	0.000000	6.402840	-0.084239	NaN	0.000000	0.001606	0.001768	28.0984	0.086433	0.002080	41.5581	120.586	174.404	0.044993	0.401134	-0.669694	-0.671055	-0.084239	41.5581	-0.668173	-7.184355E+8	1.172531E-10	NaN
148	1.000000	0.442550	7.36649e+06	-46039.1	955.818	-29770.9	0.000000	0.000000	6.442899	0.029453	NaN	0.000000	0.001697	0.001781	28.098	0.015666	0.001794	8.733032	-100.355	178.914	-0.008713	0.441142	-0.629639	-0.631046	0.029453	8.733032	-0.632168	-2.305668E+8	-1.277398E-10	NaN
148	1.000000	0.482527	7.36649e+06	-46039.1	955.819	-29770.9	0.000000	0.000000	6.482875	-0.003553	NaN	0.000000	0.001689	0.001770	28.0982	0.066758	0.001895	35.2203	152.419	174.236	-0.017663	0.481203	-0.589661	-0.590985	-0.003553	35.2203	-0.589586	-5.983473E+7	5.938279E-11	NaN
148	1.000000	0.522556	7.36649e+06	-46039.1	955.818	-29770.9	0.000000	0.000000	6.522903	-0.016788	NaN	0.000000	0.001698	0.001783	28.0979	0.091982	0.002077	44.2887	-91.825	175.385	0.048794	0.521321	-0.549633	-0.550867	-0.016788	44.2887	-0.549349	-1.663153E+7	1.009419E-9	NaN
148	1.000000	0.562566	7.36649e+06	-46039.1	955.818	-29770.9	0.000000	0.000000	6.562915	0.034527	NaN	0.000000	0.001587	0.001733	28.0954	0.029997	0.002041	14.6997	102.87	175.521	-0.028492	0.561270	-0.509623	-0.510919	0.034527	14.6997	-0.511384	-4.93966e+06	-6.989710E-9	NaN
148	1.000000	0.602578	7.36649e+06	-46039.1	955.818	-29770.9	0.000000	0.000000	6.602924	-0.041255	NaN	0.000000	0.001608	0.001769	28.0962	0.104173	0.002056	50.6788	-174.271	176.078	0.033291	0.601264	-0.469611	-0.470924	-0.041255	50.6788	-0.469000	-1.26296e+06	3.266511E-8	NaN
148	1.000000	0.642607	7.36649e+06	-46039.1	955.818	-29770.9	0.000000	0.000000	6.642955	0.013945	NaN	0.000000	0.001601	0.001800	28.0946	0.087348	0.002063	42.341	69.2969	172.509	0.108007	0.641260	-0.429582	-0.430929	0.013945	42.341	-0.429829	-354521	-3.933398E-8	NaN
148	1.000000	0.682582	7.36649e+06	-46039.1	955.818	-29770.9	0.000000	0.000000	6.682928	-0.049313	NaN	0.000000	0.001586	0.001788	28.0971	0.077596	0.002051	37.8327	39.888	172.029	-0.103288	0.681303	-0.389606	-0.390885	-0.049313	37.8327	-0.388629	-91948.7	5.363079E-7	NaN
148	1.000000	0.722621	7.36649e+06	-46039.1	955.819	-29770.9	0.000000	0.000000	6.722970	0.038757	NaN	0.000000	0.001575	0.001802	28.0969	0.033059	0.002014	16.4136	-2.119130	173.92	0.055012	0.721346	-0.349568	-0.350843	0.038757	16.4136	-0.351339	-26695	-1.451829E-6	NaN
148	1.000000	0.762626	7.36649e+06	-46039.1	955.819	-29770.9	0.000000	0.000000	6.762973	-0.026592	NaN	0.000000	0.001571	0.001765	28.0974	0.153603	0.002038	75.3798	86.8843	172.414	-0.080615	0.761351	-0.309563	-0.310838	-0.026592	75.3798	-0.309298	-6466.53	4.112256E-6	NaN
148	1.000000	0.802664	7.36649e+06	-46039.1	955.819	-29770.9	0.000000	0.000000	6.803013	0.028739	NaN	0.000000	0.001575	0.001803	28.0959	0.050692	0.002054	24.6825	-49.5777	173.81	0.013820	0.801379	-0.269525	-0.270810	0.028739	24.6825	-0.270398	-1688.87	-1.701691E-5	NaN
148	1.000000	0.842676	7.36649e+06	-46039.1	955.818	-29770.9	0.000000	0.000000	6.843021	-0.067703	NaN	0.000000	0.001650	0.001786	28.0967	0.047155	0.002045	23.0566	65.6932	177.278	-0.029277	0.841329	-0.229513	-0.230860	-0.067703	23.0566	-0.227310	-363.06	0.000186	NaN
148	1.000000	0.882691	7.36649e+06	-46039.1	955.819	-29770.9	0.000000	0.000000	6.883041	0.058257	NaN	0.000000	0.001684	0.001795	28.094	0.106997	0.002060	51.9389	-50.4015	178.256	0.047521	0.881410	-0.189498	-0.190779	0.058257	51.9389	-0.190339	-91.137	-0.000639	NaN
148	1.000000	0.922701	7.36649e+06	-46039.1	955.818	-29770.9	0.000000	0.000000	6.923049	-0.002395	NaN	0.000000	0.001594	0.001803	28.0954	0.117862	0.002117	55.6853	120.674	174.711	-0.086331	0.921388	-0.149488	-0.150801	-0.002395	55.6853	-0.149456	-17.7041	0.000135	NaN
148	1.000000	0.962702	7.36649e+06	-46039.1	955.819	-29770.9	0.000000	0.000000	6.963050	0.012847	NaN	0.000000	0.001589	0.001765	28.0952	0.057410	0.002033	28.2394	-48.876	173.7	-0.044984	0.961416	-0.109487	-0.110773	0.012847	28.2394	-0.109828	-2.980193	-0.004311	NaN
148	1.000000	1.002765	7.36649e+06	-46039.1	955.819	-29770.9	0.000000	0.000000	7.003111	-0.037044	NaN	0.000000	0.001606	0.001788	28.095	0.041544	0.002057	20.2002	80.0932	174.05	-0.046676	1.001371	-0.069424	-0.070817	-0.037044	20.2002	-0.068048	-0.302171	0.122591	NaN
148	1.000000	1.042745	7.36649e+06	-46039.1	955.817	-29770.9	0.000000	0.000000	7.043093	0.003788	NaN	0.000000	0.001588	0.001802	28.0948	0.098207	0.001943	50.5356	117.407	176.613	-0.056292	1.041365	-0.029444	-0.030823	0.003788	50.5356	-0.029500	-0.022289	-0.169970	NaN
148	2.000000	1.082249	7.36649e+06	-46039.1	955.819	-29770.9	0.000000	0.000000	7.082973	9.134877	NaN	0.000000	0.001614	0.001783	28.0948	8.531387	0.001531	5571.76	9.529000	165.331	8.353997	1.081390	0.010061	0.009201	9.134877	5571.76	0.008831	0.007911	1154.7	57233.3
148	2.000000	1.092352	7.36649e+06	-46039.1	955.818	-29770.9	0.000000	0.000000	7.093609	22.1185	NaN	0.000000	0.001559	0.001819	28.094	17.8102	0.001774	10042	6.568779	165.75	22.1947	1.092045	0.020163	0.019856	22.1185	10042	0.018511	0.020257	1091.89	64462.6
148	2.000000	1.102295	7.36649e+06	-46039.1	955.818	-29770.9	0.000000	0.000000	7.104554	46.4777	NaN	0.000000	0.001581	0.001788	28.0957	28.9573	0.001960	14775.8	6.982040	160.395	45.7267	1.102037	0.030107	0.029848	46.4777	14775.8	0.027747	0.036204	1283.77	70948.8
148	2.000000	1.112268	7.36649e+06	-46039.1	955.818	-29770.9	0.000000	0.000000	7.115777	76.8844	NaN	0.000000	0.001617	0.001763	28.0933	39.5244	0.001791	22063.3	4.690524	158.939	75.2077	1.111999	0.040080	0.039811	76.8844	22063.3	0.037466	0.057644	1333.79	83958.9
148	2.000000	1.122280	7.36649e+06	-46039.1	955.818	-29770.9	0.000000	0.000000	7.127352	114.909	NaN	0.000000	0.001609	0.001818	28.095	48.4252	0.001832	26436.7	3.428858	158.831	113.311	1.122008	0.050091	0.049819	114.909	26436.7	0.046831	0.082872	1386.6	83903.2
148	2.000000	1.132247	7.36649e+06	-46039.1	955.818	-29770.9	0.000000	0.000000	7.139196	160.568	NaN	0.000000	0.001581	0.001778	28.0942	57.552	0.001769	32528	5.578194	155.524	160.767	1.131899	0.060058	0.059710	160.568	32528	0.056356	0.113067	1420.11	88381.7
148	2.000000	1.142246	7.36649e+06	-46039.1	955.818	-29770.9	0.000000	0.000000	7.151153	208.219	NaN	0.000000	0.001629	0.001771	28.0943	67.9754	0.001713	39681.2	5.737590	153.657	206.909	1.142034	0.070057	0.069845	208.219	39681.2	0.066122	0.148670	1400.54	94025.6
148	2.000000	1.152261	7.36649e+06	-46039.1	955.818	-29770.9	0.000000	0.000000	7.163722	270.321	NaN	0.000000	0.001590	0.001775	28.0917	77.1447	0.001843	41854.1	6.512615	152.788	271.809	1.151909	0.080073	0.079720	270.321	41854.1	0.075229	0.186005	1453.3	88664.3
148	2.000000	1.162197	7.36649e+06	-46039.1	955.818	-29770.9	0.000000	0.000000	7.176452	338.283	NaN	0.000000	0.001638	0.001757	28.0936	85.5976	0.001915	44692.9	4.544189	154.442	335.664	1.161938	0.090008	0.089749	338.283	44692.9	0.084332	0.227224	1488.77	85661.4
148	2.000000	1.172132	7.36649e+06	-46039.1	955.818	-29770.9	0.000000	0.000000	7.189459	413.032	NaN	0.000000	0.001681	0.001768	28.0918	95.6452	0.001840	51972.9	4.622386	152.986	408.275	1.171970	0.099943	0.099781	413.032	51972.9	0.093983	0.275110	1501.33	90531
148	2.000000	1.180638	7.36649e+06	-46039.1	955.818	-29770.9	0.000000	0.000000	7.200222	467.924	NaN	0.000000	0.001593	0.001743	28.1299	102.929	0.001774	58018.5	5.123019	-28.7526	461.656	1.180436	0.108449	0.108247	467.924	58018.5	0.102401	0.320350	1460.67	93654.2