Folder: unikorn_login/remote_trans/data/nanoindenter/0828-1/data/Data_2025-08-06,11h17m57s (part 64)

File: 2025-07-22_16-23-58_1_145.txt
2025-07-22, 16:23:58, 1
Index	Phase	Displacement	Time	Pos X	Pos Y	Pos Z	Rot A	Rot B	Piezo Z	Force A	Force B	Gripper	Voltage A	Voltage B	Temperature	Amplitude force	Amplitude pos	Stiffness	Phase shift	Phase excitation	Force A raw	Displacement raw	HMax	HMax raw	Real Force	Real Stiffness	Contact Depth	Area	Hardness	Reduced Mod.
[#]	[#]	[um]	[s]	[um]	[um]	[um]	[m°]	[m°]	[um]	[uN]	[uN]	[V]	[V]	[V]	[°C]	[uN]	[um]	[N/m]	[°]	[°]	[uN]	[um]	[um]	[um]	[uN]	[N/m]	[um]	[um^2]	[MPa]	[MPa]
145	1.000000	0.002892	7.36645e+06	-45889.1	955.818	-29770.8	0.000000	0.000000	6.002794	-0.017700	NaN	0.000000	0.001574	0.001741	28.1277	0.188577	0.001046	180.24	-137.029	-162.64	0.028533	0.001699	-1.705432	-1.706626	-0.017700	180.24	-1.705359	-5.992718E+22	2.953577E-25	NaN
145	1.000000	0.060881	7.36645e+06	-45889.1	955.818	-29770.8	0.000000	0.000000	6.060782	-0.016488	NaN	0.000000	0.001609	0.001729	28.1027	0.173175	0.001960	88.3467	-23.3813	15.5892	0.001087	0.059531	-1.647444	-1.648793	-0.016488	88.3467	-1.647304	-1.014375E+22	1.625472E-24	NaN
145	1.000000	0.118900	7.36645e+06	-45889.1	955.818	-29770.8	0.000000	0.000000	6.118802	0.000850	NaN	0.000000	0.001647	0.001749	28.0804	0.038774	0.001992	19.463	149.456	-165.062	0.008368	0.117487	-1.589425	-1.590838	0.000850	19.463	-1.589458	-1.725844E+21	-4.922383E-25	NaN
145	1.000000	0.176902	7.36645e+06	-45889.1	955.819	-29770.8	0.000000	0.000000	6.176804	0.006327	NaN	0.000000	0.001544	0.001732	28.0899	0.087004	0.001940	44.8386	-57.3574	11.5359	0.075682	0.175500	-1.531423	-1.532825	0.006327	44.8386	-1.531529	-2.925019E+20	-2.163193E-23	NaN
145	1.000000	0.234922	7.36645e+06	-45889.1	955.818	-29770.8	0.000000	0.000000	6.234821	-0.075376	NaN	0.000000	0.001576	0.001757	28.127	0.059597	0.001934	30.817	108.177	-163.057	-0.037262	0.233639	-1.473403	-1.474686	-0.075376	30.817	-1.471569	-4.651336E+19	1.620527E-21	NaN
145	1.000000	0.292938	7.36645e+06	-45889.1	955.819	-29770.8	0.000000	0.000000	6.292838	-0.042677	NaN	0.000000	0.001541	0.001756	28.1032	0.018205	0.001989	9.154684	-87.6963	13.7753	-0.085120	0.291588	-1.415387	-1.416737	-0.042677	9.154684	-1.411891	-7.448341E+18	5.729778E-21	NaN
145	1.000000	0.350988	7.36645e+06	-45889.1	955.818	-29770.8	0.000000	0.000000	6.350891	0.024689	NaN	0.000000	0.001608	0.001740	28.0799	0.107323	0.002051	52.3269	-138.422	-160.734	0.008059	0.349688	-1.357337	-1.358637	0.024689	52.3269	-1.357691	-1.408953E+18	-1.752291E-20	NaN
145	1.000000	0.409017	7.36646e+06	-45889.1	955.819	-29770.8	0.000000	0.000000	6.408918	-0.009289	NaN	0.000000	0.001562	0.001773	28.088	0.165460	0.002003	82.5961	158.116	13.3303	0.026019	0.407630	-1.299308	-1.300695	-0.009289	82.5961	-1.299224	-2.333585E+17	3.980526E-20	NaN
145	1.000000	0.467009	7.36646e+06	-45889.1	955.819	-29770.8	0.000000	0.000000	6.466910	-0.026812	NaN	0.000000	0.001574	0.001762	28.1261	0.090063	0.002010	44.8157	-78.5741	-164.268	0.010853	0.465692	-1.241316	-1.242633	-0.026812	44.8157	-1.240867	-3.870325E+16	6.927544E-19	NaN
145	1.000000	0.525009	7.36646e+06	-45889.1	955.818	-29770.8	0.000000	0.000000	6.524907	-0.116195	NaN	0.000000	0.001534	0.001736	28.1053	0.046255	0.002069	22.3593	14.2546	13.7235	-0.075007	0.523643	-1.183316	-1.184682	-0.116195	22.3593	-1.179418	-5.822042E+15	1.995779E-17	NaN
145	1.000000	0.583101	7.36646e+06	-45889.1	955.819	-29770.8	0.000000	0.000000	6.583004	0.037407	NaN	0.000000	0.001674	0.001768	28.0804	0.028226	0.001997	14.1371	-57.7847	-164.764	0.145264	0.581733	-1.125224	-1.126592	0.037407	14.1371	-1.127209	-1.161929E+15	-3.219379E-17	NaN
145	1.000000	0.641087	7.36646e+06	-45889.1	955.819	-29770.8	0.000000	0.000000	6.640991	0.043948	NaN	0.000000	0.001627	0.001770	28.0882	0.066254	0.002025	32.7258	-178.425	11.9705	-0.115306	0.639749	-1.067238	-1.068576	0.043948	32.7258	-1.068245	-1.877624E+14	-2.340592E-16	NaN
145	1.000000	0.699116	7.36646e+06	-45889.1	955.819	-29770.8	0.000000	0.000000	6.699016	-0.040278	NaN	0.000000	0.001610	0.001762	28.1269	0.028713	0.002026	14.1729	44.6258	-164.503	-0.021152	0.697884	-1.009209	-1.010441	-0.040278	14.1729	-1.007077	-2.825177E+13	1.425686E-15	NaN
145	1.000000	0.757131	7.36646e+06	-45889.1	955.818	-29770.8	0.000000	0.000000	6.757032	-0.014918	NaN	0.000000	0.001575	0.001732	28.1065	0.024073	0.002011	11.9702	-111.122	13.9955	0.018304	0.755809	-0.951194	-0.952516	-0.014918	11.9702	-0.950259	-4.847582E+12	3.077348E-15	NaN
145	1.000000	0.815177	7.36646e+06	-45889.1	955.819	-29770.8	0.000000	0.000000	6.815080	0.014710	NaN	0.000000	0.001584	0.001760	28.0782	0.050605	0.002008	25.1977	-68.2225	-167.424	-0.069738	0.813827	-0.893148	-0.894498	0.014710	25.1977	-0.893586	-8.324990E+11	-1.766968E-14	NaN
145	1.000000	0.873196	7.36646e+06	-45889.1	955.819	-29770.8	0.000000	0.000000	6.873093	-0.106075	NaN	0.000000	0.001587	0.001762	28.0866	0.080979	0.001976	40.9843	4.065448	8.773954	-0.121249	0.871758	-0.835129	-0.836567	-0.106075	40.9843	-0.833188	-1.267626E+11	8.368010E-13	NaN
145	1.000000	0.931205	7.36646e+06	-45889.1	955.818	-29770.8	0.000000	0.000000	6.931106	-0.044859	NaN	0.000000	0.001582	0.001735	28.1273	0.085315	0.002047	41.6822	95.8741	-166.834	-0.029212	0.929903	-0.777119	-0.778422	-0.044859	41.6822	-0.776312	-2.143458E+10	2.092850E-12	NaN
145	1.000000	0.989219	7.36646e+06	-45889.1	955.819	-29770.8	0.000000	0.000000	6.989119	-0.053147	NaN	0.000000	0.001538	0.001737	28.1078	0.098587	0.002056	47.9413	85.7614	12.027	-0.061387	0.987906	-0.719106	-0.720419	-0.053147	47.9413	-0.718274	-3.474877E+9	1.529459E-11	NaN
145	1.000000	1.047261	7.36646e+06	-45889.1	955.82	-29770.8	0.000000	0.000000	7.047162	-0.040563	NaN	0.000000	0.001579	0.001750	28.0781	0.021956	0.002085	10.5293	22.2441	-164.743	-0.015331	1.046003	-0.661064	-0.662322	-0.040563	10.5293	-0.658174	-5.241544E+8	7.738694E-11	NaN
145	1.000000	1.105292	7.36646e+06	-45889.1	955.819	-29770.8	0.000000	0.000000	7.105193	-0.012985	NaN	0.000000	0.001548	0.001706	28.0852	0.083670	0.002122	39.4286	177.997	15.1186	0.022182	1.103975	-0.603033	-0.604350	-0.012985	39.4286	-0.602786	-9.095533E+7	1.427594E-10	NaN
145	1.000000	1.163324	7.36646e+06	-45889.1	955.82	-29770.8	0.000000	0.000000	7.163225	-0.028006	NaN	0.000000	0.001620	0.001736	28.1269	0.050895	0.001931	26.3563	-59.1326	-161.387	0.043081	1.161984	-0.545001	-0.546341	-0.028006	26.3563	-0.544204	-1.411389E+7	1.984309E-9	NaN
145	1.000000	1.221316	7.36646e+06	-45889.1	955.818	-29770.8	0.000000	0.000000	7.221217	-0.019799	NaN	0.000000	0.001595	0.001743	28.11	0.087649	0.001983	44.209	3.757269	11.555	-0.071920	1.219927	-0.487009	-0.488398	-0.019799	44.209	-0.486673	-2.233e+06	8.866691E-9	NaN
145	1.000000	1.279316	7.36646e+06	-45889.1	955.819	-29770.8	0.000000	0.000000	7.279214	-0.086297	NaN	0.000000	0.001599	0.001740	28.0777	0.099264	0.002038	48.698	-89.8368	-167.936	-0.002638	1.278068	-0.429009	-0.430257	-0.086297	48.698	-0.427680	-330547	2.610723E-7	NaN
145	1.000000	1.337390	7.36646e+06	-45889.1	955.819	-29770.8	0.000000	0.000000	7.337290	-0.046687	NaN	0.000000	0.001606	0.001754	28.0843	0.086282	0.001965	43.9144	-55.6369	15.3359	-0.032384	1.336002	-0.370935	-0.372322	-0.046687	43.9144	-0.370138	-49901.6	9.355788E-7	NaN
145	1.000000	1.395380	7.36646e+06	-45889.1	955.821	-29770.8	0.000000	0.000000	7.395280	-0.035793	NaN	0.000000	0.001610	0.001730	28.1244	0.056650	0.002065	27.4381	112.192	-168.178	-0.042804	1.394142	-0.312945	-0.314183	-0.035793	27.4381	-0.311967	-7081.81	5.054248E-6	NaN
145	1.000000	1.453446	7.36646e+06	-45889.1	955.821	-29770.8	0.000000	0.000000	7.453345	-0.063895	NaN	0.000000	0.001622	0.001759	28.1103	0.060213	0.002029	29.6755	-77.9041	11.8634	-0.065566	1.452077	-0.254879	-0.256248	-0.063895	29.6755	-0.253264	-923.364	6.919768E-5	NaN
145	1.000000	1.511465	7.36646e+06	-45889.1	955.82	-29770.8	0.000000	0.000000	7.511363	-0.098937	NaN	0.000000	0.001579	0.001695	28.0792	0.079638	0.001919	41.4933	-22.5669	-166.068	-0.099626	1.510119	-0.196860	-0.198206	-0.098937	41.4933	-0.195072	-109.242	0.000906	NaN
145	1.000000	1.569493	7.36646e+06	-45889.1	955.819	-29770.8	0.000000	0.000000	7.569395	-0.003288	NaN	0.000000	0.001639	0.001716	28.0851	0.072090	0.002031	35.4861	-170.826	14.9293	-0.003506	1.568132	-0.138832	-0.140193	-0.003288	35.4861	-0.138762	-11.2116	0.000293	NaN
145	1.000000	1.627529	7.36646e+06	-45889.1	955.821	-29770.8	0.000000	0.000000	7.627426	-0.114368	NaN	0.000000	0.001571	0.001814	28.1241	0.045936	0.002098	21.8976	-80.7809	-162.208	-0.025201	1.626258	-0.080796	-0.082067	-0.114368	21.8976	-0.076879	-0.516189	0.221562	NaN
145	1.000000	1.685532	7.36646e+06	-45889.1	955.82	-29770.8	0.000000	0.000000	7.685432	-0.037262	NaN	0.000000	0.001643	0.001801	28.1117	0.040144	0.001950	20.5885	8.346058	11.9478	-0.020829	1.684195	-0.022793	-0.024130	-0.037262	20.5885	-0.021436	-0.013662	2.727442	NaN
145	2.000000	1.726117	7.36646e+06	-45889.1	955.821	-29770.8	0.000000	0.000000	7.726632	14.9249	NaN	0.000000	0.001573	0.001777	28.0792	13.645	0.001648	8280.25	5.794688	-175.588	14.9163	1.725755	0.017792	0.017430	14.9249	8280.25	0.016440	0.017254	865.026	57593.8
145	2.000000	1.740532	7.36646e+06	-45889.1	955.82	-29770.8	0.000000	0.000000	7.742192	42.755	NaN	0.000000	0.001611	0.001719	28.0858	28.1866	0.001772	15908.3	4.695186	0.488244	41.1293	1.740152	0.032207	0.031827	42.755	15908.3	0.030191	0.041141	1039.23	71657.1
145	2.000000	1.754966	7.36646e+06	-45889.1	955.82	-29770.8	0.000000	0.000000	7.758591	90.5599	NaN	0.000000	0.001604	0.001738	28.1236	41.2362	0.001765	23366.3	6.536591	175.15	89.6749	1.754757	0.046641	0.046432	90.5599	23366.3	0.043734	0.074035	1223.2	78459.3
145	2.000000	1.769426	7.36646e+06	-45889.1	955.821	-29770.8	0.000000	0.000000	7.775875	159.26	NaN	0.000000	0.001511	0.001713	28.112	53.5518	0.001803	29695	3.201931	-3.023926	153.883	1.769108	0.061101	0.060783	159.26	29695	0.057079	0.115542	1378.37	79815.4
145	2.000000	1.784004	7.36646e+06	-45889.1	955.821	-29770.8	0.000000	0.000000	7.793549	234.58	NaN	0.000000	0.001597	0.001730	28.082	69.2429	0.001842	37599.3	8.042761	170.649	235.035	1.783653	0.075679	0.075328	234.58	37599.3	0.071000	0.168178	1394.84	83766.1
145	2.000000	1.798385	7.36646e+06	-45889.1	955.821	-29770.8	0.000000	0.000000	7.812023	334.13	NaN	0.000000	0.001610	0.001719	28.085	80.444	0.001880	42793.2	2.810461	-4.952929	326.653	1.797960	0.090060	0.089635	334.13	42793.2	0.084204	0.226619	1474.41	82129.6
145	2.000000	1.812975	7.36646e+06	-45889.1	955.821	-29770.8	0.000000	0.000000	7.830794	435.853	NaN	0.000000	0.001649	0.001726	28.1213	93.9363	0.001773	52968.4	5.307523	170.623	436.023	1.812675	0.104650	0.104351	435.853	52968.4	0.098478	0.298869	1458.34	88521.8
145	2.000000	1.818856	7.36646e+06	-45889.1	955.822	-29770.7	0.000000	0.000000	7.839052	493.666	NaN	0.000000	0.001653	0.001733	28.1218	100.031	0.001863	53697.1	6.085852	169.987	489.386	1.818601	0.110532	0.110276	493.666	53697.1	0.103636	0.327263	1508.47	85758.3

File: 2025-07-22_16-23-58_1_146.txt
2025-07-22, 16:23:58, 1
Index	Phase	Displacement	Time	Pos X	Pos Y	Pos Z	Rot A	Rot B	Piezo Z	Force A	Force B	Gripper	Voltage A	Voltage B	Temperature	Amplitude force	Amplitude pos	Stiffness	Phase shift	Phase excitation	Force A raw	Displacement raw	HMax	HMax raw	Real Force	Real Stiffness	Contact Depth	Area	Hardness	Reduced Mod.
[#]	[#]	[um]	[s]	[um]	[um]	[um]	[m°]	[m°]	[um]	[uN]	[uN]	[V]	[V]	[V]	[°C]	[uN]	[um]	[N/m]	[°]	[°]	[uN]	[um]	[um]	[um]	[uN]	[N/m]	[um]	[um^2]	[MPa]	[MPa]
146	1.000000	0.002204	7.36647e+06	-45939.1	955.819	-29771.2	0.000000	0.000000	6.002808	-0.005115	NaN	0.000000	0.001615	0.001705	28.1233	0.011654	0.000950	12.2612	-122.415	-163.027	-0.006880	0.000871	-1.061834	-1.063167	-0.005115	12.2612	-1.061521	-1.524978E+14	3.354182E-17	NaN
146	1.000000	0.042159	7.36647e+06	-45939.1	955.818	-29771.2	0.000000	0.000000	6.042765	0.039125	NaN	0.000000	0.001533	0.001753	28.1243	0.116079	0.001858	62.4718	64.738	-168.187	-0.000882	0.040876	-1.021879	-1.023161	0.039125	62.4718	-1.022348	-4.534678E+13	-8.627973E-16	NaN
146	1.000000	0.082137	7.36647e+06	-45939.1	955.819	-29771.2	0.000000	0.000000	6.082745	0.059923	NaN	0.000000	0.001499	0.001757	28.1215	0.031711	0.001954	16.2262	-25.0349	-165.076	0.021762	0.080824	-0.981900	-0.983214	0.059923	16.2262	-0.984670	-1.410336E+13	-4.248840E-15	NaN
146	1.000000	0.122175	7.36647e+06	-45939.1	955.819	-29771.2	0.000000	0.000000	6.122780	0.013733	NaN	0.000000	0.001501	0.001715	28.1225	0.012719	0.002181	5.831864	166.503	-163.272	-0.001117	0.120900	-0.941863	-0.943137	0.013733	5.831864	-0.943629	-3.945452E+12	-3.480820E-15	NaN
146	1.000000	0.162198	7.36647e+06	-45939.1	955.819	-29771.2	0.000000	0.000000	6.162803	0.012690	NaN	0.000000	0.001583	0.001726	28.1212	0.057403	0.002002	28.6786	-58.371	-163.776	-0.013723	0.160885	-0.901840	-0.903153	0.012690	28.6786	-0.902172	-1.087451E+12	-1.166952E-14	NaN
146	1.000000	0.202215	7.36647e+06	-45939.1	955.819	-29771.2	0.000000	0.000000	6.202818	-0.026972	NaN	0.000000	0.001539	0.001692	28.1228	0.091160	0.001914	47.6352	168.894	-163.965	-0.023237	0.200821	-0.861823	-0.863217	-0.026972	47.6352	-0.861398	-3.055238E+11	8.828096E-14	NaN
146	1.000000	0.242241	7.36647e+06	-45939.1	955.819	-29771.2	0.000000	0.000000	6.242844	-0.038496	NaN	0.000000	0.001586	0.001737	28.1226	0.033491	0.002132	15.7087	-91.9454	-166.1	0.001020	0.240879	-0.821797	-0.823159	-0.038496	15.7087	-0.819959	-8.387999E+10	4.589387E-13	NaN
146	1.000000	0.282251	7.36647e+06	-45939.1	955.819	-29771.2	0.000000	0.000000	6.282853	-0.054820	NaN	0.000000	0.001524	0.001719	28.1229	0.087263	0.001954	44.6687	-82.7338	-166.913	-0.025645	0.280929	-0.781787	-0.783108	-0.054820	44.6687	-0.780866	-2.471746E+10	2.217849E-12	NaN
146	1.000000	0.322273	7.36647e+06	-45939.1	955.819	-29771.2	0.000000	0.000000	6.322881	0.081930	NaN	0.000000	0.001568	0.001723	28.1216	0.077759	0.001983	39.2218	-85.5164	-166.714	0.075877	0.320939	-0.741765	-0.743099	0.081930	39.2218	-0.743331	-7.628264E+9	-1.074026E-11	NaN
146	1.000000	0.362307	7.36647e+06	-45939.1	955.818	-29771.2	0.000000	0.000000	6.362910	-0.049731	NaN	0.000000	0.001524	0.001717	28.1214	0.099045	0.002034	48.6955	178.306	-162.808	-0.031172	0.361021	-0.701731	-0.703017	-0.049731	48.6955	-0.700965	-2.016999E+9	2.465569E-11	NaN
146	1.000000	0.402333	7.36647e+06	-45939.1	955.819	-29771.2	0.000000	0.000000	6.402934	-0.074912	NaN	0.000000	0.001541	0.001685	28.1205	0.068656	0.002009	34.1741	54.105	-161.927	-0.007689	0.400996	-0.661705	-0.663042	-0.074912	34.1741	-0.660061	-5.562960E+8	1.346628E-10	NaN
146	1.000000	0.442284	7.36647e+06	-45939.1	955.818	-29771.2	0.000000	0.000000	6.442888	-0.008159	NaN	0.000000	0.001525	0.001702	28.1215	0.048179	0.001954	24.6551	-30.2176	-167.196	0.044471	0.440986	-0.621754	-0.623051	-0.008159	24.6551	-0.621506	-1.645612E+8	4.958200E-11	NaN
146	1.000000	0.482318	7.36647e+06	-45939.1	955.819	-29771.2	0.000000	0.000000	6.482924	0.035553	NaN	0.000000	0.001572	0.001698	28.1205	0.055063	0.002118	25.9948	1.749439	-167.18	-0.029474	0.481017	-0.581720	-0.583021	0.035553	25.9948	-0.582745	-4.815164E+7	-7.383630E-10	NaN
146	1.000000	0.522350	7.36647e+06	-45939.1	955.818	-29771.2	0.000000	0.000000	6.522955	0.004713	NaN	0.000000	0.001529	0.001748	28.122	0.063005	0.002011	31.3247	14.4819	-166.653	-0.004643	0.521053	-0.541687	-0.542984	0.004713	31.3247	-0.541800	-1.307142E+7	-3.605616E-10	NaN
146	1.000000	0.562368	7.36647e+06	-45939.1	955.819	-29771.2	0.000000	0.000000	6.562971	-0.034796	NaN	0.000000	0.001549	0.001752	28.1208	0.111487	0.002067	53.9487	124.192	-159.413	-0.015499	0.561061	-0.501670	-0.502976	-0.034796	53.9487	-0.501186	-3.56096e+06	9.771464E-9	NaN
146	1.000000	0.602370	7.36647e+06	-45939.1	955.819	-29771.2	0.000000	0.000000	6.602972	-0.052489	NaN	0.000000	0.001552	0.001738	28.1217	0.063420	0.001928	32.8894	-158.328	-164.709	-0.010088	0.601041	-0.461668	-0.462997	-0.052489	32.8894	-0.460471	-958602	5.475527E-8	NaN
146	1.000000	0.642373	7.36647e+06	-45939.1	955.819	-29771.2	0.000000	0.000000	6.642979	0.037458	NaN	0.000000	0.001527	0.001728	28.1194	0.081578	0.002023	40.3271	-5.477150	-166.493	-0.057586	0.641095	-0.421665	-0.422942	0.037458	40.3271	-0.422362	-277908	-1.347870E-7	NaN
146	1.000000	0.682410	7.36647e+06	-45939.1	955.819	-29771.2	0.000000	0.000000	6.683014	-0.028885	NaN	0.000000	0.001524	0.001732	28.1201	0.072752	0.001980	36.748	-141.693	-161.558	0.024454	0.681015	-0.381627	-0.383022	-0.028885	36.748	-0.381038	-71578.6	4.035384E-7	NaN
146	1.000000	0.722421	7.36647e+06	-45939.1	955.819	-29771.2	0.000000	0.000000	6.723026	-0.006796	NaN	0.000000	0.001561	0.001746	28.1194	0.086522	0.002015	42.932	92.3654	-167.036	-0.058156	0.721115	-0.341616	-0.342923	-0.006796	42.932	-0.341498	-19203.4	3.539128E-7	NaN
146	1.000000	0.762444	7.36647e+06	-45939.1	955.818	-29771.2	0.000000	0.000000	6.763049	-0.002802	NaN	0.000000	0.001586	0.001729	28.1213	0.065834	0.002135	30.8421	-59.6429	-164.505	0.009606	0.761153	-0.301593	-0.302884	-0.002802	30.8421	-0.301525	-4958.26	5.651757E-7	NaN
146	1.000000	0.802482	7.36647e+06	-45939.1	955.818	-29771.2	0.000000	0.000000	6.803086	-0.029959	NaN	0.000000	0.001567	0.001749	28.1195	0.147952	0.001950	75.8802	117.683	-163.007	-0.071365	0.801154	-0.261555	-0.262884	-0.029959	75.8802	-0.261259	-1225.2	2.445253E-5	NaN
146	1.000000	0.842463	7.36647e+06	-45939.1	955.818	-29771.2	0.000000	0.000000	6.843069	0.034184	NaN	0.000000	0.001533	0.001716	28.1213	0.082385	0.001881	43.8024	-151.736	-165.431	0.054715	0.841165	-0.221574	-0.222873	0.034184	43.8024	-0.222160	-300.707	-0.000114	NaN
146	1.000000	0.882495	7.36647e+06	-45939.1	955.818	-29771.2	0.000000	0.000000	6.883098	-0.044148	NaN	0.000000	0.001578	0.001730	28.1193	0.031792	0.002038	15.6013	175.202	-163.841	-0.057935	0.881208	-0.181542	-0.182830	-0.044148	15.6013	-0.179420	-59.6476	0.000740	NaN
146	1.000000	0.922501	7.36647e+06	-45939.1	955.819	-29771.2	0.000000	0.000000	6.923103	-0.054191	NaN	0.000000	0.001575	0.001724	28.1183	0.084989	0.002128	39.9311	-122.7	-163.773	-0.072552	0.921182	-0.141537	-0.142856	-0.054191	39.9311	-0.140519	-12.0979	0.004479	NaN
146	1.000000	0.962515	7.36647e+06	-45939.1	955.818	-29771.2	0.000000	0.000000	6.963121	0.044565	NaN	0.000000	0.001558	0.001763	28.1184	0.009335	0.001965	4.751719	-48.4755	-166.108	0.044504	0.961199	-0.101523	-0.102839	0.044565	4.751719	-0.108557	-2.801181	-0.015909	NaN
146	1.000000	1.002539	7.36647e+06	-45939.1	955.816	-29771.2	0.000000	0.000000	7.003141	-0.060980	NaN	0.000000	0.001540	0.001695	28.1186	0.074372	0.001829	40.657	116.316	-167.528	-0.024254	1.001214	-0.061499	-0.062824	-0.060980	40.657	-0.060374	-0.184592	0.330348	NaN
146	1.000000	1.042544	7.36647e+06	-45939.1	955.816	-29771.2	0.000000	0.000000	7.043148	-0.023615	NaN	0.000000	0.001502	0.001721	28.1179	0.079702	0.002038	39.1152	5.074525	-162.929	-0.086284	1.041277	-0.021493	-0.022761	-0.023615	39.1152	-0.021041	-0.013350	1.768955	NaN
146	2.000000	1.076190	7.36647e+06	-45939.1	955.816	-29771.2	0.000000	0.000000	7.077236	10.7133	NaN	0.000000	0.001581	0.001693	28.1196	10.8224	0.001617	6691.17	3.987965	-171.595	9.645134	1.075943	0.012153	0.011905	10.7133	6691.17	0.010952	0.010259	1044.32	60357.3
146	2.000000	1.086158	7.36647e+06	-45939.1	955.814	-29771.2	0.000000	0.000000	7.087949	28.8691	NaN	0.000000	0.001582	0.001658	28.1185	22.1908	0.001736	12784.5	6.215684	-177.782	28.6579	1.085805	0.022120	0.021767	28.8691	12784.5	0.020426	0.023216	1243.48	76658.5
146	2.000000	1.096106	7.36647e+06	-45939.1	955.814	-29771.2	0.000000	0.000000	7.099082	57.68	NaN	0.000000	0.001620	0.001703	28.1192	32.8437	0.001813	18114.1	2.374081	-176.417	56.8835	1.095757	0.032068	0.031719	57.68	18114.1	0.029680	0.040083	1439.02	82662.9
146	2.000000	1.106058	7.36647e+06	-45939.1	955.816	-29771.2	0.000000	0.000000	7.110749	99.4099	NaN	0.000000	0.001614	0.001708	28.1163	42.2343	0.001682	25105.7	3.606624	178.746	98.2699	1.105797	0.042020	0.041759	99.4099	25105.7	0.039051	0.061598	1613.85	92419.2
146	2.000000	1.116058	7.36647e+06	-45939.1	955.815	-29771.3	0.000000	0.000000	7.122817	149.697	NaN	0.000000	0.001611	0.001722	28.1173	53.8281	0.001717	31346.9	4.046386	176.418	148.073	1.115831	0.052020	0.051793	149.697	31346.9	0.048439	0.087649	1707.92	96737.7
146	2.000000	1.126140	7.36647e+06	-45939.1	955.814	-29771.3	0.000000	0.000000	7.135121	203.765	NaN	0.000000	0.001602	0.001703	28.1159	64.8676	0.001880	34509.1	6.553184	173.955	208.499	1.125767	0.062102	0.061729	203.765	34509.1	0.057673	0.117598	1732.73	91940.6
146	2.000000	1.136063	7.36647e+06	-45939.1	955.814	-29771.3	0.000000	0.000000	7.148001	275.698	NaN	0.000000	0.001588	0.001729	28.1185	73.569	0.001734	42434.7	6.150278	172.5	276.836	1.135692	0.072025	0.071654	275.698	42434.7	0.067153	0.152699	1805.5	99214.9
146	2.000000	1.145966	7.36647e+06	-45939.1	955.812	-29771.3	0.000000	0.000000	7.160939	349.502	NaN	0.000000	0.001562	0.001712	28.1174	83.7436	0.001922	43564.3	5.967019	172.726	345.625	1.145734	0.081929	0.081696	349.502	43564.3	0.075912	0.188964	1849.57	91561.8
146	2.000000	1.156095	7.36647e+06	-45939.1	955.813	-29771.3	0.000000	0.000000	7.174274	427.513	NaN	0.000000	0.001556	0.001657	28.1176	90.898	0.001771	51323.9	3.848256	173.398	431.097	1.155775	0.092057	0.091738	427.513	51323.9	0.085810	0.234279	1824.8	96878.2
146	2.000000	1.166016	7.36647e+06	-45939.1	955.814	-29771.3	0.000000	0.000000	7.187974	519.432	NaN	0.000000	0.001594	0.001698	28.1163	102.367	0.001839	55678.2	9.702928	167.222	518.867	1.165736	0.101978	0.101698	519.432	55678.2	0.094981	0.280307	1853.08	96081.9
146	2.000000	1.172438	7.36647e+06	-45939.1	955.815	-29771.3	0.000000	0.000000	7.197196	587.548	NaN	0.000000	0.001622	0.001722	28.126	109.149	0.001933	56459.7	6.975964	-10.0814	582.118	1.172108	0.108400	0.108070	587.548	56459.7	0.100596	0.310377	1893.01	92590.6