Folder: unikorn_login/remote_trans/data/nanoindenter/0828-1/data/Data_2025-08-06,11h17m57s (part 112)

File: 2025-07-22_16-23-58_1_241.txt
2025-07-22, 16:23:58, 1
Index	Phase	Displacement	Time	Pos X	Pos Y	Pos Z	Rot A	Rot B	Piezo Z	Force A	Force B	Gripper	Voltage A	Voltage B	Temperature	Amplitude force	Amplitude pos	Stiffness	Phase shift	Phase excitation	Force A raw	Displacement raw	HMax	HMax raw	Real Force	Real Stiffness	Contact Depth	Area	Hardness	Reduced Mod.
[#]	[#]	[um]	[s]	[um]	[um]	[um]	[m°]	[m°]	[um]	[uN]	[uN]	[V]	[V]	[V]	[°C]	[uN]	[um]	[N/m]	[°]	[°]	[uN]	[um]	[um]	[um]	[uN]	[N/m]	[um]	[um^2]	[MPa]	[MPa]
241	1.000000	0.002779	7.3674e+06	-50689.1	955.818	-29755	0.000000	0.000000	6.002816	0.015830	NaN	0.000000	0.001616	0.001686	28.0814	0.098353	0.000840	117.13	-16.3023	-159.047	0.042396	0.001495	-1.237224	-1.238508	0.015830	117.13	-1.237325	-3.470177E+16	-4.561716E-19	NaN
241	1.000000	0.046728	7.3674e+06	-50689.1	955.817	-29755	0.000000	0.000000	6.046763	-0.023975	NaN	0.000000	0.001629	0.001724	28.0817	0.067782	0.002002	33.8562	-48.4325	-165.019	-0.076631	0.045449	-1.193275	-1.194553	-0.023975	33.8562	-1.192743	-8.781522E+15	2.730139E-18	NaN
241	1.000000	0.090747	7.3674e+06	-50689.1	955.819	-29755	0.000000	0.000000	6.090782	-0.015902	NaN	0.000000	0.001610	0.001725	28.0802	0.114230	0.002056	55.548	129.101	-164.515	0.013488	0.089423	-1.149256	-1.150579	-0.015902	55.548	-1.149041	-2.280181E+15	6.973911E-18	NaN
241	1.000000	0.134744	7.3674e+06	-50689.1	955.818	-29755	0.000000	0.000000	6.134781	0.021107	NaN	0.000000	0.001601	0.001726	28.0797	0.065065	0.001945	33.4484	-157.285	-165.755	-0.031613	0.133433	-1.105258	-1.106570	0.021107	33.4484	-1.105732	-5.984139E+14	-3.527213E-17	NaN
241	1.000000	0.178751	7.3674e+06	-50689.1	955.819	-29755	0.000000	0.000000	6.178786	-0.031099	NaN	0.000000	0.001599	0.001721	28.0801	0.017541	0.002025	8.660451	-77.2799	-165.254	-0.007616	0.177421	-1.061251	-1.062582	-0.031099	8.660451	-1.058558	-1.391370E+14	2.235150E-16	NaN
241	1.000000	0.222796	7.3674e+06	-50689.1	955.819	-29755	0.000000	0.000000	6.222830	-0.041536	NaN	0.000000	0.001616	0.001696	28.0817	0.085541	0.002047	41.7894	-50.8021	-163.429	-0.106600	0.221486	-1.017207	-1.018517	-0.041536	41.7894	-1.016462	-3.778702E+13	1.099216E-15	NaN
241	1.000000	0.266791	7.3674e+06	-50689.1	955.819	-29755	0.000000	0.000000	6.266825	-0.036391	NaN	0.000000	0.001574	0.001713	28.0815	0.020778	0.002102	9.882763	43.0026	-164.758	-0.054499	0.265510	-0.973212	-0.974492	-0.036391	9.882763	-0.970450	-9.072578E+12	4.011110E-15	NaN
241	1.000000	0.310807	7.3674e+06	-50689.1	955.819	-29755	0.000000	0.000000	6.310842	-0.012986	NaN	0.000000	0.001584	0.001717	28.0813	0.159092	0.002058	77.3022	121.87	-164.776	-0.059755	0.309481	-0.929196	-0.930522	-0.012986	77.3022	-0.929070	-2.509820E+12	5.173892E-15	NaN
241	1.000000	0.354830	7.3674e+06	-50689.1	955.818	-29755	0.000000	0.000000	6.354869	0.075998	NaN	0.000000	0.001626	0.001716	28.0799	0.135633	0.001997	67.9157	48.0002	-167.122	-0.042356	0.353572	-0.885172	-0.886431	0.075998	67.9157	-0.886012	-6.576536E+11	-1.155595E-13	NaN
241	1.000000	0.398850	7.3674e+06	-50689.1	955.819	-29755	0.000000	0.000000	6.398884	-0.031768	NaN	0.000000	0.001683	0.001722	28.0798	0.041631	0.001983	20.9891	73.2251	-163.439	-0.012696	0.397616	-0.841153	-0.842386	-0.031768	20.9891	-0.840018	-1.568676E+11	2.025132E-13	NaN
241	1.000000	0.442870	7.3674e+06	-50689.1	955.819	-29755	0.000000	0.000000	6.442904	-0.051642	NaN	0.000000	0.001673	0.001722	28.0802	0.087690	0.002047	42.8404	-170.648	-166.272	-0.100036	0.441573	-0.797132	-0.798430	-0.051642	42.8404	-0.796228	-3.996310E+10	1.292252E-12	NaN
241	1.000000	0.486894	7.3674e+06	-50689.1	955.819	-29755	0.000000	0.000000	6.486929	-0.030222	NaN	0.000000	0.001659	0.001704	28.0812	0.058795	0.001922	30.5951	-41.9559	-164.941	0.012160	0.485599	-0.753109	-0.754404	-0.030222	30.5951	-0.752368	-1.012626E+10	2.984519E-12	NaN
241	1.000000	0.530920	7.36741e+06	-50689.1	955.818	-29755	0.000000	0.000000	6.530955	-0.020895	NaN	0.000000	0.001681	0.001673	28.0813	0.040700	0.001975	20.6089	158.424	-167.302	-0.037365	0.529604	-0.709083	-0.710399	-0.020895	20.6089	-0.708322	-2.541867E+9	8.220288E-12	NaN
241	1.000000	0.574922	7.36741e+06	-50689.1	955.819	-29755	0.000000	0.000000	6.574957	-0.028730	NaN	0.000000	0.001656	0.001686	28.0813	0.036621	0.001937	18.9059	-27.3221	-169.026	-0.091329	0.573618	-0.665081	-0.666385	-0.028730	18.9059	-0.663941	-6.287024E+8	4.569773E-11	NaN
241	1.000000	0.618963	7.36741e+06	-50689.1	955.819	-29755	0.000000	0.000000	6.618997	-0.050617	NaN	0.000000	0.001670	0.001732	28.0802	0.110230	0.001939	56.8462	8.757750	-160.955	-0.072751	0.617616	-0.621040	-0.622387	-0.050617	56.8462	-0.620372	-1.587607E+8	3.188283E-10	NaN
241	1.000000	0.662948	7.36741e+06	-50689.1	955.82	-29755	0.000000	0.000000	6.662982	-0.045686	NaN	0.000000	0.001670	0.001745	28.0802	0.107459	0.001928	55.7346	148.514	-164.059	-0.012391	0.661641	-0.577055	-0.578361	-0.045686	55.7346	-0.576440	-3.940811E+7	1.159304E-9	NaN
241	1.000000	0.707001	7.36741e+06	-50689.1	955.818	-29755	0.000000	0.000000	6.707036	-0.038032	NaN	0.000000	0.001616	0.001731	28.0798	0.069825	0.002064	33.8289	-123.107	-164.798	-0.088750	0.705650	-0.533001	-0.534353	-0.038032	33.8289	-0.532158	-9.60597e+06	3.959189E-9	NaN
241	1.000000	0.751002	7.36741e+06	-50689.1	955.819	-29755	0.000000	0.000000	6.751037	-0.029555	NaN	0.000000	0.001611	0.001684	28.0811	0.049956	0.001902	26.2613	128.389	-164.81	-0.101015	0.749731	-0.489001	-0.490272	-0.029555	26.2613	-0.488156	-2.34221e+06	1.261862E-8	NaN
241	1.000000	0.795026	7.36741e+06	-50689.1	955.818	-29755	0.000000	0.000000	6.795061	-0.008742	NaN	0.000000	0.001614	0.001656	28.0811	0.112034	0.001917	58.4384	-72.6814	-165.199	-0.050698	0.793718	-0.444977	-0.446285	-0.008742	58.4384	-0.444865	-578073	1.512227E-8	NaN
241	1.000000	0.839051	7.36741e+06	-50689.1	955.818	-29755	0.000000	0.000000	6.839085	-0.044930	NaN	0.000000	0.001580	0.001648	28.0813	0.074535	0.001979	37.6692	30.0259	-163.542	-0.063573	0.837701	-0.400952	-0.402301	-0.044930	37.6692	-0.400057	-133909	3.355269E-7	NaN
241	1.000000	0.883070	7.36741e+06	-50689.1	955.818	-29755	0.000000	0.000000	6.883104	-0.036582	NaN	0.000000	0.001591	0.001710	28.0797	0.027466	0.001949	14.0958	176.189	-163.05	-0.022775	0.881743	-0.356933	-0.358260	-0.036582	14.0958	-0.354986	-30150.9	1.213287E-6	NaN
241	1.000000	0.927080	7.36741e+06	-50689.1	955.818	-29755	0.000000	0.000000	6.927116	0.012105	NaN	0.000000	0.001611	0.001696	28.0797	0.072426	0.002000	36.2206	-96.3466	-163.975	0.032815	0.925731	-0.312923	-0.314272	0.012105	36.2206	-0.313174	-7378.71	-1.640481E-6	NaN
241	1.000000	0.971100	7.36741e+06	-50689.1	955.818	-29755	0.000000	0.000000	6.971134	-0.056510	NaN	0.000000	0.001644	0.001703	28.0801	0.127952	0.001962	65.2138	7.780703	-167.244	0.019478	0.969754	-0.268902	-0.270249	-0.056510	65.2138	-0.268252	-1566.61	3.607155E-5	NaN
241	1.000000	1.015129	7.36741e+06	-50689.1	955.819	-29755	0.000000	0.000000	7.015166	0.011996	NaN	0.000000	0.001598	0.001701	28.0816	0.065089	0.002066	31.5	93.6206	-165.442	-0.016566	1.013811	-0.224873	-0.226192	0.011996	31.5	-0.225159	-335.629	-3.574263E-5	NaN
241	1.000000	1.059147	7.36741e+06	-50689.1	955.819	-29755	0.000000	0.000000	7.059180	-0.066012	NaN	0.000000	0.001573	0.001671	28.0812	0.059354	0.002036	29.1586	130.587	-164.198	0.014377	1.057813	-0.180856	-0.182190	-0.066012	29.1586	-0.179158	-59.0377	0.001118	NaN
241	1.000000	1.103140	7.36741e+06	-50689.1	955.819	-29755	0.000000	0.000000	7.103178	0.036465	NaN	0.000000	0.001651	0.001661	28.0811	0.081798	0.002077	39.3762	-58.2885	-165.47	0.003824	1.101840	-0.136862	-0.138163	0.036465	39.3762	-0.137557	-10.639	-0.003428	NaN
241	1.000000	1.147150	7.36741e+06	-50689.1	955.819	-29755	0.000000	0.000000	7.147186	0.005008	NaN	0.000000	0.001664	0.001692	28.0806	0.038314	0.001930	19.8522	107.189	-163.532	-0.011250	1.145832	-0.092853	-0.094171	0.005008	19.8522	-0.093042	-1.272171	-0.003936	NaN
241	1.000000	1.191170	7.36741e+06	-50689.1	955.819	-29755	0.000000	0.000000	7.191204	-0.033242	NaN	0.000000	0.001659	0.001672	28.0802	0.012077	0.002035	5.934522	-35.6648	-165.802	0.028691	1.189873	-0.048833	-0.050130	-0.033242	5.934522	-0.044632	-0.062625	0.530807	NaN
241	1.000000	1.235199	7.36741e+06	-50689.1	955.82	-29755	0.000000	0.000000	7.235238	0.081589	NaN	0.000000	0.001648	0.001677	28.0803	0.033891	0.001978	17.1332	-81.914	-166.723	0.122664	1.233894	-0.004804	-0.006109	0.081589	17.1332	-0.008375	-0.005451	-14.9683	NaN
241	2.000000	1.255849	7.36741e+06	-50689.1	955.82	-29755	0.000000	0.000000	7.256676	19.2476	NaN	0.000000	0.001644	0.001671	28.0799	17.0026	0.001847	9207.16	4.369937	-171.472	18.0918	1.255521	0.015846	0.015519	19.2476	9207.16	0.014278	0.014335	1342.7	70258.6
241	2.000000	1.266821	7.36741e+06	-50689.1	955.82	-29755	0.000000	0.000000	7.268733	45.6214	NaN	0.000000	0.001677	0.001689	28.0811	28.2431	0.001739	16240.8	3.453361	-177.335	44.6778	1.266515	0.026818	0.026512	45.6214	16240.8	0.024711	0.030492	1496.17	84974.2
241	2.000000	1.277787	7.36741e+06	-50689.1	955.82	-29755	0.000000	0.000000	7.281146	80.8191	NaN	0.000000	0.001614	0.001710	28.0808	38.1694	0.001777	21480.1	2.623489	-178.836	80.7136	1.277471	0.037784	0.037468	80.8191	21480.1	0.034962	0.051658	1564.52	86345.9
241	2.000000	1.288777	7.36741e+06	-50689.1	955.818	-29755	0.000000	0.000000	7.294281	132.979	NaN	0.000000	0.001597	0.001721	28.0811	50.1125	0.001812	27652.2	5.573266	177.597	133.413	1.288352	0.048774	0.048349	132.979	27652.2	0.045168	0.078064	1703.46	90422.6
241	2.000000	1.299729	7.36741e+06	-50689.1	955.819	-29755	0.000000	0.000000	7.307853	196.69	NaN	0.000000	0.001609	0.001710	28.0797	60.9062	0.001759	34634.9	3.902040	176.401	196.304	1.299441	0.059726	0.059438	196.69	34634.9	0.055467	0.110058	1787.15	95384.1
241	2.000000	1.310704	7.36741e+06	-50689.1	955.819	-29755	0.000000	0.000000	7.321508	261.838	NaN	0.000000	0.001609	0.001693	28.0806	72.3556	0.001886	38360.2	5.391562	174.362	258.522	1.310359	0.070702	0.070356	261.838	38360.2	0.065582	0.146583	1786.28	91540.4
241	2.000000	1.321664	7.36741e+06	-50689.1	955.819	-29755	0.000000	0.000000	7.335904	345.41	NaN	0.000000	0.001604	0.001674	28.0802	81.1988	0.001815	44734.3	3.701175	174.289	343.108	1.321374	0.081661	0.081372	345.41	44734.3	0.075870	0.188784	1829.66	94065.8
241	2.000000	1.332797	7.36741e+06	-50689.1	955.819	-29755	0.000000	0.000000	7.350862	438.437	NaN	0.000000	0.001586	0.001713	28.0814	94.5192	0.001884	50170.7	8.032824	170.528	439.206	1.332229	0.092794	0.092226	438.437	50170.7	0.086240	0.236352	1855.02	94285.2
241	2.000000	1.343667	7.36741e+06	-50689.1	955.818	-29755	0.000000	0.000000	7.365396	527.526	NaN	0.000000	0.001660	0.001679	28.0812	104.449	0.001755	59507.4	1.303246	174.863	523.871	1.343522	0.103664	0.103520	527.526	59507.4	0.097016	0.291038	1812.57	100779
241	2.000000	1.346549	7.36741e+06	-50689.1	955.818	-29755	0.000000	0.000000	7.369832	565.309	NaN	0.000000	0.001627	0.001713	28.0815	107.4	0.001847	58139.9	3.919191	172.885	557.422	1.346333	0.106546	0.106330	565.309	58139.9	0.099254	0.303060	1865.33	96490.1

File: 2025-07-22_16-23-58_1_242.txt
2025-07-22, 16:23:58, 1
Index	Phase	Displacement	Time	Pos X	Pos Y	Pos Z	Rot A	Rot B	Piezo Z	Force A	Force B	Gripper	Voltage A	Voltage B	Temperature	Amplitude force	Amplitude pos	Stiffness	Phase shift	Phase excitation	Force A raw	Displacement raw	HMax	HMax raw	Real Force	Real Stiffness	Contact Depth	Area	Hardness	Reduced Mod.
[#]	[#]	[um]	[s]	[um]	[um]	[um]	[m°]	[m°]	[um]	[uN]	[uN]	[V]	[V]	[V]	[°C]	[uN]	[um]	[N/m]	[°]	[°]	[uN]	[um]	[um]	[um]	[uN]	[N/m]	[um]	[um^2]	[MPa]	[MPa]
242	1.000000	0.002119	7.36741e+06	-50739.1	955.818	-29755	0.000000	0.000000	6.002801	-0.018019	NaN	0.000000	0.001582	0.001721	28.0779	0.193222	0.000879	219.929	-56.9856	-160.079	0.012557	0.000830	-1.100938	-1.102227	-0.018019	219.929	-1.100877	-5.150366E+14	3.498619E-17	NaN
242	1.000000	0.044059	7.36741e+06	-50739.1	955.819	-29755	0.000000	0.000000	6.044739	-0.063150	NaN	0.000000	0.001599	0.001787	28.0791	0.099035	0.002088	47.4204	151.522	19.9325	0.037211	0.042705	-1.058998	-1.060353	-0.063150	47.4204	-1.058000	-1.367533E+14	4.617834E-16	NaN
242	1.000000	0.086097	7.36741e+06	-50739.1	955.818	-29755	0.000000	0.000000	6.086779	-0.022568	NaN	0.000000	0.001601	0.001751	28.079	0.080087	0.001906	42.0165	41.9498	-164.018	-0.054915	0.084740	-1.016960	-1.018318	-0.022568	42.0165	-1.016558	-3.789949E+13	5.954650E-16	NaN
242	1.000000	0.128105	7.36741e+06	-50739.1	955.818	-29755	0.000000	0.000000	6.128785	-0.064939	NaN	0.000000	0.001598	0.001717	28.079	0.026601	0.001887	14.0989	-37.0609	13.086	-0.031001	0.126711	-0.974953	-0.976347	-0.064939	14.0989	-0.971499	-9.372568E+12	6.928606E-15	NaN
242	1.000000	0.170115	7.36741e+06	-50739.1	955.818	-29755	0.000000	0.000000	6.170796	-0.037152	NaN	0.000000	0.001587	0.001732	28.0789	0.093365	0.001985	47.0428	-171.868	-163.906	-0.083381	0.168823	-0.932943	-0.934234	-0.037152	47.0428	-0.932350	-2.779181E+12	1.336807E-14	NaN
242	1.000000	0.212154	7.36741e+06	-50739.1	955.819	-29755	0.000000	0.000000	6.212837	0.006451	NaN	0.000000	0.001561	0.001711	28.0777	0.133056	0.002000	66.5321	152.19	17.4699	0.016860	0.210794	-0.890903	-0.892264	0.006451	66.5321	-0.890976	-7.675519E+11	-8.404179E-15	NaN
242	1.000000	0.254158	7.36741e+06	-50739.1	955.819	-29755	0.000000	0.000000	6.254838	-0.064753	NaN	0.000000	0.001583	0.001723	28.0778	0.017660	0.001912	9.234847	-115.948	-163.314	-0.050841	0.252837	-0.848900	-0.850221	-0.064753	9.234847	-0.843641	-1.756352E+11	3.686814E-13	NaN
242	1.000000	0.296160	7.36741e+06	-50739.1	955.818	-29755	0.000000	0.000000	6.296840	-0.056128	NaN	0.000000	0.001571	0.001768	28.0775	0.033151	0.002128	15.5757	-45.0715	16.1004	-0.028733	0.294792	-0.806898	-0.808266	-0.056128	15.5757	-0.804195	-5.126326E+10	1.094905E-12	NaN
242	1.000000	0.338188	7.36741e+06	-50739.1	955.818	-29755	0.000000	0.000000	6.338869	-0.040684	NaN	0.000000	0.001606	0.001770	28.0789	0.099946	0.002067	48.3616	-119.084	-164.737	0.014921	0.336904	-0.764870	-0.766154	-0.040684	48.3616	-0.764239	-1.468794E+10	2.769864E-12	NaN
242	1.000000	0.380198	7.36741e+06	-50739.1	955.819	-29755	0.000000	0.000000	6.380878	-0.062410	NaN	0.000000	0.001580	0.001748	28.0789	0.076867	0.001965	39.1226	37.9093	17.4808	-0.126015	0.378862	-0.722860	-0.724196	-0.062410	39.1226	-0.721663	-3.865039E+9	1.614727E-11	NaN
242	1.000000	0.422213	7.36741e+06	-50739.1	955.817	-29755	0.000000	0.000000	6.422897	0.028614	NaN	0.000000	0.001651	0.001744	28.0789	0.021918	0.001916	11.4366	43.2379	-165.483	-0.043516	0.420914	-0.680844	-0.682143	0.028614	11.4366	-0.682721	-1.136093E+9	-2.518607E-11	NaN
242	1.000000	0.464226	7.36742e+06	-50739.1	955.819	-29755	0.000000	0.000000	6.464909	0.003588	NaN	0.000000	0.001628	0.001729	28.0775	0.070104	0.001968	35.6218	102.81	13.9306	0.055441	0.462885	-0.638831	-0.640173	0.003588	35.6218	-0.638907	-2.852919E+8	-1.257627E-11	NaN
242	1.000000	0.506260	7.36742e+06	-50739.1	955.818	-29755	0.000000	0.000000	6.506942	-0.015874	NaN	0.000000	0.001563	0.001694	28.0778	0.113011	0.002180	51.8515	39.6732	-165.966	-0.063054	0.504961	-0.596798	-0.598097	-0.015874	51.8515	-0.596568	-7.467671E+7	2.125638E-10	NaN
242	1.000000	0.548296	7.36742e+06	-50739.1	955.818	-29755	0.000000	0.000000	6.548976	-0.046601	NaN	0.000000	0.001643	0.001695	28.0778	0.008072	0.002015	4.005090	-114.654	13.573	-0.042759	0.546945	-0.554762	-0.556112	-0.046601	4.005090	-0.546036	-1.496344E+7	3.114301E-9	NaN
242	1.000000	0.590330	7.36742e+06	-50739.1	955.818	-29755	0.000000	0.000000	6.591010	-0.063210	NaN	0.000000	0.001584	0.001716	28.0792	0.109000	0.002036	53.5447	138.813	-163.818	-0.005503	0.588954	-0.512728	-0.514104	-0.063210	53.5447	-0.511843	-5.01276e+06	1.260992E-8	NaN
242	1.000000	0.632318	7.36742e+06	-50739.1	955.818	-29755	0.000000	0.000000	6.633000	-0.020629	NaN	0.000000	0.001593	0.001688	28.0794	0.112020	0.001948	57.4943	-45.7706	15.2968	-0.003781	0.631012	-0.470740	-0.472046	-0.020629	57.4943	-0.470470	-1.32436e+06	1.557698E-8	NaN
242	1.000000	0.674341	7.36742e+06	-50739.1	955.817	-29755	0.000000	0.000000	6.675020	-0.098064	NaN	0.000000	0.001593	0.001705	28.0794	0.145453	0.002024	71.8778	51.8788	-164.057	-0.149979	0.673001	-0.428716	-0.430056	-0.098064	71.8778	-0.427693	-330688	2.965457E-7	NaN
242	1.000000	0.716385	7.36742e+06	-50739.1	955.818	-29755	0.000000	0.000000	6.717066	-0.038315	NaN	0.000000	0.001593	0.001723	28.0795	0.030892	0.001962	15.7483	-165.236	14.5918	0.063041	0.715046	-0.386672	-0.388011	-0.038315	15.7483	-0.384848	-81171.8	4.720219E-7	NaN
242	1.000000	0.758355	7.36742e+06	-50739.1	955.818	-29755	0.000000	0.000000	6.759032	-0.130050	NaN	0.000000	0.001617	0.001683	28.0781	0.042316	0.001996	21.203	154.892	-163.444	-0.092328	0.757029	-0.344703	-0.346029	-0.130050	21.203	-0.340102	-18325.2	7.096789E-6	NaN
242	1.000000	0.800406	7.36742e+06	-50739.1	955.818	-29755	0.000000	0.000000	6.801086	-0.061470	NaN	0.000000	0.001623	0.001703	28.078	0.013915	0.001781	7.813423	0.212490	13.2019	-0.071591	0.799051	-0.302652	-0.304006	-0.061470	7.813423	-0.296751	-4209.48	1.460278E-5	NaN
242	1.000000	0.842433	7.36742e+06	-50739.1	955.819	-29755	0.000000	0.000000	6.843112	-0.090669	NaN	0.000000	0.001669	0.001683	28.078	0.082014	0.001974	41.555	33.6855	-166.621	-0.105051	0.841091	-0.260624	-0.261967	-0.090669	41.555	-0.258988	-1130.83	8.017879E-5	NaN
242	1.000000	0.884428	7.36742e+06	-50739.1	955.818	-29755	0.000000	0.000000	6.885106	-0.098978	NaN	0.000000	0.001623	0.001682	28.0792	0.078244	0.002008	38.9731	125.691	16.4691	-0.119085	0.883054	-0.218630	-0.220004	-0.098978	38.9731	-0.216725	-246.17	0.000402	NaN
242	1.000000	0.926435	7.36742e+06	-50739.1	955.819	-29755	0.000000	0.000000	6.927115	-0.086088	NaN	0.000000	0.001578	0.001712	28.0792	0.016563	0.001959	8.453222	54.577	-164.21	-0.095582	0.925091	-0.176622	-0.177967	-0.086088	8.453222	-0.168984	-39.4417	0.002183	NaN
242	1.000000	0.968445	7.36742e+06	-50739.1	955.819	-29755	0.000000	0.000000	6.969126	-0.051464	NaN	0.000000	0.001554	0.001734	28.0794	0.067625	0.002047	33.0306	22.3911	12.2753	-0.050683	0.967068	-0.134612	-0.135990	-0.051464	33.0306	-0.133444	-8.881862	0.005794	NaN
242	1.000000	1.010462	7.36742e+06	-50739.1	955.819	-29755	0.000000	0.000000	7.011142	-0.067334	NaN	0.000000	0.001593	0.001715	28.0778	0.092023	0.002024	45.4631	-86.3742	-164.415	-0.043092	1.009117	-0.092595	-0.093941	-0.067334	45.4631	-0.091484	-1.170829	0.057509	NaN
242	1.000000	1.052503	7.36742e+06	-50739.1	955.82	-29755	0.000000	0.000000	7.053184	-0.042293	NaN	0.000000	0.001580	0.001717	28.0779	0.125039	0.001963	63.684	-171.04	16.3061	0.003180	1.051132	-0.050555	-0.051925	-0.042293	63.684	-0.050057	-0.091614	0.461648	NaN
242	1.000000	1.094503	7.36742e+06	-50739.1	955.82	-29755	0.000000	0.000000	7.095185	-0.026672	NaN	0.000000	0.001669	0.001728	28.078	0.052822	0.002050	25.7627	134.07	-167.356	-0.050356	1.093172	-0.008554	-0.009885	-0.026672	25.7627	-0.007778	-0.005101	5.228449	NaN
242	2.000000	1.119540	7.36742e+06	-50739.1	955.82	-29755	0.000000	0.000000	7.120900	16.4681	NaN	0.000000	0.001662	0.001742	28.0794	15.1002	0.001814	8322.16	6.136214	5.760160	15.7459	1.119219	0.016482	0.016162	16.4681	8322.16	0.014998	0.015283	1077.57	61504.9
242	2.000000	1.129994	7.36742e+06	-50739.1	955.821	-29755	0.000000	0.000000	7.132351	40.7248	NaN	0.000000	0.001640	0.001728	28.0794	26.622	0.001734	15349.7	3.268402	-178.778	38.6192	1.129734	0.026936	0.026676	40.7248	15349.7	0.024947	0.030918	1317.17	79756.4
242	2.000000	1.140519	7.36742e+06	-50739.1	955.82	-29755	0.000000	0.000000	7.144234	73.7386	NaN	0.000000	0.001564	0.001752	28.0793	36.6005	0.001781	20553.2	5.737785	-2.063164	74.1819	1.140158	0.037462	0.037100	73.7386	20553.2	0.034771	0.051214	1439.81	82976.9
242	2.000000	1.150947	7.36742e+06	-50739.1	955.821	-29755	0.000000	0.000000	7.156187	110.83	NaN	0.000000	0.001579	0.001732	28.0797	46.0896	0.001752	26307.2	2.969050	178.018	108.606	1.150649	0.047889	0.047592	110.83	26307.2	0.044729	0.076820	1442.72	86718.2
242	2.000000	1.161403	7.36742e+06	-50739.1	955.822	-29755	0.000000	0.000000	7.168953	166.998	NaN	0.000000	0.001572	0.001745	28.0783	57.3227	0.001772	32354.4	5.206462	-5.984442	162.67	1.161020	0.058345	0.057962	166.998	32354.4	0.054474	0.106743	1564.49	90476.9
242	2.000000	1.171887	7.36742e+06	-50739.1	955.82	-29755	0.000000	0.000000	7.181781	224.011	NaN	0.000000	0.001559	0.001669	28.0779	67.1293	0.001779	37730	2.147093	176.352	218.973	1.171522	0.068829	0.068464	224.011	37730	0.064376	0.141967	1577.91	91488.5
242	2.000000	1.182402	7.36742e+06	-50739.1	955.821	-29755	0.000000	0.000000	7.195012	290.051	NaN	0.000000	0.001587	0.001750	28.0778	76.7162	0.001790	42869.9	2.311252	-5.161770	287.48	1.182035	0.079344	0.078978	290.051	42869.9	0.074270	0.181890	1594.65	91837.7
242	2.000000	1.192881	7.36742e+06	-50739.1	955.822	-29755	0.000000	0.000000	7.208645	366.74	NaN	0.000000	0.001587	0.001700	28.0791	86.4266	0.001701	50814.2	1.570517	174.352	363.946	1.192621	0.089824	0.089563	366.74	50814.2	0.084411	0.227599	1611.34	97313.7
242	2.000000	1.203537	7.36742e+06	-50739.1	955.823	-29755	0.000000	0.000000	7.222323	440.222	NaN	0.000000	0.001553	0.001675	28.0789	96.9813	0.001765	54956	4.030064	-8.433789	444.769	1.203227	0.100479	0.100169	440.222	54956	0.094472	0.277647	1585.55	95288.7
242	2.000000	1.212372	7.36742e+06	-50739.1	955.822	-29755	0.000000	0.000000	7.234692	526.153	NaN	0.000000	0.001552	0.001720	28.0793	105.954	0.001779	59548.2	3.207267	-8.212223	522.928	1.212156	0.109315	0.109099	526.153	59548.2	0.102688	0.321949	1634.27	95884.4