Folder: unikorn_login/remote_trans/data/nanoindenter/0828-1/data/Data_2025-08-06,11h17m57s (part 199)

File: 2025-07-22_16-23-58_1_415.txt
2025-07-22, 16:23:58, 1
Index	Phase	Displacement	Time	Pos X	Pos Y	Pos Z	Rot A	Rot B	Piezo Z	Force A	Force B	Gripper	Voltage A	Voltage B	Temperature	Amplitude force	Amplitude pos	Stiffness	Phase shift	Phase excitation	Force A raw	Displacement raw	HMax	HMax raw	Real Force	Real Stiffness	Contact Depth	Area	Hardness	Reduced Mod.
[#]	[#]	[um]	[s]	[um]	[um]	[um]	[m°]	[m°]	[um]	[uN]	[uN]	[V]	[V]	[V]	[°C]	[uN]	[um]	[N/m]	[°]	[°]	[uN]	[um]	[um]	[um]	[uN]	[N/m]	[um]	[um^2]	[MPa]	[MPa]
415	1.000000	0.002900	7.36912e+06	-56339.1	1005.82	-29739.4	0.000000	0.000000	6.002815	0.047283	NaN	0.000000	0.001663	0.001743	28.079	0.111611	0.001045	106.788	-63.5897	-164.017	-0.006681	0.001641	-1.109005	-1.110265	0.047283	106.788	-1.109338	-6.689557E+14	-7.068111E-17	NaN
415	1.000000	0.044829	7.36912e+06	-56339.1	1005.82	-29739.4	0.000000	0.000000	6.044742	-0.008415	NaN	0.000000	0.001666	0.001642	28.0791	0.015478	0.001894	8.172294	151.423	14.3151	-0.083158	0.043438	-1.067076	-1.068467	-0.008415	8.172294	-1.066304	-1.768178E+14	4.759110E-17	NaN
415	1.000000	0.086821	7.36912e+06	-56339.1	1005.82	-29739.4	0.000000	0.000000	6.086733	-0.036666	NaN	0.000000	0.001636	0.001668	28.079	0.069355	0.002000	34.6709	-121.504	-164.586	-0.021864	0.085559	-1.025084	-1.026347	-0.036666	34.6709	-1.024291	-4.815937E+13	7.613441E-16	NaN
415	1.000000	0.128861	7.36912e+06	-56339.1	1005.82	-29739.4	0.000000	0.000000	6.128775	0.014438	NaN	0.000000	0.001660	0.001634	28.0802	0.045550	0.002000	22.773	-8.776474	16.1086	0.035461	0.127487	-0.983044	-0.984419	0.014438	22.773	-0.983520	-1.360913E+13	-1.060915E-15	NaN
415	1.000000	0.170862	7.36912e+06	-56339.1	1005.82	-29739.4	0.000000	0.000000	6.170776	0.013088	NaN	0.000000	0.001626	0.001641	28.0803	0.066003	0.001916	34.4403	-12.5934	-164.221	0.044025	0.169528	-0.941043	-0.942378	0.013088	34.4403	-0.941328	-3.673300E+12	-3.562950E-15	NaN
415	1.000000	0.212911	7.36912e+06	-56339.1	1005.82	-29739.4	0.000000	0.000000	6.212825	0.028355	NaN	0.000000	0.001681	0.001668	28.08	0.021156	0.001889	11.2	168.784	15.1478	0.027709	0.211579	-0.898995	-0.900327	0.028355	11.2	-0.900893	-1.045049E+12	-2.713295E-14	NaN
415	1.000000	0.254919	7.36912e+06	-56339.1	1005.82	-29739.4	0.000000	0.000000	6.254832	-0.009914	NaN	0.000000	0.001653	0.001664	28.08	0.033947	0.002052	16.5467	98.5305	-164.333	-0.084519	0.253613	-0.856986	-0.858292	-0.009914	16.5467	-0.856537	-2.625695E+11	3.775799E-14	NaN
415	1.000000	0.296986	7.36912e+06	-56339.1	1005.82	-29739.4	0.000000	0.000000	6.296899	0.002073	NaN	0.000000	0.001727	0.001679	28.0791	0.042259	0.002016	20.9597	-113.239	14.749	0.055946	0.295522	-0.814919	-0.816383	0.002073	20.9597	-0.814993	-7.183068E+10	-2.885596E-14	NaN
415	1.000000	0.338965	7.36912e+06	-56339.1	1005.82	-29739.4	0.000000	0.000000	6.338876	-0.051707	NaN	0.000000	0.001663	0.001654	28.0789	0.017880	0.001886	9.479358	-135.526	-166.775	0.018186	0.337630	-0.772941	-0.774275	-0.051707	9.479358	-0.768850	-1.696928E+10	3.047103E-12	NaN
415	1.000000	0.380975	7.36912e+06	-56339.1	1005.82	-29739.4	0.000000	0.000000	6.380889	0.001549	NaN	0.000000	0.001692	0.001656	28.0793	0.095386	0.002115	45.0905	140.951	17.6566	-0.015118	0.379597	-0.730930	-0.732309	0.001549	45.0905	-0.730956	-5.174090E+9	-2.993023E-13	NaN
415	1.000000	0.423007	7.36912e+06	-56339.1	1005.82	-29739.4	0.000000	0.000000	6.422922	0.050678	NaN	0.000000	0.001693	0.001662	28.0802	0.072184	0.001930	37.3956	-156.355	-166.237	0.046330	0.421716	-0.688899	-0.690189	0.050678	37.3956	-0.689915	-1.424814E+9	-3.556849E-11	NaN
415	1.000000	0.465018	7.36912e+06	-56339.1	1005.82	-29739.4	0.000000	0.000000	6.464933	0.029018	NaN	0.000000	0.001684	0.001722	28.0802	0.125763	0.001953	64.3945	8.040270	14.085	0.016124	0.463642	-0.646887	-0.648263	0.029018	64.3945	-0.647225	-3.710157E+8	-7.821196E-11	NaN
415	1.000000	0.507026	7.36912e+06	-56339.1	1005.82	-29739.4	0.000000	0.000000	6.506938	-0.016888	NaN	0.000000	0.001642	0.001673	28.0803	0.055462	0.002016	27.5088	-158.127	-166.518	-0.001113	0.505692	-0.604880	-0.606213	-0.016888	27.5088	-0.604419	-9.578790E+7	1.763036E-10	NaN
415	1.000000	0.549049	7.36912e+06	-56339.1	1005.82	-29739.4	0.000000	0.000000	6.548963	0.013231	NaN	0.000000	0.001649	0.001715	28.079	0.031947	0.002035	15.7	43.2949	14.5376	0.009465	0.547632	-0.562856	-0.564273	0.013231	15.7	-0.563488	-2.609890E+7	-5.069563E-10	NaN
415	1.000000	0.591048	7.36912e+06	-56339.1	1005.82	-29739.4	0.000000	0.000000	6.590963	0.064694	NaN	0.000000	0.001663	0.001718	28.0792	0.051365	0.001927	26.6614	-155.51	-163.382	-0.012906	0.589747	-0.520858	-0.522159	0.064694	26.6614	-0.522678	-7.09299e+06	-9.120792E-9	NaN
415	1.000000	0.633075	7.36912e+06	-56339.1	1005.82	-29739.4	0.000000	0.000000	6.632988	0.004737	NaN	0.000000	0.001716	0.001706	28.0826	0.080295	0.002020	39.7415	28.8663	16.8699	-0.072976	0.631740	-0.478830	-0.480165	0.004737	39.7415	-0.478920	-1.73942e+06	-2.723039E-9	NaN
415	1.000000	0.675126	7.36912e+06	-56339.1	1005.82	-29739.4	0.000000	0.000000	6.675040	0.015753	NaN	0.000000	0.001679	0.001689	28.0801	0.089994	0.001956	46.001	142.515	-165.139	0.021190	0.673825	-0.436780	-0.438080	0.015753	46.001	-0.437036	-448252	-3.514303E-8	NaN
415	1.000000	0.717122	7.36912e+06	-56339.1	1005.82	-29739.4	0.000000	0.000000	6.717036	0.021913	NaN	0.000000	0.001729	0.001678	28.0801	0.102562	0.001999	51.3089	-14.8176	13.1628	0.072457	0.715774	-0.394784	-0.396131	0.021913	51.3089	-0.395104	-113794	-1.925657E-7	NaN
415	1.000000	0.759107	7.36912e+06	-56339.1	1005.82	-29739.4	0.000000	0.000000	6.759019	-0.012174	NaN	0.000000	0.001752	0.001685	28.0799	0.092045	0.002040	45.11	146.526	-164.998	0.020020	0.757877	-0.352799	-0.354029	-0.012174	45.11	-0.352596	-27839.7	4.373028E-7	NaN
415	1.000000	0.801169	7.36912e+06	-56339.1	1005.82	-29739.4	0.000000	0.000000	6.801084	0.051281	NaN	0.000000	0.001706	0.001709	28.0801	0.073168	0.001957	37.3971	153.27	14.5955	-0.004925	0.799733	-0.310737	-0.312172	0.051281	37.3971	-0.311765	-7033.4	-7.291016E-6	NaN
415	1.000000	0.843162	7.36912e+06	-56339.1	1005.82	-29739.4	0.000000	0.000000	6.843078	0.058992	NaN	0.000000	0.001759	0.001711	28.0785	0.067606	0.001957	34.545	-101.436	-166.981	0.081983	0.841858	-0.268743	-0.270047	0.058992	34.545	-0.270024	-1666.91	-3.539015E-5	NaN
415	1.000000	0.885180	7.36912e+06	-56339.1	1005.82	-29739.4	0.000000	0.000000	6.885091	-0.067473	NaN	0.000000	0.001722	0.001700	28.0784	0.055803	0.001824	30.5964	-106.938	14.3597	-0.066745	0.883889	-0.226725	-0.228016	-0.067473	30.5964	-0.225071	-334.554	0.000202	NaN
415	1.000000	0.927187	7.36912e+06	-56339.1	1005.82	-29739.4	0.000000	0.000000	6.927100	0.010301	NaN	0.000000	0.001715	0.001747	28.0786	0.078265	0.001880	41.6216	111.071	-163.769	-0.066819	0.925877	-0.184719	-0.186028	0.010301	41.6216	-0.184904	-73.8783	-0.000139	NaN
415	1.000000	0.969200	7.36912e+06	-56339.1	1005.82	-29739.4	0.000000	0.000000	6.969111	-0.042735	NaN	0.000000	0.001768	0.001766	28.0798	0.125971	0.001865	67.5598	-105.247	14.4793	-0.012707	0.967883	-0.142705	-0.144022	-0.042735	67.5598	-0.142231	-13.0236	0.003281	NaN
415	1.000000	1.011226	7.36912e+06	-56339.1	1005.82	-29739.4	0.000000	0.000000	7.011140	0.027223	NaN	0.000000	0.001779	0.001764	28.0795	0.103207	0.002031	50.8086	171.993	-164.068	0.110992	1.009891	-0.100679	-0.102014	0.027223	50.8086	-0.101081	-1.930495	-0.014102	NaN
415	1.000000	1.053290	7.36912e+06	-56339.1	1005.82	-29739.4	0.000000	0.000000	7.053205	0.054792	NaN	0.000000	0.001778	0.001711	28.0797	0.017863	0.001835	9.733731	68.4444	15.4049	-0.010715	1.051817	-0.058615	-0.060088	0.054792	9.733731	-0.062837	-0.216837	-0.252688	NaN
415	1.000000	1.095269	7.36912e+06	-56339.1	1005.82	-29739.4	0.000000	0.000000	7.095183	0.016893	NaN	0.000000	0.001743	0.001766	28.0782	0.063051	0.001978	31.8723	110.167	-163.293	0.046304	1.093948	-0.016636	-0.017957	0.016893	31.8723	-0.017034	-0.010532	-1.603922	NaN
415	2.000000	1.124306	7.36912e+06	-56339.1	1005.82	-29739.4	0.000000	0.000000	7.124962	18.0551	NaN	0.000000	0.001725	0.001688	28.0783	14.1075	0.001742	8099.98	2.678054	8.109856	17.7481	1.123936	0.012401	0.012031	18.0551	8099.98	0.010729	0.010003	1804.98	73993.6
415	2.000000	1.134780	7.36913e+06	-56339.1	1005.82	-29739.4	0.000000	0.000000	7.136106	34.3341	NaN	0.000000	0.001750	0.001726	28.0784	24.7484	0.001757	14088	8.158826	179.524	35.0323	1.134395	0.022875	0.022489	34.3341	14088	0.021047	0.024215	1417.91	82715.1
415	2.000000	1.145226	7.36913e+06	-56339.1	1005.82	-29739.4	0.000000	0.000000	7.147671	61.5331	NaN	0.000000	0.001648	0.001719	28.0799	34.6733	0.001851	18733	3.954029	0.063210	59.5742	1.144859	0.033321	0.032954	61.5331	18733	0.030857	0.042539	1446.5	82982.3
415	2.000000	1.155617	7.36913e+06	-56339.1	1005.82	-29739.4	0.000000	0.000000	7.159656	100.284	NaN	0.000000	0.001683	0.001729	28.0798	44.5784	0.001846	24154	3.952299	178.603	96.4329	1.155376	0.043711	0.043470	100.284	24154	0.040597	0.065582	1529.15	86172.9
415	2.000000	1.166130	7.36913e+06	-56339.1	1005.82	-29739.4	0.000000	0.000000	7.172077	146.67	NaN	0.000000	0.001663	0.001717	28.0796	54.8553	0.001720	31885.3	2.765381	-3.031238	141.782	1.165824	0.054224	0.053919	146.67	31885.3	0.050774	0.094822	1546.8	94604.2
415	2.000000	1.176704	7.36913e+06	-56339.1	1005.82	-29739.4	0.000000	0.000000	7.184725	197.075	NaN	0.000000	0.001669	0.001687	28.0798	64.9073	0.001729	37542.5	3.617194	175.022	196.868	1.176319	0.064798	0.064414	197.075	37542.5	0.060861	0.128915	1528.73	95531.2
415	2.000000	1.187149	7.36913e+06	-56339.1	1005.82	-29739.4	0.000000	0.000000	7.197430	252.003	NaN	0.000000	0.001656	0.001718	28.0785	76.1519	0.001828	41659.9	0.352315	-2.208023	250.432	1.186808	0.075244	0.074903	252.003	41659.9	0.070707	0.166975	1509.23	93146.3
415	2.000000	1.197545	7.36913e+06	-56339.1	1005.82	-29739.4	0.000000	0.000000	7.210402	314.631	NaN	0.000000	0.001678	0.001728	28.0786	85.0607	0.001730	49159.4	0.472096	176.556	308.992	1.197412	0.085639	0.085506	314.631	49159.4	0.080839	0.210954	1491.47	97788.1
415	2.000000	1.208123	7.36913e+06	-56339.1	1005.82	-29739.4	0.000000	0.000000	7.224334	396.144	NaN	0.000000	0.001590	0.001723	28.0783	95.7607	0.001773	54016.4	4.424243	-8.296418	394.986	1.207805	0.096218	0.095900	396.144	54016.4	0.090718	0.258429	1532.89	97079.7
415	2.000000	1.218667	7.36913e+06	-56339.1	1005.82	-29739.4	0.000000	0.000000	7.238043	473.079	NaN	0.000000	0.001633	0.001728	28.0796	105.625	0.001818	58099.7	9.366062	166.951	476.293	1.218334	0.106761	0.106429	473.079	58099.7	0.100655	0.310701	1522.62	95230.5

File: 2025-07-22_16-23-58_1_416.txt
2025-07-22, 16:23:58, 1
Index	Phase	Displacement	Time	Pos X	Pos Y	Pos Z	Rot A	Rot B	Piezo Z	Force A	Force B	Gripper	Voltage A	Voltage B	Temperature	Amplitude force	Amplitude pos	Stiffness	Phase shift	Phase excitation	Force A raw	Displacement raw	HMax	HMax raw	Real Force	Real Stiffness	Contact Depth	Area	Hardness	Reduced Mod.
[#]	[#]	[um]	[s]	[um]	[um]	[um]	[m°]	[m°]	[um]	[uN]	[uN]	[V]	[V]	[V]	[°C]	[uN]	[um]	[N/m]	[°]	[°]	[uN]	[um]	[um]	[um]	[uN]	[N/m]	[um]	[um^2]	[MPa]	[MPa]
416	1.000000	0.002607	7.36913e+06	-56289.1	1005.82	-29739.5	0.000000	0.000000	6.002788	0.005464	NaN	0.000000	0.001744	0.001672	28.0783	0.078450	0.000910	86.2451	-157.609	-170.391	-0.001976	0.001379	-1.044703	-1.045930	0.005464	86.2451	-1.044750	-9.074821E+13	-6.020873E-17	NaN
416	1.000000	0.042588	7.36913e+06	-56289.1	1005.82	-29739.5	0.000000	0.000000	6.042768	-0.028995	NaN	0.000000	0.001684	0.001664	28.0783	0.042097	0.001953	21.5578	-32.9044	-163.226	-0.005872	0.041218	-1.004721	-1.006092	-0.028995	21.5578	-1.003712	-2.545356E+13	1.139133E-15	NaN
416	1.000000	0.082610	7.36913e+06	-56289.1	1005.82	-29739.5	0.000000	0.000000	6.082793	0.042582	NaN	0.000000	0.001665	0.001603	28.0783	0.063873	0.001931	33.0831	-119.142	-166.645	0.055625	0.081314	-0.964699	-0.965995	0.042582	33.0831	-0.965664	-7.820318E+12	-5.445087E-15	NaN
416	1.000000	0.122577	7.36913e+06	-56289.1	1005.82	-29739.5	0.000000	0.000000	6.122761	0.083140	NaN	0.000000	0.001683	0.001654	28.0797	0.105501	0.001996	52.8621	169.353	-168.567	0.061334	0.121308	-0.924733	-0.926001	0.083140	52.8621	-0.925912	-2.275208E+12	-3.654190E-14	NaN
416	1.000000	0.162607	7.36913e+06	-56289.1	1005.82	-29739.5	0.000000	0.000000	6.162790	0.042705	NaN	0.000000	0.001687	0.001619	28.0796	0.061796	0.002031	30.4256	31.591	-167.711	-0.029361	0.161303	-0.884702	-0.886007	0.042705	30.4256	-0.885755	-6.524152E+11	-6.545711E-14	NaN
416	1.000000	0.202638	7.36913e+06	-56289.1	1005.82	-29739.5	0.000000	0.000000	6.202821	0.048437	NaN	0.000000	0.001675	0.001632	28.0796	0.121305	0.002061	58.8517	-31.6261	-167.526	0.014833	0.201360	-0.844671	-0.845949	0.048437	58.8517	-0.845288	-1.848952E+11	-2.619705E-13	NaN
416	1.000000	0.242667	7.36913e+06	-56289.1	1005.82	-29739.5	0.000000	0.000000	6.242846	-0.027047	NaN	0.000000	0.001717	0.001649	28.0785	0.034078	0.001913	17.8142	-101.365	-166.671	0.021515	0.241368	-0.804643	-0.805941	-0.027047	17.8142	-0.803504	-5.016755E+10	5.391299E-13	NaN
416	1.000000	0.282661	7.36913e+06	-56289.1	1005.82	-29739.5	0.000000	0.000000	6.282843	0.027874	NaN	0.000000	0.001683	0.001642	28.0785	0.009004	0.002030	4.436310	85.2653	-164.225	0.062740	0.281394	-0.764648	-0.765915	0.027874	4.436310	-0.769360	-1.724276E+10	-1.616540E-12	NaN
416	1.000000	0.322683	7.36913e+06	-56289.1	1005.82	-29739.5	0.000000	0.000000	6.322864	0.011185	NaN	0.000000	0.001715	0.001668	28.0783	0.085431	0.002052	41.6342	100.698	-165.026	-0.005674	0.321392	-0.724626	-0.725917	0.011185	41.6342	-0.724828	-4.268771E+9	-2.620235E-12	NaN
416	1.000000	0.362726	7.36913e+06	-56289.1	1005.82	-29739.5	0.000000	0.000000	6.362908	0.027256	NaN	0.000000	0.001706	0.001700	28.0783	0.104038	0.002049	50.7715	34.3018	-165.293	0.037457	0.361437	-0.684583	-0.685872	0.027256	50.7715	-0.684986	-1.220067E+9	-2.233984E-11	NaN
416	1.000000	0.402706	7.36913e+06	-56289.1	1005.82	-29739.5	0.000000	0.000000	6.402888	0.017154	NaN	0.000000	0.001715	0.001632	28.0795	0.015135	0.001972	7.675648	-11.3178	-165.534	-0.010641	0.401377	-0.644603	-0.645932	0.017154	7.675648	-0.646279	-3.600949E+8	-4.763757E-11	NaN
416	1.000000	0.442718	7.36913e+06	-56289.1	1005.82	-29739.5	0.000000	0.000000	6.442899	0.002496	NaN	0.000000	0.001691	0.001633	28.0795	0.022919	0.002040	11.2342	81.6909	-166.32	0.073349	0.441408	-0.604591	-0.605901	0.002496	11.2342	-0.604758	-9.682077E+7	-2.577695E-11	NaN
416	1.000000	0.482731	7.36913e+06	-56289.1	1005.82	-29739.5	0.000000	0.000000	6.482912	-0.006299	NaN	0.000000	0.001681	0.001629	28.0797	0.051373	0.001850	27.7658	-145.948	-167.838	-0.057140	0.481407	-0.564578	-0.565902	-0.006299	27.7658	-0.564408	-2.687432E+7	2.343822E-10	NaN
416	1.000000	0.522775	7.36913e+06	-56289.1	1005.82	-29739.5	0.000000	0.000000	6.522956	0.011757	NaN	0.000000	0.001702	0.001613	28.0784	0.077271	0.002118	36.4866	9.779448	-166.913	0.070892	0.521441	-0.524535	-0.525869	0.011757	36.4866	-0.524776	-7.58584e+06	-1.549827E-9	NaN
416	1.000000	0.562802	7.36913e+06	-56289.1	1005.82	-29739.5	0.000000	0.000000	6.562983	0.004861	NaN	0.000000	0.001694	0.001636	28.0783	0.034557	0.002033	16.9987	2.946218	-165.582	-0.015796	0.561484	-0.484507	-0.485826	0.004861	16.9987	-0.484722	-2.09699e+06	-2.318126E-9	NaN
416	1.000000	0.602827	7.36913e+06	-56289.1	1005.82	-29739.5	0.000000	0.000000	6.603012	0.086728	NaN	0.000000	0.001706	0.001617	28.0785	0.054946	0.001911	28.7467	-140.754	-167.004	0.150191	0.601460	-0.444482	-0.445849	0.086728	28.7467	-0.446744	-614442	-1.411499E-7	NaN
416	1.000000	0.642802	7.36913e+06	-56289.1	1005.82	-29739.5	0.000000	0.000000	6.642983	-0.004709	NaN	0.000000	0.001732	0.001622	28.0797	0.055602	0.001998	27.827	106.987	-166.764	0.010924	0.641541	-0.404507	-0.405768	-0.004709	27.827	-0.404380	-154319	3.051778E-8	NaN
416	1.000000	0.682855	7.36913e+06	-56289.1	1005.82	-29739.5	0.000000	0.000000	6.683037	0.028510	NaN	0.000000	0.001719	0.001629	28.0801	0.075972	0.001984	38.2933	-165.252	-166.631	0.002380	0.681524	-0.364454	-0.365786	0.028510	38.2933	-0.365012	-42095.3	-6.772825E-7	NaN
416	1.000000	0.722872	7.36913e+06	-56289.1	1005.82	-29739.5	0.000000	0.000000	6.723055	0.041999	NaN	0.000000	0.001751	0.001645	28.0796	0.052700	0.002088	25.2436	99.0955	-167.072	0.016643	0.721502	-0.324437	-0.325808	0.041999	25.2436	-0.325685	-11276.8	-3.724375E-6	NaN
416	1.000000	0.762854	7.36913e+06	-56289.1	1005.82	-29739.5	0.000000	0.000000	6.763034	-0.007051	NaN	0.000000	0.001629	0.001641	28.0796	0.110269	0.001963	56.1699	-75.6654	-164.796	-0.041826	0.761547	-0.284456	-0.285762	-0.007051	56.1699	-0.284362	-2745.79	2.567947E-6	NaN
416	1.000000	0.802882	7.36913e+06	-56289.1	1005.82	-29739.5	0.000000	0.000000	6.803063	0.014041	NaN	0.000000	0.001693	0.001590	28.0782	0.088303	0.001968	44.8586	68.6945	-166.182	0.075094	0.801564	-0.244428	-0.245746	0.014041	44.8586	-0.244662	-679.525	-2.066361E-5	NaN
416	1.000000	0.842922	7.36913e+06	-56289.1	1005.82	-29739.5	0.000000	0.000000	6.843102	-0.043231	NaN	0.000000	0.001716	0.001644	28.0784	0.144623	0.002057	70.3167	-86.2243	-165.27	-0.002246	0.841570	-0.204387	-0.205739	-0.043231	70.3167	-0.203926	-152.765	0.000283	NaN
416	1.000000	0.882913	7.36913e+06	-56289.1	1005.82	-29739.5	0.000000	0.000000	6.883092	-0.033378	NaN	0.000000	0.001747	0.001661	28.0784	0.089490	0.002088	42.8574	-107.02	-167.487	-0.016928	0.881606	-0.164396	-0.165703	-0.033378	42.8574	-0.163812	-32.0199	0.001042	NaN
416	1.000000	0.922922	7.36913e+06	-56289.1	1005.82	-29739.5	0.000000	0.000000	6.923104	0.025110	NaN	0.000000	0.001690	0.001598	28.0797	0.053229	0.001996	26.6677	53.7365	-163.966	0.014739	0.921677	-0.124388	-0.125632	0.025110	26.6677	-0.125094	-6.107307	-0.004112	NaN
416	1.000000	0.962960	7.36913e+06	-56289.1	1005.82	-29739.5	0.000000	0.000000	6.963140	-0.033439	NaN	0.000000	0.001671	0.001624	28.0797	0.099812	0.001947	51.2714	-21.535	-166.761	-0.021444	0.961618	-0.084349	-0.085691	-0.033439	51.2714	-0.083860	-0.770868	0.043378	NaN
416	1.000000	1.002963	7.36913e+06	-56289.1	1005.82	-29739.5	0.000000	0.000000	7.003145	0.019528	NaN	0.000000	0.001686	0.001625	28.0799	0.012062	0.002036	5.925579	-7.522802	-169.49	0.063071	1.001646	-0.044346	-0.045664	0.019528	5.925579	-0.046818	-0.073035	-0.267374	NaN
416	1.000000	1.042950	7.36913e+06	-56289.1	1005.82	-29739.5	0.000000	0.000000	7.043139	0.193872	NaN	0.000000	0.001707	0.001588	28.0797	0.145454	0.001915	75.9643	55.5983	-166.432	0.155086	1.041679	-0.004359	-0.005630	0.193872	75.9643	-0.006273	-0.004203	-46.1311	NaN
416	2.000000	1.063550	7.36913e+06	-56289.1	1005.82	-29739.5	0.000000	0.000000	7.064455	17.6164	NaN	0.000000	0.001673	0.001572	28.0782	15.8927	0.001595	9966.44	4.077375	-175.808	18.0546	1.063258	0.016240	0.015949	17.6164	9966.44	0.014915	0.015172	1161.13	73925.7
416	2.000000	1.073485	7.36913e+06	-56289.1	1005.82	-29739.5	0.000000	0.000000	7.075191	37.0855	NaN	0.000000	0.001698	0.001552	28.0784	25.5945	0.001805	14179.1	6.864321	179.719	36.2951	1.073050	0.026175	0.025741	37.0855	14179.1	0.024214	0.029601	1252.86	75295.9
416	2.000000	1.083500	7.36913e+06	-56289.1	1005.82	-29739.5	0.000000	0.000000	7.086160	60.2813	NaN	0.000000	0.001688	0.001576	28.0784	35.4198	0.001773	19983	5.013898	177.76	61.5654	1.083202	0.036190	0.035893	60.2813	19983	0.033928	0.049279	1223.27	82243.7
416	2.000000	1.093411	7.36913e+06	-56289.1	1005.82	-29739.5	0.000000	0.000000	7.097610	97.6631	NaN	0.000000	0.001791	0.001572	28.0798	44.9126	0.001854	24228.4	5.112774	175.669	93.7022	1.093136	0.046102	0.045827	97.6631	24228.4	0.043079	0.072226	1352.18	82366.4
416	2.000000	1.103446	7.36914e+06	-56289.1	1005.82	-29739.5	0.000000	0.000000	7.109456	141.682	NaN	0.000000	0.001695	0.001571	28.0797	53.5907	0.001906	28123.7	3.501421	177.357	142.119	1.103104	0.056137	0.055794	141.682	28123.7	0.052359	0.099843	1419.04	81317.9
416	2.000000	1.113449	7.36914e+06	-56289.1	1005.82	-29739.5	0.000000	0.000000	7.121126	182.206	NaN	0.000000	0.001772	0.001574	28.0797	62.8068	0.001796	34969.8	9.648890	169.247	180.935	1.113096	0.066140	0.065787	182.206	34969.8	0.062232	0.133935	1360.41	87301.1
416	2.000000	1.123428	7.36914e+06	-56289.1	1005.82	-29739.5	0.000000	0.000000	7.132831	224.158	NaN	0.000000	0.001689	0.001575	28.0795	70.0405	0.001676	41792.1	3.379695	172.723	222.478	1.123287	0.076119	0.075978	224.158	41792.1	0.072096	0.172719	1297.82	91874.9
416	2.000000	1.133425	7.36914e+06	-56289.1	1005.82	-29739.5	0.000000	0.000000	7.145642	292.545	NaN	0.000000	0.001679	0.001621	28.0785	81.0171	0.001840	44035.6	4.747636	171.481	292.738	1.133122	0.086116	0.085812	292.545	44035.6	0.081134	0.212303	1377.96	87316.9
416	2.000000	1.143363	7.36914e+06	-56289.1	1005.82	-29739.5	0.000000	0.000000	7.158364	360.225	NaN	0.000000	0.001701	0.001661	28.0784	90.1313	0.001675	53817.6	4.679368	170.178	356.996	1.143080	0.096054	0.095771	360.225	53817.6	0.091034	0.260023	1385.36	96425.4
416	2.000000	1.153387	7.36914e+06	-56289.1	1005.82	-29739.5	0.000000	0.000000	7.171349	432.196	NaN	0.000000	0.001706	0.001615	28.0784	99.3163	0.001750	56760.7	1.659849	173.166	431.007	1.153105	0.106078	0.105795	432.196	56760.7	0.100367	0.309124	1398.13	93272.7
416	2.000000	1.155288	7.36914e+06	-56289.1	1005.82	-29739.5	0.000000	0.000000	7.174312	458.012	NaN	0.000000	0.001696	0.001602	28.0782	100.909	0.001739	58038.5	10.6479	164.203	453.075	1.154972	0.107979	0.107663	458.012	58038.5	0.102060	0.318459	1438.22	93964.3