Folder: unikorn_login/remote_trans/data/nanoindenter/0828-1/data/Data_2025-08-06,11h17m57s (part 149)

File: 2025-07-22_16-23-58_1_315.txt
2025-07-22, 16:23:58, 1
Index	Phase	Displacement	Time	Pos X	Pos Y	Pos Z	Rot A	Rot B	Piezo Z	Force A	Force B	Gripper	Voltage A	Voltage B	Temperature	Amplitude force	Amplitude pos	Stiffness	Phase shift	Phase excitation	Force A raw	Displacement raw	HMax	HMax raw	Real Force	Real Stiffness	Contact Depth	Area	Hardness	Reduced Mod.
[#]	[#]	[um]	[s]	[um]	[um]	[um]	[m°]	[m°]	[um]	[uN]	[uN]	[V]	[V]	[V]	[°C]	[uN]	[um]	[N/m]	[°]	[°]	[uN]	[um]	[um]	[um]	[uN]	[N/m]	[um]	[um^2]	[MPa]	[MPa]
315	1.000000	0.002703	7.36815e+06	-54389.1	955.818	-29744	0.000000	0.000000	6.002826	-0.046569	NaN	0.000000	0.001602	0.001679	28.0799	0.084364	0.001137	74.1816	16.3199	-162.436	0.040320	0.001423	-0.746053	-0.747333	-0.046569	74.1816	-0.745582	-8.186105E+9	5.688753E-12	NaN
315	1.000000	0.038623	7.36815e+06	-54389.1	955.818	-29744	0.000000	0.000000	6.038748	-0.000165	NaN	0.000000	0.001585	0.001710	28.0782	0.093991	0.001824	51.5203	-48.6251	-165.573	0.039068	0.037347	-0.710133	-0.711409	-0.000165	51.5203	-0.710130	-2.690475E+9	6.146601E-14	NaN
315	1.000000	0.074638	7.36815e+06	-54389.1	955.818	-29744	0.000000	0.000000	6.074763	-0.001244	NaN	0.000000	0.001594	0.001730	28.0785	0.079032	0.002062	38.3333	105.268	-169.088	-0.012838	0.073290	-0.674118	-0.675466	-0.001244	38.3333	-0.674094	-8.657928E+8	1.437103E-12	NaN
315	1.000000	0.110645	7.36815e+06	-54389.1	955.819	-29744	0.000000	0.000000	6.110769	-0.017576	NaN	0.000000	0.001584	0.001709	28.0782	0.050346	0.001958	25.7071	-43.271	-169.921	0.021748	0.109329	-0.638111	-0.639427	-0.017576	25.7071	-0.637598	-2.737358E+8	6.420886E-11	NaN
315	1.000000	0.146658	7.36815e+06	-54389.1	955.819	-29744	0.000000	0.000000	6.146783	0.017342	NaN	0.000000	0.001602	0.001679	28.0784	0.077393	0.002012	38.4593	-36.2801	-165.619	0.040289	0.145369	-0.602098	-0.603387	0.017342	38.4593	-0.602437	-8.995254E+7	-1.927892E-10	NaN
315	1.000000	0.182683	7.36815e+06	-54389.1	955.818	-29744	0.000000	0.000000	6.182808	0.015129	NaN	0.000000	0.001591	0.001690	28.0796	0.058814	0.001934	30.4157	-163.979	-168.002	-0.095920	0.181355	-0.566073	-0.567401	0.015129	30.4157	-0.566446	-2.867607E+7	-5.275813E-10	NaN
315	1.000000	0.218698	7.36815e+06	-54389.1	955.817	-29744	0.000000	0.000000	6.218824	0.023054	NaN	0.000000	0.001570	0.001697	28.0799	0.104792	0.002029	51.656	-136.25	-164.975	-0.035733	0.217353	-0.530058	-0.531403	0.023054	51.656	-0.530393	-9.07884e+06	-2.539312E-9	NaN
315	1.000000	0.254701	7.36815e+06	-54389.1	955.819	-29744	0.000000	0.000000	6.254823	-0.073028	NaN	0.000000	0.001595	0.001698	28.0799	0.071660	0.001996	35.8941	-124.062	-164.882	-0.103976	0.253343	-0.494055	-0.495413	-0.073028	35.8941	-0.492529	-2.69608e+06	2.708657E-8	NaN
315	1.000000	0.290702	7.36815e+06	-54389.1	955.818	-29744	0.000000	0.000000	6.290828	0.042512	NaN	0.000000	0.001614	0.001679	28.08	0.124189	0.001904	65.2349	0.341574	-166.452	-0.002836	0.289424	-0.458054	-0.459332	0.042512	65.2349	-0.458543	-900624	-4.720291E-8	NaN
315	1.000000	0.326736	7.36815e+06	-54389.1	955.818	-29744	0.000000	0.000000	6.326862	0.028778	NaN	0.000000	0.001629	0.001693	28.079	0.053754	0.002016	26.6635	-101.277	-164.923	0.013765	0.325383	-0.422020	-0.423373	0.028778	26.6635	-0.422829	-282181	-1.019855E-7	NaN
315	1.000000	0.362736	7.36815e+06	-54389.1	955.818	-29744	0.000000	0.000000	6.362867	0.129026	NaN	0.000000	0.001600	0.001703	28.0786	0.074431	0.002070	35.9516	-85.3369	-166.659	0.024726	0.361454	-0.386020	-0.387302	0.129026	35.9516	-0.388711	-92199.2	-1.399424E-6	NaN
315	1.000000	0.398776	7.36815e+06	-54389.1	955.819	-29744	0.000000	0.000000	6.398902	0.007415	NaN	0.000000	0.001605	0.001706	28.0784	0.031026	0.002012	15.422	61.4506	-164.39	-0.096457	0.397508	-0.349980	-0.351248	0.007415	15.422	-0.350340	-25819.2	-2.871932E-7	NaN
315	1.000000	0.434786	7.36815e+06	-54389.1	955.817	-29744	0.000000	0.000000	6.434913	0.042574	NaN	0.000000	0.001633	0.001740	28.0785	0.099996	0.002079	48.0954	168.609	-164.248	0.037924	0.433467	-0.313970	-0.315289	0.042574	48.0954	-0.314634	-7754.28	-5.490383E-6	NaN
315	1.000000	0.470804	7.36815e+06	-54389.1	955.819	-29744	0.000000	0.000000	6.470930	0.033599	NaN	0.000000	0.001621	0.001703	28.0798	0.122484	0.001942	63.0773	29.2765	-165.439	0.110416	0.469467	-0.277952	-0.279289	0.033599	63.0773	-0.278352	-2228.91	-1.507414E-5	NaN
315	1.000000	0.506846	7.36815e+06	-54389.1	955.818	-29744	0.000000	0.000000	6.506969	-0.037263	NaN	0.000000	0.001662	0.001734	28.0799	0.055778	0.001957	28.5006	91.1915	-168.163	0.027857	0.505551	-0.241910	-0.243205	-0.037263	28.5006	-0.240930	-594.382	6.269155E-5	NaN
315	1.000000	0.542823	7.36815e+06	-54389.1	955.818	-29744	0.000000	0.000000	6.542948	-0.004708	NaN	0.000000	0.001692	0.001708	28.0799	0.095710	0.001791	53.438	117.304	-166.61	0.012426	0.541541	-0.205933	-0.207215	-0.004708	53.438	-0.205867	-164.322	2.865223E-5	NaN
315	1.000000	0.578846	7.36815e+06	-54389.1	955.819	-29744	0.000000	0.000000	6.578974	0.072087	NaN	0.000000	0.001693	0.001668	28.0785	0.008138	0.002153	3.779381	-57.9652	-164.871	0.167515	0.577553	-0.169910	-0.171203	0.072087	3.779381	-0.184216	-71.9287	-0.001002	NaN
315	1.000000	0.614871	7.36815e+06	-54389.1	955.819	-29744	0.000000	0.000000	6.614998	0.048845	NaN	0.000000	0.001648	0.001679	28.0785	0.108906	0.002036	53.4939	141.164	-166.026	-0.013167	0.613562	-0.133885	-0.135194	0.048845	53.4939	-0.134570	-9.334239	-0.005233	NaN
315	1.000000	0.650869	7.36815e+06	-54389.1	955.819	-29744	0.000000	0.000000	6.650998	0.087822	NaN	0.000000	0.001675	0.001710	28.0785	0.055347	0.002094	26.4256	26.3097	-165.612	0.097056	0.649581	-0.097887	-0.099175	0.087822	26.4256	-0.100379	-1.862811	-0.047145	NaN
315	1.000000	0.686907	7.36815e+06	-54389.1	955.818	-29744	0.000000	0.000000	6.687034	0.045541	NaN	0.000000	0.001620	0.001710	28.0783	0.011907	0.002022	5.888462	98.6904	-165.79	0.104995	0.685605	-0.061849	-0.063151	0.045541	5.888462	-0.067649	-0.294710	-0.154528	NaN
315	1.000000	0.722913	7.36815e+06	-54389.1	955.819	-29744	0.000000	0.000000	6.723036	-0.034061	NaN	0.000000	0.001579	0.001741	28.0798	0.209610	0.002012	104.196	41.2279	-164.518	0.046386	0.721634	-0.025843	-0.027122	-0.034061	104.196	-0.025598	-0.017491	1.947380	NaN
315	1.000000	0.758923	7.36815e+06	-54389.1	955.819	-29744	0.000000	0.000000	6.759052	0.106764	NaN	0.000000	0.001595	0.001703	28.08	0.093838	0.002106	44.55	-3.559038	-162.411	0.080776	0.757635	0.010167	0.008879	0.106764	44.55	0.008369	0.007425	14.3794	472.366
315	1.000000	0.794934	7.36815e+06	-54389.1	955.818	-29744	0.000000	0.000000	6.795136	1.871070	NaN	0.000000	0.001635	0.001705	28.0798	1.002051	0.001872	535.165	25.6903	-164.702	1.752616	0.793638	0.046178	0.044882	1.871070	535.165	0.043555	0.073539	25.4431	1803.02
315	1.000000	0.830956	7.36815e+06	-54389.1	955.818	-29744	0.000000	0.000000	6.831176	2.304133	NaN	0.000000	0.001621	0.001682	28.0796	1.204953	0.002030	593.59	26.4543	-168.221	2.326593	0.829690	0.082200	0.080934	2.304133	593.59	0.079289	0.203911	11.2997	1200.99
315	1.000000	0.866942	7.36815e+06	-54389.1	955.819	-29744	0.000000	0.000000	6.867233	4.034233	NaN	0.000000	0.001640	0.001651	28.0784	2.217349	0.001889	1173.94	21.0631	-166.691	3.878405	0.865624	0.118186	0.116868	4.034233	1173.94	0.115608	0.397818	10.1409	1700.5
315	1.000000	0.902965	7.36815e+06	-54389.1	955.818	-29744	0.000000	0.000000	6.903374	6.894654	NaN	0.000000	0.001629	0.001714	28.0784	2.893907	0.002007	1442.09	22.8161	-167.689	6.922924	0.901642	0.154209	0.152886	6.894654	1442.09	0.150623	0.641668	10.7449	1644.8
315	1.000000	0.938983	7.36815e+06	-54389.1	955.819	-29744	0.000000	0.000000	6.939371	6.393886	NaN	0.000000	0.001651	0.001719	28.0785	3.661745	0.002059	1778.26	22.0085	-169.945	6.216641	0.937731	0.190227	0.188975	6.393886	1778.26	0.187530	0.960673	6.655630	1657.6
315	2.000000	0.956553	7.36815e+06	-54389.1	955.819	-29744	0.000000	0.000000	6.957050	9.045832	NaN	0.000000	0.001606	0.001677	28.0789	5.712516	0.002029	2815.74	16.8844	-172.474	9.193193	0.956288	0.207797	0.207532	9.045832	2815.74	0.205388	1.138635	7.944451	2410.87
315	2.000000	0.965489	7.36815e+06	-54389.1	955.819	-29744	0.000000	0.000000	6.966158	13.2221	NaN	0.000000	0.001616	0.001728	28.0799	6.703022	0.001943	3449.25	12.7394	-172.93	13.1259	0.965250	0.216733	0.216494	13.2221	3449.25	0.213858	1.228546	10.7624	2843.16
315	2.000000	0.974489	7.36815e+06	-54389.1	955.82	-29744	0.000000	0.000000	6.975313	16.988	NaN	0.000000	0.001589	0.001721	28.0801	7.907757	0.002065	3829.18	11.1222	-170.496	17.1207	0.974134	0.225733	0.225378	16.988	3829.18	0.222406	1.322913	12.8413	3041.68
315	2.000000	0.983428	7.36815e+06	-54389.1	955.819	-29744	0.000000	0.000000	6.984378	20.0637	NaN	0.000000	0.001591	0.001687	28.0801	8.338777	0.002025	4116.92	12.1147	-171.819	19.4881	0.983176	0.234672	0.234420	20.0637	4116.92	0.231017	1.421677	14.1127	3154.6
315	2.000000	0.992476	7.36815e+06	-54389.1	955.819	-29744	0.000000	0.000000	6.993557	23.2289	NaN	0.000000	0.001629	0.001699	28.0798	9.336340	0.002029	4602.55	8.851073	-169.648	22.9088	0.992139	0.243720	0.243383	23.2289	4602.55	0.239935	1.527920	15.2029	3401.9
315	2.000000	1.001448	7.36815e+06	-54389.1	955.82	-29744	0.000000	0.000000	7.002567	24.1621	NaN	0.000000	0.001592	0.001671	28.0789	9.984157	0.001997	4999.52	9.000923	-170.164	24.3293	1.001170	0.252692	0.252414	24.1621	4999.52	0.249067	1.640900	14.7249	3565.83
315	2.000000	1.010477	7.36815e+06	-54389.1	955.822	-29744	0.000000	0.000000	7.011672	26.0225	NaN	0.000000	0.001582	0.001642	28.0788	10.594	0.001988	5330.3	10.614	-173.003	26.4398	1.010113	0.261721	0.261357	26.0225	5330.3	0.258059	1.756315	14.8166	3674.71
315	2.000000	1.019431	7.36815e+06	-54389.1	955.82	-29744	0.000000	0.000000	7.020663	26.8989	NaN	0.000000	0.001583	0.001659	28.0785	10.6399	0.001890	5630.37	13.0685	-174.47	26.828	1.019088	0.270675	0.270332	26.8989	5630.37	0.267092	1.876424	14.3352	3755.3
315	2.000000	1.028439	7.36815e+06	-54389.1	955.82	-29744	0.000000	0.000000	7.029610	25.4379	NaN	0.000000	0.001590	0.001675	28.0794	11.3898	0.002027	5618.77	11.3739	-172.776	25.1639	1.028158	0.279683	0.279402	25.4379	5618.77	0.276287	2.003005	12.6999	3627.22
315	2.000000	1.037393	7.36815e+06	-54389.1	955.821	-29744	0.000000	0.000000	7.038649	27.4948	NaN	0.000000	0.001581	0.001653	28.0795	12.1559	0.002090	5816.52	14.8638	-175.974	27.5392	1.037052	0.288637	0.288296	27.4948	5816.52	0.285091	2.128298	12.9187	3642.67
315	2.000000	1.046400	7.36815e+06	-54389.1	955.821	-29744	0.000000	0.000000	7.047738	29.4674	NaN	0.000000	0.001582	0.001641	28.0794	12.6635	0.001973	6418.41	12.7663	-174.179	29.2824	1.046146	0.297644	0.297390	29.4674	6418.41	0.294201	2.262165	13.0262	3898.87
315	2.000000	1.048404	7.36815e+06	-54389.1	955.82	-29744	0.000000	0.000000	7.049740	29.4363	NaN	0.000000	0.001613	0.001672	28.0792	13.0305	0.002035	6404.59	12.4873	-174.324	29.481	1.048066	0.299648	0.299310	29.4363	6404.59	0.296201	2.292125	12.8424	3864.96

File: 2025-07-22_16-23-58_1_316.txt
2025-07-22, 16:23:58, 1
Index	Phase	Displacement	Time	Pos X	Pos Y	Pos Z	Rot A	Rot B	Piezo Z	Force A	Force B	Gripper	Voltage A	Voltage B	Temperature	Amplitude force	Amplitude pos	Stiffness	Phase shift	Phase excitation	Force A raw	Displacement raw	HMax	HMax raw	Real Force	Real Stiffness	Contact Depth	Area	Hardness	Reduced Mod.
[#]	[#]	[um]	[s]	[um]	[um]	[um]	[m°]	[m°]	[um]	[uN]	[uN]	[V]	[V]	[V]	[°C]	[uN]	[um]	[N/m]	[°]	[°]	[uN]	[um]	[um]	[um]	[uN]	[N/m]	[um]	[um^2]	[MPa]	[MPa]
316	1.000000	0.002720	7.36815e+06	-54439.1	955.818	-29743.9	0.000000	0.000000	6.002811	-0.014236	NaN	0.000000	0.001635	0.001661	28.0783	0.089083	0.000994	89.6352	55.7943	-163.466	-0.012709	0.001454	-1.069276	-1.070543	-0.014236	89.6352	-1.069157	-1.931373E+14	7.370969E-17	NaN
316	1.000000	0.042660	7.36815e+06	-54439.1	955.818	-29743.9	0.000000	0.000000	6.042755	0.066400	NaN	0.000000	0.001582	0.001663	28.0794	0.094011	0.002026	46.4075	-148.981	-168.924	0.030758	0.041370	-1.029337	-1.030627	0.066400	46.4075	-1.030410	-5.820905E+13	-1.140714E-15	NaN
316	1.000000	0.082659	7.36815e+06	-54439.1	955.818	-29743.9	0.000000	0.000000	6.082753	0.075287	NaN	0.000000	0.001574	0.001681	28.0794	0.087592	0.001969	44.481	-114.403	-166.277	0.018394	0.081317	-0.989338	-0.990680	0.075287	44.481	-0.990608	-1.695484E+13	-4.440458E-15	NaN
316	1.000000	0.122691	7.36815e+06	-54439.1	955.817	-29743.9	0.000000	0.000000	6.122780	-0.065146	NaN	0.000000	0.001626	0.001650	28.0794	0.063300	0.002187	28.9399	-154.126	-164.971	0.034243	0.121372	-0.949306	-0.950624	-0.065146	28.9399	-0.947617	-4.465725E+12	1.458803E-14	NaN
316	1.000000	0.162711	7.36816e+06	-54439.1	955.818	-29743.9	0.000000	0.000000	6.162803	0.008119	NaN	0.000000	0.001620	0.001698	28.0783	0.052512	0.002054	25.5664	137.39	-162.048	0.010711	0.161369	-0.909286	-0.910627	0.008119	25.5664	-0.909524	-1.366897E+12	-5.939560E-15	NaN
316	1.000000	0.202718	7.36816e+06	-54439.1	955.819	-29743.9	0.000000	0.000000	6.202810	0.013936	NaN	0.000000	0.001619	0.001659	28.0783	0.023983	0.002010	11.9333	-7.907271	-163.851	-0.042804	0.201401	-0.869279	-0.870596	0.013936	11.9333	-0.870155	-4.013658E+11	-3.472061E-14	NaN
316	1.000000	0.242723	7.36816e+06	-54439.1	955.819	-29743.9	0.000000	0.000000	6.242815	0.021975	NaN	0.000000	0.001582	0.001691	28.0782	0.069195	0.002091	33.0966	143.279	-166.847	-0.008474	0.241393	-0.829274	-0.830603	0.021975	33.0966	-0.829772	-1.139438E+11	-1.928609E-13	NaN
316	1.000000	0.282757	7.36816e+06	-54439.1	955.818	-29743.9	0.000000	0.000000	6.282849	0.003680	NaN	0.000000	0.001664	0.001728	28.0784	0.035449	0.002079	17.0508	-64.2051	-162.062	-0.070303	0.281413	-0.789240	-0.790584	0.003680	17.0508	-0.789402	-3.228165E+10	-1.140045E-13	NaN
316	1.000000	0.322774	7.36816e+06	-54439.1	955.819	-29743.9	0.000000	0.000000	6.322866	0.019005	NaN	0.000000	0.001589	0.001659	28.0793	0.073136	0.001992	36.709	-42.5502	-166.351	0.047384	0.321515	-0.749223	-0.750482	0.019005	36.709	-0.749611	-9.288060E+9	-2.046202E-12	NaN
316	1.000000	0.362778	7.36816e+06	-54439.1	955.818	-29743.9	0.000000	0.000000	6.362871	0.026718	NaN	0.000000	0.001667	0.001674	28.0795	0.050147	0.001937	25.8831	-64.3041	-163.818	0.007597	0.361479	-0.709219	-0.710518	0.026718	25.8831	-0.709993	-2.678880E+9	-9.973467E-12	NaN
316	1.000000	0.402813	7.36816e+06	-54439.1	955.819	-29743.9	0.000000	0.000000	6.402904	-0.021916	NaN	0.000000	0.001636	0.001685	28.0797	0.011462	0.001945	5.891912	-35.2029	-167.413	0.082475	0.401533	-0.669184	-0.670463	-0.021916	5.891912	-0.666394	-6.792487E+8	3.226546E-11	NaN
316	1.000000	0.442855	7.36816e+06	-54439.1	955.818	-29743.9	0.000000	0.000000	6.442949	0.047725	NaN	0.000000	0.001658	0.001712	28.0785	0.069710	0.001947	35.8055	-160.577	-163.177	-0.000949	0.441432	-0.629142	-0.630564	0.047725	35.8055	-0.630141	-2.162531E+8	-2.206904E-10	NaN
316	1.000000	0.482815	7.36816e+06	-54439.1	955.818	-29743.9	0.000000	0.000000	6.482907	0.022825	NaN	0.000000	0.001651	0.001709	28.0782	0.076289	0.002078	36.7066	61.9396	-162.342	-0.057625	0.481526	-0.589182	-0.590470	0.022825	36.7066	-0.589648	-5.995394E+7	-3.807063E-10	NaN
316	1.000000	0.522843	7.36816e+06	-54439.1	955.818	-29743.9	0.000000	0.000000	6.522935	0.024458	NaN	0.000000	0.001595	0.001691	28.0786	0.014299	0.002032	7.037303	30.5551	-168.117	-0.014065	0.521557	-0.549154	-0.550439	0.024458	7.037303	-0.551761	-1.796148E+7	-1.361710E-9	NaN
316	1.000000	0.562856	7.36816e+06	-54439.1	955.818	-29743.9	0.000000	0.000000	6.562950	0.037567	NaN	0.000000	0.001592	0.001703	28.0787	0.019725	0.001930	10.2212	-30.8657	-168.652	-0.022609	0.561558	-0.509140	-0.510438	0.037567	10.2212	-0.511897	-5.0215e+06	-7.481330E-9	NaN
316	1.000000	0.602874	7.36816e+06	-54439.1	955.818	-29743.9	0.000000	0.000000	6.602965	-0.004822	NaN	0.000000	0.001617	0.001712	28.0804	0.127260	0.002098	60.647	-68.9477	-160.859	-0.007655	0.601576	-0.469123	-0.470421	-0.004822	60.647	-0.469063	-1.26551e+06	3.810573E-9	NaN
316	1.000000	0.642892	7.36816e+06	-54439.1	955.819	-29743.9	0.000000	0.000000	6.642984	0.012533	NaN	0.000000	0.001610	0.001702	28.0797	0.056824	0.002149	26.4404	22.9298	-164.409	0.025680	0.641630	-0.429105	-0.430366	0.012533	26.4404	-0.429460	-350290	-3.577865E-8	NaN
316	1.000000	0.682925	7.36816e+06	-54439.1	955.818	-29743.9	0.000000	0.000000	6.683015	-0.022226	NaN	0.000000	0.001589	0.001701	28.0797	0.110937	0.001899	58.4108	-173.691	-164.856	0.008395	0.681603	-0.389072	-0.390394	-0.022226	58.4108	-0.388787	-92429.1	2.404628E-7	NaN
316	1.000000	0.722938	7.36816e+06	-54439.1	955.818	-29743.9	0.000000	0.000000	6.723029	0.001371	NaN	0.000000	0.001601	0.001662	28.0785	0.033397	0.001975	16.9055	-163.432	-167.158	0.007065	0.721659	-0.349059	-0.350337	0.001371	16.9055	-0.349120	-24787.2	-5.529194E-8	NaN
316	1.000000	0.762962	7.36816e+06	-54439.1	955.818	-29743.9	0.000000	0.000000	6.763051	-0.059151	NaN	0.000000	0.001600	0.001740	28.0786	0.041144	0.001786	23.0316	-101.137	-163.091	-0.037577	0.761647	-0.309034	-0.310349	-0.059151	23.0316	-0.307108	-6001.02	9.856828E-6	NaN
316	1.000000	0.802952	7.36816e+06	-54439.1	955.819	-29743.9	0.000000	0.000000	6.803045	0.025746	NaN	0.000000	0.001609	0.001703	28.0788	0.024895	0.002000	12.4494	-36.1707	-167.777	-0.011066	0.801690	-0.269045	-0.270306	0.025746	12.4494	-0.270596	-1700.59	-1.513942E-5	NaN
316	1.000000	0.842999	7.36816e+06	-54439.1	955.819	-29743.9	0.000000	0.000000	6.843093	0.059931	NaN	0.000000	0.001556	0.001749	28.079	0.115459	0.001924	59.9958	-122.946	-165.018	0.012739	0.841687	-0.228998	-0.230310	0.059931	59.9958	-0.229747	-396.758	-0.000151	NaN
316	1.000000	0.883036	7.36816e+06	-54439.1	955.818	-29743.9	0.000000	0.000000	6.883129	0.035198	NaN	0.000000	0.001583	0.001743	28.0795	0.061406	0.001988	30.8807	156.812	-167.135	-0.032564	0.881643	-0.188961	-0.190354	0.035198	30.8807	-0.189816	-89.3203	-0.000394	NaN
316	1.000000	0.923052	7.36816e+06	-54439.1	955.819	-29743.9	0.000000	0.000000	6.923145	0.048533	NaN	0.000000	0.001589	0.001738	28.0795	0.076202	0.002036	37.4264	97.2191	-166.324	-0.004729	0.921739	-0.148945	-0.150258	0.048533	37.4264	-0.149918	-18.051	-0.002689	NaN
316	1.000000	0.963040	7.36816e+06	-54439.1	955.819	-29743.9	0.000000	0.000000	6.963132	0.015660	NaN	0.000000	0.001573	0.001735	28.0797	0.116883	0.001852	63.1027	-171.484	-169.608	0.031839	0.961731	-0.108957	-0.110266	0.015660	63.1027	-0.109143	-2.882459	-0.005433	NaN
316	1.000000	1.003018	7.36816e+06	-54439.1	955.818	-29743.9	0.000000	0.000000	7.003108	-0.045156	NaN	0.000000	0.001588	0.001725	28.0787	0.053879	0.002135	25.2383	102.724	-163.81	0.020109	1.001743	-0.068979	-0.070254	-0.045156	25.2383	-0.067637	-0.294481	0.153342	NaN
316	1.000000	1.043041	7.36816e+06	-54439.1	955.817	-29743.9	0.000000	0.000000	7.043132	-0.026652	NaN	0.000000	0.001558	0.001744	28.0786	0.090951	0.002012	45.2106	-25.1671	-162.36	-0.002205	1.041807	-0.028955	-0.030189	-0.026652	45.2106	-0.028513	-0.020938	1.272870	NaN
316	2.000000	1.081643	7.36816e+06	-54439.1	955.818	-29743.9	0.000000	0.000000	7.082100	8.891553	NaN	0.000000	0.001525	0.001733	28.0789	9.014129	0.001756	5133.57	10.9008	-172.942	10.4115	1.081290	0.009646	0.009294	8.891553	5133.57	0.008347	0.007402	1201.26	54515.9
316	2.000000	1.091516	7.36816e+06	-54439.1	955.818	-29743.9	0.000000	0.000000	7.092528	22.3784	NaN	0.000000	0.001577	0.001696	28.0801	18.0959	0.001846	9803.81	3.211395	-171.169	21.5771	1.091280	0.019519	0.019284	22.3784	9803.81	0.017807	0.019213	1164.75	64620.6
316	2.000000	1.101538	7.36816e+06	-54439.1	955.818	-29743.9	0.000000	0.000000	7.103457	44.4383	NaN	0.000000	0.001607	0.001747	28.0801	29.5584	0.001728	17105.3	7.807716	179.182	43.14	1.101167	0.029541	0.029170	44.4383	17105.3	0.027592	0.035901	1237.79	82479.9
316	2.000000	1.111506	7.36816e+06	-54439.1	955.817	-29743.9	0.000000	0.000000	7.114321	66.2162	NaN	0.000000	0.001555	0.001747	28.0802	39.2048	0.001711	22916.9	3.642636	-179.899	64.729	1.111273	0.039509	0.039276	66.2162	22916.9	0.037342	0.057340	1154.79	87437.6
316	2.000000	1.121397	7.36816e+06	-54439.1	955.818	-29743.9	0.000000	0.000000	7.126310	117.227	NaN	0.000000	0.001585	0.001718	28.0801	51.0464	0.001928	26471.5	3.820977	178.873	112.575	1.121150	0.049400	0.049154	117.227	26471.5	0.046079	0.080679	1453.01	85147.6
316	2.000000	1.131460	7.36816e+06	-54439.1	955.818	-29743.9	0.000000	0.000000	7.139150	184.703	NaN	0.000000	0.001625	0.001739	28.0788	61.3236	0.001744	35164.8	2.577941	176.899	182.281	1.131200	0.059464	0.059204	184.703	35164.8	0.055524	0.110250	1675.31	96759.1
316	2.000000	1.141437	7.36816e+06	-54439.1	955.818	-29743.9	0.000000	0.000000	7.152508	266.919	NaN	0.000000	0.001577	0.001768	28.0786	71.774	0.001873	38321.8	2.555561	176.586	265.595	1.141204	0.069440	0.069208	266.919	38321.8	0.064216	0.141359	1888.24	93123.3
316	2.000000	1.151523	7.36816e+06	-54439.1	955.818	-29743.9	0.000000	0.000000	7.166653	365.601	NaN	0.000000	0.001586	0.001744	28.0786	81.2045	0.001958	41478.9	10.9169	168.678	367.995	1.150950	0.079526	0.078953	365.601	41478.9	0.072915	0.176148	2075.53	90294.4
316	2.000000	1.161310	7.36816e+06	-54439.1	955.818	-29743.9	0.000000	0.000000	7.180412	462.148	NaN	0.000000	0.001594	0.001757	28.0802	88.1661	0.001709	51576.1	0.273940	176.556	454.577	1.161004	0.089314	0.089007	462.148	51576.1	0.082593	0.219055	2109.73	100680
316	2.000000	1.171518	7.36816e+06	-54439.1	955.819	-29743.9	0.000000	0.000000	7.194020	544.813	NaN	0.000000	0.001582	0.001759	28.0802	98.7179	0.001853	53264.7	8.613911	168.136	548.818	1.171132	0.099521	0.099135	544.813	53264.7	0.091850	0.264159	2062.45	94684.8
316	2.000000	1.179331	7.36816e+06	-54439.1	955.819	-29743.9	0.000000	0.000000	7.205113	624.554	NaN	0.000000	0.001607	0.001722	28.0799	104.331	0.001746	59761.3	3.877715	172.229	619.159	1.179042	0.107334	0.107045	624.554	59761.3	0.099496	0.304374	2051.93	98966.7