Folder: unikorn_login/remote_trans/data/nanoindenter/0828-1/data/Data_2025-08-06,11h17m57s (part 113)

File: 2025-07-22_16-23-58_1_243.txt
2025-07-22, 16:23:58, 1
Index	Phase	Displacement	Time	Pos X	Pos Y	Pos Z	Rot A	Rot B	Piezo Z	Force A	Force B	Gripper	Voltage A	Voltage B	Temperature	Amplitude force	Amplitude pos	Stiffness	Phase shift	Phase excitation	Force A raw	Displacement raw	HMax	HMax raw	Real Force	Real Stiffness	Contact Depth	Area	Hardness	Reduced Mod.
[#]	[#]	[um]	[s]	[um]	[um]	[um]	[m°]	[m°]	[um]	[uN]	[uN]	[V]	[V]	[V]	[°C]	[uN]	[um]	[N/m]	[°]	[°]	[uN]	[um]	[um]	[um]	[uN]	[N/m]	[um]	[um^2]	[MPa]	[MPa]
243	1.000000	0.002546	7.36742e+06	-50789.1	955.818	-29754.9	0.000000	0.000000	6.002829	0.037303	NaN	0.000000	0.001590	0.001687	28.079	0.063439	0.000936	67.7706	128.276	-170.483	-0.045704	0.001244	-1.066575	-1.067877	0.037303	67.7706	-1.066988	-1.806022E+14	-2.065482E-16	NaN
243	1.000000	0.042476	7.36742e+06	-50789.1	955.819	-29754.9	0.000000	0.000000	6.042757	-0.022439	NaN	0.000000	0.001596	0.001679	28.0806	0.115225	0.002004	57.5038	164.935	-165.686	-0.035631	0.041174	-1.026645	-1.027947	-0.022439	57.5038	-1.026352	-5.133529E+13	4.371157E-16	NaN
243	1.000000	0.082515	7.36742e+06	-50789.1	955.818	-29754.9	0.000000	0.000000	6.082794	-0.045471	NaN	0.000000	0.001580	0.001695	28.0802	0.028385	0.001862	15.2474	12.936	-166.231	-0.118024	0.081194	-0.986606	-0.987927	-0.045471	15.2474	-0.984370	-1.397261E+13	3.254260E-15	NaN
243	1.000000	0.122495	7.36742e+06	-50789.1	955.818	-29754.9	0.000000	0.000000	6.122775	-0.026370	NaN	0.000000	0.001602	0.001698	28.0801	0.040903	0.001992	20.533	-169.063	-171.897	-0.024877	0.121244	-0.946627	-0.947877	-0.026370	20.533	-0.945663	-4.202783E+12	6.274521E-15	NaN
243	1.000000	0.162513	7.36742e+06	-50789.1	955.818	-29754.9	0.000000	0.000000	6.162794	-0.018862	NaN	0.000000	0.001592	0.001665	28.079	0.044614	0.002069	21.5623	16.6695	-166.225	-0.057804	0.161221	-0.906608	-0.907901	-0.018862	21.5623	-0.905952	-1.223160E+12	1.542108E-14	NaN
243	1.000000	0.202514	7.36742e+06	-50789.1	955.818	-29754.9	0.000000	0.000000	6.202796	0.012387	NaN	0.000000	0.001583	0.001668	28.0792	0.013985	0.002005	6.974997	-115.39	-163.489	-0.020072	0.201236	-0.866607	-0.867885	0.012387	6.974997	-0.867939	-3.745959E+11	-3.306748E-14	NaN
243	1.000000	0.242559	7.36742e+06	-50789.1	955.819	-29754.9	0.000000	0.000000	6.242838	-0.050591	NaN	0.000000	0.001580	0.001714	28.079	0.052473	0.001975	26.562	-40.8303	-167.012	-0.034137	0.241209	-0.826562	-0.827912	-0.050591	26.562	-0.825134	-9.858747E+10	5.131620E-13	NaN
243	1.000000	0.282559	7.36742e+06	-50789.1	955.819	-29754.9	0.000000	0.000000	6.282840	-0.001488	NaN	0.000000	0.001565	0.001684	28.079	0.114651	0.001885	60.8186	-93.5852	-166.645	0.038965	0.281258	-0.786562	-0.787863	-0.001488	60.8186	-0.786544	-2.952146E+10	5.038907E-14	NaN
243	1.000000	0.322586	7.36742e+06	-50789.1	955.818	-29754.9	0.000000	0.000000	6.322866	-0.021618	NaN	0.000000	0.001672	0.001710	28.0802	0.044725	0.002035	21.9796	161.111	-165.471	-0.090185	0.321266	-0.746536	-0.747855	-0.021618	21.9796	-0.745798	-8.241663E+9	2.622981E-12	NaN
243	1.000000	0.362588	7.36742e+06	-50789.1	955.818	-29754.9	0.000000	0.000000	6.362868	-0.032250	NaN	0.000000	0.001623	0.001736	28.0801	0.040447	0.001986	20.3621	-130.55	-167.382	-0.054410	0.361279	-0.706533	-0.707843	-0.032250	20.3621	-0.705345	-2.314799E+9	1.393228E-11	NaN
243	1.000000	0.402620	7.36742e+06	-50789.1	955.819	-29754.9	0.000000	0.000000	6.402904	0.065683	NaN	0.000000	0.001611	0.001698	28.0797	0.054885	0.001902	28.8628	149.666	-166.805	0.067841	0.401282	-0.666501	-0.667839	0.065683	28.8628	-0.668208	-7.192137E+8	-9.132644E-11	NaN
243	1.000000	0.442634	7.36742e+06	-50789.1	955.819	-29754.9	0.000000	0.000000	6.442913	-0.046172	NaN	0.000000	0.001654	0.001698	28.0787	0.129574	0.002083	62.2025	-28.1035	-168.538	-0.030224	0.441305	-0.626488	-0.627817	-0.046172	62.2025	-0.625931	-1.892938E+8	2.439189E-10	NaN
243	1.000000	0.482631	7.36742e+06	-50789.1	955.818	-29754.9	0.000000	0.000000	6.482916	0.096279	NaN	0.000000	0.001619	0.001676	28.079	0.009478	0.001844	5.140484	-14.978	-166.946	0.071043	0.481348	-0.586490	-0.587774	0.096279	5.140484	-0.600537	-8.469588E+7	-1.136766E-9	NaN
243	1.000000	0.522682	7.36743e+06	-50789.1	955.819	-29754.9	0.000000	0.000000	6.522966	0.069931	NaN	0.000000	0.001636	0.001670	28.0787	0.058564	0.002130	27.4978	-6.377851	-164.683	0.034736	0.521411	-0.546439	-0.547710	0.069931	27.4978	-0.548347	-1.610847E+7	-4.341243E-9	NaN
243	1.000000	0.562682	7.36743e+06	-50789.1	955.819	-29754.9	0.000000	0.000000	6.562965	0.040035	NaN	0.000000	0.001695	0.001687	28.0787	0.043234	0.001974	21.8986	-120.356	-163.586	0.088196	0.561392	-0.506439	-0.507729	0.040035	21.8986	-0.507810	-4.40464e+06	-9.089369E-9	NaN
243	1.000000	0.602686	7.36743e+06	-50789.1	955.818	-29754.9	0.000000	0.000000	6.602969	0.031075	NaN	0.000000	0.001647	0.001681	28.08	0.105000	0.001933	54.3223	107.965	-168.473	0.029346	0.601414	-0.466435	-0.467708	0.031075	54.3223	-0.466864	-1.17872e+06	-2.636360E-8	NaN
243	1.000000	0.642738	7.36743e+06	-50789.1	955.818	-29754.9	0.000000	0.000000	6.643022	0.056891	NaN	0.000000	0.001628	0.001675	28.0798	0.060090	0.002000	30.0513	-104.908	-165.263	0.023794	0.641408	-0.426383	-0.427714	0.056891	30.0513	-0.427803	-331870	-1.714267E-7	NaN
243	1.000000	0.682736	7.36743e+06	-50789.1	955.819	-29754.9	0.000000	0.000000	6.683017	-0.026008	NaN	0.000000	0.001608	0.001711	28.0798	0.033229	0.001929	17.2306	-14.8829	-166.983	0.068466	0.681416	-0.386385	-0.387705	-0.026008	17.2306	-0.385253	-82263.9	3.161550E-7	NaN
243	1.000000	0.722766	7.36743e+06	-50789.1	955.819	-29754.9	0.000000	0.000000	6.723046	-0.048369	NaN	0.000000	0.001660	0.001703	28.0788	0.095557	0.001975	48.3953	-82.2267	-163.643	-0.076119	0.721433	-0.346355	-0.347689	-0.048369	48.3953	-0.345605	-22037.4	2.194868E-6	NaN
243	1.000000	0.762804	7.36743e+06	-50789.1	955.818	-29754.9	0.000000	0.000000	6.763085	-0.012353	NaN	0.000000	0.001588	0.001705	28.0788	0.105173	0.001919	54.7949	42.4132	-165.87	-0.033208	0.761423	-0.306317	-0.307698	-0.012353	54.7949	-0.306148	-5807.47	2.127140E-6	NaN
243	1.000000	0.802802	7.36743e+06	-50789.1	955.818	-29754.9	0.000000	0.000000	6.803083	-0.008179	NaN	0.000000	0.001635	0.001669	28.0787	0.042203	0.002212	19.0795	131.327	-167.026	-0.025499	0.801515	-0.266319	-0.267606	-0.008179	19.0795	-0.265998	-1447.47	5.650582E-6	NaN
243	1.000000	0.842834	7.36743e+06	-50789.1	955.818	-29754.9	0.000000	0.000000	6.843115	-0.007419	NaN	0.000000	0.001573	0.001673	28.0799	0.056630	0.002058	27.5122	-75.6235	-165.01	-0.008188	0.841514	-0.226287	-0.227607	-0.007419	27.5122	-0.226085	-347.179	2.136833E-5	NaN
243	1.000000	0.882815	7.36743e+06	-50789.1	955.818	-29754.9	0.000000	0.000000	6.883097	0.025160	NaN	0.000000	0.001591	0.001658	28.0799	0.050262	0.002056	24.4507	52.5902	-162.347	0.012698	0.881500	-0.186306	-0.187622	0.025160	24.4507	-0.187078	-80.369	-0.000313	NaN
243	1.000000	0.922831	7.36743e+06	-50789.1	955.819	-29754.9	0.000000	0.000000	6.923111	-0.027354	NaN	0.000000	0.001629	0.001674	28.0796	0.120332	0.001950	61.7076	83.1122	-167.454	-0.028187	0.921517	-0.146290	-0.147604	-0.027354	61.7076	-0.145958	-15.2708	0.001791	NaN
243	1.000000	0.962837	7.36743e+06	-50789.1	955.819	-29754.9	0.000000	0.000000	6.963118	-0.011750	NaN	0.000000	0.001569	0.001692	28.08	0.110345	0.001909	57.8018	38.7048	-166.531	0.004275	0.961519	-0.106284	-0.107602	-0.011750	57.8018	-0.106131	-2.486259	0.004726	NaN
243	1.000000	1.002888	7.36743e+06	-50789.1	955.818	-29754.9	0.000000	0.000000	7.003169	-0.008120	NaN	0.000000	0.001600	0.001701	28.0789	0.057509	0.001905	30.1912	-2.393583	-164.741	-0.010392	1.001537	-0.066233	-0.067585	-0.008120	30.1912	-0.066031	-0.266124	0.030512	NaN
243	1.000000	1.042871	7.36743e+06	-50789.1	955.819	-29754.9	0.000000	0.000000	7.043152	-0.003710	NaN	0.000000	0.001573	0.001692	28.0791	0.069161	0.002031	34.0542	176.163	-163.631	-0.045196	1.041581	-0.026251	-0.027540	-0.003710	34.0542	-0.026169	-0.018108	0.204861	NaN
243	2.000000	1.080444	7.36743e+06	-50789.1	955.819	-29754.9	0.000000	0.000000	7.081048	7.842985	NaN	0.000000	0.001635	0.001682	28.0795	8.955655	0.001654	5416.06	10.2082	-178.391	7.363200	1.080150	0.011323	0.011028	7.842985	5416.06	0.010237	0.009446	830.316	50914.1
243	2.000000	1.090388	7.36743e+06	-50789.1	955.819	-29754.9	0.000000	0.000000	7.091574	22.016	NaN	0.000000	0.001658	0.001724	28.0804	19.4146	0.001785	10878.6	3.923711	-174.708	21.8922	1.090028	0.021266	0.020907	22.016	10878.6	0.019748	0.022148	994.019	66784.5
243	2.000000	1.100349	7.36743e+06	-50789.1	955.819	-29754.9	0.000000	0.000000	7.102459	44.4681	NaN	0.000000	0.001579	0.001657	28.0814	29.9549	0.001754	17080.2	6.367333	177.97	44.0361	1.100078	0.031228	0.030956	44.4681	17080.2	0.029275	0.039254	1132.82	78763.2
243	2.000000	1.110305	7.36743e+06	-50789.1	955.819	-29754.9	0.000000	0.000000	7.113722	76.2483	NaN	0.000000	0.001564	0.001681	28.0803	40.7976	0.001855	21997.3	7.375321	175.198	76.8637	1.109981	0.041184	0.040859	76.2483	21997.3	0.038584	0.060421	1261.96	81761.6
243	2.000000	1.120273	7.36743e+06	-50789.1	955.819	-29754.9	0.000000	0.000000	7.125224	113.562	NaN	0.000000	0.001564	0.001693	28.0803	48.5947	0.001950	24918.8	4.317408	176.974	111.707	1.120050	0.051152	0.050929	113.562	24918.8	0.047734	0.085538	1327.63	77843.5
243	2.000000	1.130281	7.36743e+06	-50789.1	955.82	-29754.9	0.000000	0.000000	7.136985	156.197	NaN	0.000000	0.001550	0.001689	28.0788	57.5314	0.001767	32566	2.167403	176.381	155.155	1.130032	0.061159	0.060911	156.197	32566	0.057562	0.117211	1332.61	86906.7
243	2.000000	1.140255	7.36743e+06	-50789.1	955.819	-29754.9	0.000000	0.000000	7.149108	208.445	NaN	0.000000	0.001631	0.001688	28.079	68.2654	0.001810	37724.7	5.106863	173.123	206.671	1.139967	0.071133	0.070845	208.445	37724.7	0.066989	0.152056	1370.84	88388.7
243	2.000000	1.150212	7.36743e+06	-50789.1	955.819	-29754.9	0.000000	0.000000	7.161286	262.474	NaN	0.000000	0.001589	0.001668	28.0791	77.647	0.001843	42124.9	3.522062	173.169	257.12	1.149880	0.081090	0.080759	262.474	42124.9	0.076417	0.191167	1373.01	88024.8
243	2.000000	1.160177	7.36743e+06	-50789.1	955.818	-29754.9	0.000000	0.000000	7.173899	326.843	NaN	0.000000	0.001594	0.001646	28.0802	87.6893	0.001747	50204.5	4.798721	170.86	321.115	1.159930	0.091056	0.090809	326.843	50204.5	0.086173	0.236028	1384.76	94413.3
243	2.000000	1.170221	7.36743e+06	-50789.1	955.82	-29754.9	0.000000	0.000000	7.186867	397.952	NaN	0.000000	0.001562	0.001701	28.0803	95.261	0.001705	55868.9	4.844373	169.672	396.254	1.169915	0.101100	0.100793	397.952	55868.9	0.095758	0.284379	1399.37	95718.3
243	2.000000	1.178246	7.36743e+06	-50789.1	955.82	-29754.9	0.000000	0.000000	7.197690	465.975	NaN	0.000000	0.001564	0.001678	28.0802	101.643	0.001799	56514.1	6.820011	169.273	465.37	1.177756	0.109125	0.108634	465.975	56514.1	0.102941	0.323364	1441.02	90799.6

File: 2025-07-22_16-23-58_1_244.txt
2025-07-22, 16:23:58, 1
Index	Phase	Displacement	Time	Pos X	Pos Y	Pos Z	Rot A	Rot B	Piezo Z	Force A	Force B	Gripper	Voltage A	Voltage B	Temperature	Amplitude force	Amplitude pos	Stiffness	Phase shift	Phase excitation	Force A raw	Displacement raw	HMax	HMax raw	Real Force	Real Stiffness	Contact Depth	Area	Hardness	Reduced Mod.
[#]	[#]	[um]	[s]	[um]	[um]	[um]	[m°]	[m°]	[um]	[uN]	[uN]	[V]	[V]	[V]	[°C]	[uN]	[um]	[N/m]	[°]	[°]	[uN]	[um]	[um]	[um]	[uN]	[N/m]	[um]	[um^2]	[MPa]	[MPa]
244	1.000000	0.002237	7.36743e+06	-50839.1	955.819	-29754.7	0.000000	0.000000	6.002798	0.013738	NaN	0.000000	0.001553	0.001705	28.0777	0.038918	0.000993	39.1842	-80.8067	-162.423	0.039181	0.000954	-1.069534	-1.070817	0.013738	39.1842	-1.069797	-1.969955E+14	-6.973685E-17	NaN
244	1.000000	0.042190	7.36743e+06	-50839.1	955.819	-29754.7	0.000000	0.000000	6.042751	0.014954	NaN	0.000000	0.001628	0.001695	28.0792	0.049862	0.001906	26.1582	174.135	-165.774	0.071245	0.040828	-1.029581	-1.030943	0.014954	26.1582	-1.030010	-5.749243E+13	-2.601064E-16	NaN
244	1.000000	0.082215	7.36743e+06	-50839.1	955.818	-29754.7	0.000000	0.000000	6.082776	0.031642	NaN	0.000000	0.001578	0.001687	28.0793	0.037088	0.001960	18.9206	145.864	-166.143	0.035146	0.080918	-0.989556	-0.990853	0.031642	18.9206	-0.990810	-1.706176E+13	-1.854537E-15	NaN
244	1.000000	0.122183	7.36743e+06	-50839.1	955.819	-29754.7	0.000000	0.000000	6.122745	0.069572	NaN	0.000000	0.001574	0.001716	28.0789	0.065451	0.002041	32.065	141.187	-166.522	0.084164	0.120919	-0.949588	-0.950852	0.069572	32.065	-0.951216	-4.993709E+12	-1.393185E-14	NaN
244	1.000000	0.162235	7.36743e+06	-50839.1	955.818	-29754.7	0.000000	0.000000	6.162795	0.016572	NaN	0.000000	0.001652	0.001706	28.0792	0.108115	0.001959	55.1876	-162.461	-165.202	-0.018561	0.160949	-0.909536	-0.910822	0.016572	55.1876	-0.909762	-1.377031E+12	-1.203478E-14	NaN
244	1.000000	0.202237	7.36743e+06	-50839.1	955.819	-29754.7	0.000000	0.000000	6.202799	0.038387	NaN	0.000000	0.001655	0.001697	28.0779	0.019195	0.001980	9.695095	37.1314	-168.704	0.089491	0.200978	-0.869534	-0.870793	0.038387	9.695095	-0.872503	-4.318259E+11	-8.889352E-14	NaN
244	1.000000	0.242247	7.36743e+06	-50839.1	955.818	-29754.7	0.000000	0.000000	6.242806	-0.032344	NaN	0.000000	0.001582	0.001675	28.0779	0.032188	0.002201	14.6266	63.0864	-163.824	-0.048342	0.240934	-0.829524	-0.830837	-0.032344	14.6266	-0.827865	-1.073616E+11	3.012644E-13	NaN
244	1.000000	0.282306	7.36743e+06	-50839.1	955.819	-29754.7	0.000000	0.000000	6.282867	0.010494	NaN	0.000000	0.001574	0.001646	28.0781	0.093266	0.001995	46.7527	-89.3504	-168.243	0.043793	0.280956	-0.789465	-0.790815	0.010494	46.7527	-0.789633	-3.251605E+10	-3.227270E-13	NaN
244	1.000000	0.322277	7.36743e+06	-50839.1	955.819	-29754.7	0.000000	0.000000	6.322838	0.018391	NaN	0.000000	0.001612	0.001646	28.079	0.047559	0.001920	24.7756	178.035	-165.047	0.073963	0.320958	-0.749494	-0.750813	0.018391	24.7756	-0.750051	-9.416989E+9	-1.952988E-12	NaN
244	1.000000	0.362314	7.36743e+06	-50839.1	955.819	-29754.7	0.000000	0.000000	6.362874	0.004699	NaN	0.000000	0.001570	0.001678	28.0788	0.089041	0.001952	45.6117	-168.67	-167.976	0.040177	0.361057	-0.709457	-0.710714	0.004699	45.6117	-0.709534	-2.640530E+9	-1.779392E-12	NaN
244	1.000000	0.402367	7.36743e+06	-50839.1	955.819	-29754.7	0.000000	0.000000	6.402924	-0.072751	NaN	0.000000	0.001629	0.001704	28.0788	0.081465	0.002079	39.1926	84.7783	-166.209	-0.039124	0.400986	-0.669404	-0.670785	-0.072751	39.1926	-0.668012	-7.147957E+8	1.017793E-10	NaN
244	1.000000	0.442367	7.36743e+06	-50839.1	955.818	-29754.7	0.000000	0.000000	6.442927	-0.019713	NaN	0.000000	0.001618	0.001653	28.0789	0.075809	0.001991	38.0771	-27.426	-166.596	0.064642	0.441048	-0.629404	-0.630723	-0.019713	38.0771	-0.629015	-2.086900E+8	9.446033E-11	NaN
244	1.000000	0.482397	7.36743e+06	-50839.1	955.819	-29754.7	0.000000	0.000000	6.482957	0.000974	NaN	0.000000	0.001635	0.001704	28.0777	0.161179	0.002017	79.9	39.9792	-167.392	0.022930	0.481040	-0.589374	-0.590731	0.000974	79.9	-0.589383	-5.945127E+7	-1.638134E-11	NaN
244	1.000000	0.522365	7.36743e+06	-50839.1	955.818	-29754.7	0.000000	0.000000	6.522927	0.056610	NaN	0.000000	0.001618	0.001681	28.0779	0.055975	0.002072	27.0155	128.141	-165.332	0.025440	0.521122	-0.549406	-0.550649	0.056610	27.0155	-0.550978	-1.751851E+7	-3.231465E-9	NaN
244	1.000000	0.562412	7.36743e+06	-50839.1	955.819	-29754.7	0.000000	0.000000	6.562974	0.031406	NaN	0.000000	0.001630	0.001697	28.0778	0.045815	0.001898	24.1374	-79.7745	-163.977	0.007032	0.561138	-0.509359	-0.510633	0.031406	24.1374	-0.510335	-4.77613e+06	-6.575647E-9	NaN
244	1.000000	0.602426	7.36744e+06	-50839.1	955.819	-29754.7	0.000000	0.000000	6.602984	-0.047342	NaN	0.000000	0.001582	0.001693	28.0788	0.088009	0.002031	43.333	-78.3667	-164.877	-0.027900	0.601108	-0.469345	-0.470663	-0.047342	43.333	-0.468526	-1.24373e+06	3.806479E-8	NaN
244	1.000000	0.642435	7.36744e+06	-50839.1	955.819	-29754.7	0.000000	0.000000	6.642997	0.046752	NaN	0.000000	0.001575	0.001735	28.0787	0.152960	0.001990	76.856	14.2211	-164.412	-0.012634	0.641050	-0.429336	-0.430721	0.046752	76.856	-0.429792	-354092	-1.320328E-7	NaN
244	1.000000	0.682466	7.36744e+06	-50839.1	955.819	-29754.7	0.000000	0.000000	6.683026	0.012046	NaN	0.000000	0.001570	0.001760	28.0786	0.031829	0.001901	16.7437	-1.480441	-169.18	-0.008473	0.681173	-0.389305	-0.390598	0.012046	16.7437	-0.389845	-95708	-1.258600E-7	NaN
244	1.000000	0.722460	7.36744e+06	-50839.1	955.819	-29754.7	0.000000	0.000000	6.723024	0.075742	NaN	0.000000	0.001603	0.001724	28.0775	0.071922	0.002010	35.7854	73.4969	-167.545	0.085452	0.721093	-0.349311	-0.350678	0.075742	35.7854	-0.350898	-26304.7	-2.879408E-6	NaN
244	1.000000	0.762480	7.36744e+06	-50839.1	955.819	-29754.7	0.000000	0.000000	6.763044	0.099811	NaN	0.000000	0.001592	0.001701	28.0776	0.021555	0.001907	11.3049	-44.3035	-165.537	0.039716	0.761153	-0.309291	-0.310618	0.099811	11.3049	-0.315913	-8098.78	-1.232416E-5	NaN
244	1.000000	0.802524	7.36744e+06	-50839.1	955.818	-29754.7	0.000000	0.000000	6.803087	0.054239	NaN	0.000000	0.001580	0.001714	28.0778	0.055321	0.002139	25.8597	87.593	-166.109	-0.024678	0.801220	-0.269247	-0.270551	0.054239	25.8597	-0.270820	-1713.95	-3.164563E-5	NaN
244	1.000000	0.842557	7.36744e+06	-50839.1	955.819	-29754.7	0.000000	0.000000	6.843121	0.082669	NaN	0.000000	0.001667	0.001713	28.0775	0.060478	0.001996	30.3036	49.1764	-166.355	0.050263	0.841199	-0.229214	-0.230572	0.082669	30.3036	-0.231260	-419.177	-0.000197	NaN
244	1.000000	0.882557	7.36744e+06	-50839.1	955.818	-29754.7	0.000000	0.000000	6.883116	-0.033765	NaN	0.000000	0.001599	0.001657	28.0788	0.093779	0.002128	44.0592	-152.836	-165.418	-0.089684	0.881206	-0.189214	-0.190565	-0.033765	44.0592	-0.188639	-85.3631	0.000396	NaN
244	1.000000	0.922560	7.36744e+06	-50839.1	955.818	-29754.7	0.000000	0.000000	6.923119	-0.028892	NaN	0.000000	0.001637	0.001658	28.0789	0.036176	0.001910	18.9375	151.086	-165.078	-0.009418	0.921185	-0.149211	-0.150586	-0.028892	18.9375	-0.148066	-16.6972	0.001730	NaN
244	1.000000	0.962594	7.36744e+06	-50839.1	955.818	-29754.7	0.000000	0.000000	6.963153	-0.024707	NaN	0.000000	0.001607	0.001684	28.0801	0.126383	0.002039	61.9738	-145.115	-169.506	-0.070007	0.961246	-0.109177	-0.110525	-0.024707	61.9738	-0.108878	-2.845508	0.008683	NaN
244	1.000000	1.002591	7.36744e+06	-50839.1	955.817	-29754.7	0.000000	0.000000	7.003152	0.026214	NaN	0.000000	0.001592	0.001704	28.0777	0.082480	0.002149	38.3834	-140.637	-165.574	0.012179	1.001246	-0.069180	-0.070525	0.026214	38.3834	-0.069692	-0.334682	-0.078324	NaN
244	1.000000	1.042586	7.36744e+06	-50839.1	955.818	-29754.7	0.000000	0.000000	7.043148	0.058610	NaN	0.000000	0.001579	0.001729	28.0776	0.051302	0.002070	24.7819	-172.494	-160.294	0.065280	1.041288	-0.029185	-0.030483	0.058610	24.7819	-0.030959	-0.024483	-2.393930	NaN
244	1.000000	1.082453	7.36744e+06	-50839.1	955.819	-29754.7	0.000000	0.000000	7.083337	7.861665	NaN	0.000000	0.001592	0.001666	28.0773	8.053512	0.001816	4435.9	13.5994	-174.373	6.060932	1.081202	0.010682	0.009431	7.861665	4435.9	0.009353	0.008471	928.028	44033
244	2.000000	1.093099	7.36744e+06	-50839.1	955.819	-29754.7	0.000000	0.000000	7.094582	22.4298	NaN	0.000000	0.001603	0.001688	28.0775	19.3835	0.001771	10942.9	4.836489	-176.892	22.038	1.092877	0.021328	0.021106	22.4298	10942.9	0.019791	0.022215	1009.69	67078.7
244	2.000000	1.103021	7.36744e+06	-50839.1	955.819	-29754.7	0.000000	0.000000	7.105496	46.5755	NaN	0.000000	0.001609	0.001655	28.079	30.0145	0.001886	15917.1	3.558067	-178.084	44.6431	1.102724	0.031250	0.030953	46.5755	15917.1	0.029055	0.038808	1200.14	73820.2
244	2.000000	1.113001	7.36744e+06	-50839.1	955.818	-29754.7	0.000000	0.000000	7.116625	74.5219	NaN	0.000000	0.001598	0.001706	28.0787	39.1382	0.001897	20632	3.848971	178.502	72.2047	1.112767	0.041230	0.040996	74.5219	20632	0.038521	0.060262	1236.64	76788.2
244	2.000000	1.123034	7.36744e+06	-50839.1	955.819	-29754.7	0.000000	0.000000	7.128222	112.532	NaN	0.000000	0.001578	0.001692	28.0787	47.6443	0.001746	27291.7	4.121774	175.499	112.633	1.122789	0.051263	0.051018	112.532	27291.7	0.048171	0.086843	1295.82	84613
244	2.000000	1.132956	7.36744e+06	-50839.1	955.82	-29754.7	0.000000	0.000000	7.140092	159.924	NaN	0.000000	0.001572	0.001718	28.0775	56.4148	0.001656	34067.5	2.640116	176.534	157.755	1.132508	0.061185	0.060737	159.924	34067.5	0.057664	0.117564	1360.31	90776.9
244	2.000000	1.142938	7.36744e+06	-50839.1	955.819	-29754.7	0.000000	0.000000	7.152298	213.986	NaN	0.000000	0.001594	0.001629	28.0775	67.8766	0.001831	37075.7	2.930220	175.2	211.004	1.142640	0.071167	0.070869	213.986	37075.7	0.066839	0.151466	1412.76	87037.1
244	2.000000	1.153009	7.36744e+06	-50839.1	955.819	-29754.7	0.000000	0.000000	7.164511	266.085	NaN	0.000000	0.001597	0.001615	28.0778	77.917	0.001784	43665.8	7.975320	169.023	267.322	1.152665	0.081238	0.080894	266.085	43665.8	0.076668	0.192264	1383.96	90984.1
244	2.000000	1.162939	7.36744e+06	-50839.1	955.819	-29754.7	0.000000	0.000000	7.177303	335.695	NaN	0.000000	0.001608	0.001682	28.0783	86.5456	0.001858	46571.6	1.538403	175.061	332.225	1.162598	0.091168	0.090827	335.695	46571.6	0.085762	0.234048	1434.3	87951.2
244	2.000000	1.173001	7.36744e+06	-50839.1	955.819	-29754.7	0.000000	0.000000	7.190353	408.341	NaN	0.000000	0.001591	0.001698	28.0792	95.5624	0.001805	52932.3	5.862496	169.693	409.445	1.172606	0.101230	0.100835	408.341	52932.3	0.095444	0.282730	1444.28	90951
244	2.000000	1.181972	7.36744e+06	-50839.1	955.82	-29754.7	0.000000	0.000000	7.202475	484.966	NaN	0.000000	0.001614	0.001691	28.0788	102.767	0.001896	54198.8	6.921718	168.696	486.447	1.181781	0.110201	0.110010	484.966	54198.8	0.103490	0.326439	1485.63	86668.6