Folder: unikorn_login/remote_trans/data/nanoindenter/0828-1/data/Data_2025-08-06,11h17m57s (part 157)

File: 2025-07-22_16-23-58_1_331.txt
2025-07-22, 16:23:58, 1
Index	Phase	Displacement	Time	Pos X	Pos Y	Pos Z	Rot A	Rot B	Piezo Z	Force A	Force B	Gripper	Voltage A	Voltage B	Temperature	Amplitude force	Amplitude pos	Stiffness	Phase shift	Phase excitation	Force A raw	Displacement raw	HMax	HMax raw	Real Force	Real Stiffness	Contact Depth	Area	Hardness	Reduced Mod.
[#]	[#]	[um]	[s]	[um]	[um]	[um]	[m°]	[m°]	[um]	[uN]	[uN]	[V]	[V]	[V]	[°C]	[uN]	[um]	[N/m]	[°]	[°]	[uN]	[um]	[um]	[um]	[uN]	[N/m]	[um]	[um^2]	[MPa]	[MPa]
331	1.000000	0.002282	7.3683e+06	-55189.1	955.818	-29742.3	0.000000	0.000000	6.002776	0.004284	NaN	0.000000	0.001615	0.001738	28.0788	0.056370	0.000965	58.3953	-81.6426	-165.174	-0.005222	0.001084	-1.130534	-1.131733	0.004284	58.3953	-1.130589	-1.289812E+15	-3.321649E-18	NaN
331	1.000000	0.044258	7.3683e+06	-55189.1	955.818	-29742.3	0.000000	0.000000	6.044750	-0.016964	NaN	0.000000	0.001595	0.001722	28.0789	0.067436	0.002044	32.9882	92.6846	15.2478	0.011712	0.042861	-1.088559	-1.089956	-0.016964	32.9882	-1.088173	-3.477579E+14	4.878035E-17	NaN
331	1.000000	0.086268	7.3683e+06	-55189.1	955.818	-29742.3	0.000000	0.000000	6.086761	0.010664	NaN	0.000000	0.001643	0.001718	28.0787	0.064820	0.002059	31.4875	125.927	-164.203	-0.029029	0.084925	-1.046549	-1.047891	0.010664	31.4875	-1.046803	-9.670128E+13	-1.102806E-16	NaN
331	1.000000	0.128295	7.3683e+06	-55189.1	955.818	-29742.3	0.000000	0.000000	6.128786	-0.049413	NaN	0.000000	0.001684	0.001751	28.08	0.044639	0.002161	20.6533	-55.3654	16.5157	-0.053777	0.126931	-1.004521	-1.005885	-0.049413	20.6533	-1.002727	-2.468767E+13	2.001508E-15	NaN
331	1.000000	0.170307	7.3683e+06	-55189.1	955.819	-29742.3	0.000000	0.000000	6.170801	0.022554	NaN	0.000000	0.001626	0.001736	28.0803	0.032544	0.002027	16.0534	28.4369	-165.612	0.068729	0.169012	-0.962509	-0.963805	0.022554	16.0534	-0.963563	-7.326628E+12	-3.078343E-15	NaN
331	1.000000	0.212336	7.3683e+06	-55189.1	955.819	-29742.3	0.000000	0.000000	6.212829	-0.005005	NaN	0.000000	0.001648	0.001751	28.0803	0.079197	0.002002	39.5503	43.9063	13.0655	0.006045	0.211005	-0.920481	-0.921812	-0.005005	39.5503	-0.920386	-1.916089E+12	2.612337E-15	NaN
331	1.000000	0.254332	7.3683e+06	-55189.1	955.819	-29742.3	0.000000	0.000000	6.254823	-0.050620	NaN	0.000000	0.001679	0.001731	28.0803	0.040348	0.002019	19.9819	69.7414	-168.647	-0.022173	0.253065	-0.878485	-0.879751	-0.050620	19.9819	-0.876585	-4.903678E+11	1.032279E-13	NaN
331	1.000000	0.296351	7.3683e+06	-55189.1	955.818	-29742.3	0.000000	0.000000	6.296846	0.050081	NaN	0.000000	0.001662	0.001768	28.0793	0.092529	0.001849	50.0487	-89.1355	13.3867	-0.040177	0.294991	-0.836466	-0.837825	0.050081	50.0487	-0.837216	-1.437409E+11	-3.484092E-13	NaN
331	1.000000	0.338352	7.3683e+06	-55189.1	955.819	-29742.3	0.000000	0.000000	6.338844	-0.044341	NaN	0.000000	0.001613	0.001736	28.0793	0.055402	0.002087	26.5421	19.9747	-164.473	0.025388	0.337046	-0.794464	-0.795770	-0.044341	26.5421	-0.793211	-3.636570E+10	1.219312E-12	NaN
331	1.000000	0.380399	7.3683e+06	-55189.1	955.819	-29742.3	0.000000	0.000000	6.380895	0.061155	NaN	0.000000	0.001576	0.001710	28.0791	0.135587	0.002070	65.5089	-123.055	19.4855	0.015957	0.379038	-0.752417	-0.753778	0.061155	65.5089	-0.753117	-1.036689E+10	-5.899035E-12	NaN
331	1.000000	0.422412	7.3683e+06	-55189.1	955.819	-29742.3	0.000000	0.000000	6.422905	-0.013500	NaN	0.000000	0.001613	0.001742	28.08	0.037620	0.001862	20.2074	-144.394	-164.91	-0.011707	0.421098	-0.710404	-0.711719	-0.013500	20.2074	-0.709903	-2.671343E+9	5.053587E-12	NaN
331	1.000000	0.464474	7.3683e+06	-55189.1	955.818	-29742.3	0.000000	0.000000	6.464965	-0.053197	NaN	0.000000	0.001569	0.001693	28.08	0.055348	0.001851	29.8965	96.4507	16.1674	-0.098716	0.463088	-0.668343	-0.669728	-0.053197	29.8965	-0.667008	-6.925332E+8	7.681512E-11	NaN
331	1.000000	0.506429	7.3683e+06	-55189.1	955.818	-29742.3	0.000000	0.000000	6.506920	-0.056338	NaN	0.000000	0.001610	0.001667	28.0801	0.117837	0.002005	58.7713	149.326	-166.474	-0.099883	0.505148	-0.626387	-0.627668	-0.056338	58.7713	-0.625669	-1.877278E+8	3.001056E-10	NaN
331	1.000000	0.548458	7.3683e+06	-55189.1	955.818	-29742.3	0.000000	0.000000	6.548951	0.006877	NaN	0.000000	0.001541	0.001739	28.0791	0.117219	0.001990	58.8922	143.558	15.8619	-0.009277	0.547115	-0.584359	-0.585701	0.006877	58.8922	-0.584447	-5.082532E+7	-1.353019E-10	NaN
331	1.000000	0.590477	7.3683e+06	-55189.1	955.819	-29742.3	0.000000	0.000000	6.590971	0.023449	NaN	0.000000	0.001580	0.001689	28.079	0.122541	0.001969	62.2341	43.4863	-164.214	0.071564	0.589209	-0.542340	-0.543608	0.023449	62.2341	-0.542622	-1.341905E+7	-1.747431E-9	NaN
331	1.000000	0.632487	7.3683e+06	-55189.1	955.82	-29742.3	0.000000	0.000000	6.632980	0.009802	NaN	0.000000	0.001618	0.001681	28.0788	0.029882	0.002046	14.6082	93.5636	16.5007	-0.020077	0.631125	-0.500330	-0.501692	0.009802	14.6082	-0.500833	-3.52076e+06	-2.783969E-9	NaN
331	1.000000	0.674505	7.3683e+06	-55189.1	955.818	-29742.3	0.000000	0.000000	6.674997	-0.041939	NaN	0.000000	0.001609	0.001721	28.0803	0.035793	0.002090	17.1285	135.069	-162.808	-0.033857	0.673219	-0.458311	-0.459597	-0.041939	17.1285	-0.456475	-842293	4.979167E-8	NaN
331	1.000000	0.716514	7.3683e+06	-55189.1	955.818	-29742.3	0.000000	0.000000	6.717008	0.015385	NaN	0.000000	0.001577	0.001701	28.0803	0.085329	0.002063	41.3642	-48.4508	14.7098	0.014296	0.715190	-0.416302	-0.417626	0.015385	41.3642	-0.416581	-230095	-6.686371E-8	NaN
331	1.000000	0.758541	7.36831e+06	-55189.1	955.818	-29742.3	0.000000	0.000000	6.759033	-0.027418	NaN	0.000000	0.001575	0.001694	28.0806	0.136457	0.001982	68.8626	-140.094	-167.241	-0.001840	0.757240	-0.374275	-0.375576	-0.027418	68.8626	-0.373977	-56670.4	4.838129E-7	NaN
331	1.000000	0.800571	7.36831e+06	-55189.1	955.82	-29742.3	0.000000	0.000000	6.801060	-0.087661	NaN	0.000000	0.001576	0.001757	28.0803	0.017507	0.002026	8.639736	9.762535	15.7886	-0.031496	0.799146	-0.332246	-0.333670	-0.087661	8.639736	-0.324636	-10884.1	8.054000E-6	NaN
331	1.000000	0.842621	7.36831e+06	-55189.1	955.818	-29742.3	0.000000	0.000000	6.843112	-0.042027	NaN	0.000000	0.001519	0.001718	28.079	0.066000	0.001991	33.1478	-21.7042	-167.168	0.037606	0.841292	-0.290196	-0.291524	-0.042027	33.1478	-0.289245	-3250.75	1.292831E-5	NaN
331	1.000000	0.884592	7.36831e+06	-55189.1	955.818	-29742.3	0.000000	0.000000	6.885083	-0.053496	NaN	0.000000	0.001547	0.001675	28.0789	0.054844	0.001854	29.577	-32.1302	16.3551	-0.084825	0.883237	-0.248225	-0.249579	-0.053496	29.577	-0.246868	-735.291	7.275421E-5	NaN
331	1.000000	0.926615	7.36831e+06	-55189.1	955.818	-29742.3	0.000000	0.000000	6.927106	-0.060319	NaN	0.000000	0.001537	0.001725	28.0786	0.038726	0.001962	19.7345	1.677628	-165.672	-0.051342	0.925293	-0.206201	-0.207524	-0.060319	19.7345	-0.203909	-152.668	0.000395	NaN
331	1.000000	0.968650	7.36831e+06	-55189.1	955.817	-29742.3	0.000000	0.000000	6.969142	-0.029302	NaN	0.000000	0.001576	0.001707	28.0799	0.034414	0.001924	17.8874	31.1684	17.7302	0.053634	0.967262	-0.164167	-0.165554	-0.029302	17.8874	-0.162938	-30.9037	0.000948	NaN
331	1.000000	1.010657	7.36831e+06	-55189.1	955.816	-29742.3	0.000000	0.000000	7.011149	-0.009211	NaN	0.000000	0.001554	0.001683	28.0802	0.022054	0.001953	11.2912	120.933	-167.039	-0.030253	1.009378	-0.122160	-0.123438	-0.009211	11.2912	-0.121548	-5.190747	0.001775	NaN
331	1.000000	1.052679	7.36831e+06	-55189.1	955.817	-29742.3	0.000000	0.000000	7.053169	-0.068146	NaN	0.000000	0.001554	0.001703	28.0799	0.169295	0.002016	83.9758	111.665	12.4716	-0.046743	1.051324	-0.080138	-0.081493	-0.068146	83.9758	-0.079529	-0.602417	0.113122	NaN
331	1.000000	1.094670	7.36831e+06	-55189.1	955.815	-29742.3	0.000000	0.000000	7.095161	-0.049481	NaN	0.000000	0.001572	0.001761	28.0786	0.087344	0.001903	45.8903	-94.8999	-168.181	-0.075711	1.093372	-0.038146	-0.039444	-0.049481	45.8903	-0.037338	-0.037581	1.316630	NaN
331	1.000000	1.136663	7.36831e+06	-55189.1	955.817	-29742.3	0.000000	0.000000	7.137289	3.236019	NaN	0.000000	0.001563	0.001714	28.0787	4.068419	0.001873	2171.78	9.180487	14.8807	1.726803	1.135325	0.003846	0.002508	3.236019	2171.78	0.002729	0.002153	1503.04	42763
331	2.000000	1.150302	7.36831e+06	-55189.1	955.817	-29742.3	0.000000	0.000000	7.151609	19.7943	NaN	0.000000	0.001522	0.001699	28.0788	17.7254	0.001684	10524.1	9.459018	-179.516	21.4833	1.149949	0.017485	0.017132	19.7943	10524.1	0.016074	0.016745	1182.11	74304.8
331	2.000000	1.160725	7.36831e+06	-55189.1	955.815	-29742.3	0.000000	0.000000	7.162880	40.3976	NaN	0.000000	0.001572	0.001683	28.0801	28.1067	0.001767	15902.1	6.180193	-0.309130	40.1343	1.160411	0.027909	0.027595	40.3976	15902.1	0.026004	0.032867	1229.13	80139.9
331	2.000000	1.171219	7.36831e+06	-55189.1	955.817	-29742.3	0.000000	0.000000	7.174763	74.1671	NaN	0.000000	0.001558	0.001693	28.0803	38.2735	0.001745	21932.2	10.0416	173.186	76.1246	1.170854	0.038403	0.038038	74.1671	21932.2	0.035866	0.053783	1379.01	86404
331	2.000000	1.181614	7.36831e+06	-55189.1	955.816	-29742.3	0.000000	0.000000	7.186825	114.702	NaN	0.000000	0.001638	0.001729	28.0799	46.9848	0.001723	27270.5	1.261329	-0.205798	110.339	1.181333	0.048797	0.048517	114.702	27270.5	0.045643	0.079422	1444.2	88408.9
331	2.000000	1.192218	7.36831e+06	-55189.1	955.817	-29742.3	0.000000	0.000000	7.199326	160.796	NaN	0.000000	0.001681	0.001702	28.0803	59.012	0.001842	32033.3	5.934707	174.378	161.346	1.191692	0.059401	0.058875	160.796	32033.3	0.055637	0.110629	1453.48	87991.6
331	2.000000	1.202663	7.36831e+06	-55189.1	955.816	-29742.3	0.000000	0.000000	7.211771	209.409	NaN	0.000000	0.001548	0.001713	28.0791	69.0486	0.001874	36848.4	-0.063016	-0.856209	208.628	1.202433	0.069847	0.069617	209.409	36848.4	0.065584	0.146591	1428.53	87930.2
331	2.000000	1.213125	7.36831e+06	-55189.1	955.817	-29742.3	0.000000	0.000000	7.224625	267.575	NaN	0.000000	0.001561	0.001674	28.0793	79.5691	0.001859	42801.5	3.757221	173.567	265.908	1.212829	0.080308	0.080012	267.575	42801.5	0.075619	0.187696	1425.58	90262.1
331	2.000000	1.223627	7.36831e+06	-55189.1	955.818	-29742.3	0.000000	0.000000	7.238294	344.558	NaN	0.000000	0.001600	0.001701	28.0795	88.6465	0.001709	51877.3	7.063087	-10.3412	343.072	1.223297	0.090811	0.090481	344.558	51877.3	0.085829	0.234373	1470.13	97903.2
331	2.000000	1.234075	7.36831e+06	-55189.1	955.817	-29742.3	0.000000	0.000000	7.251743	417.509	NaN	0.000000	0.001593	0.001700	28.0805	98.2688	0.001802	54542.8	3.477779	172.466	416.186	1.233789	0.101258	0.100972	417.509	54542.8	0.095517	0.283114	1474.7	93654.8
331	2.000000	1.239010	7.36831e+06	-55189.1	955.817	-29742.3	0.000000	0.000000	7.258395	459.245	NaN	0.000000	0.001597	0.001686	28.0803	102.829	0.001751	58715.2	3.599329	171.968	453.851	1.238712	0.106193	0.105896	459.245	58715.2	0.100327	0.308906	1486.68	96518.4

File: 2025-07-22_16-23-58_1_332.txt
2025-07-22, 16:23:58, 1
Index	Phase	Displacement	Time	Pos X	Pos Y	Pos Z	Rot A	Rot B	Piezo Z	Force A	Force B	Gripper	Voltage A	Voltage B	Temperature	Amplitude force	Amplitude pos	Stiffness	Phase shift	Phase excitation	Force A raw	Displacement raw	HMax	HMax raw	Real Force	Real Stiffness	Contact Depth	Area	Hardness	Reduced Mod.
[#]	[#]	[um]	[s]	[um]	[um]	[um]	[m°]	[m°]	[um]	[uN]	[uN]	[V]	[V]	[V]	[°C]	[uN]	[um]	[N/m]	[°]	[°]	[uN]	[um]	[um]	[um]	[uN]	[N/m]	[um]	[um^2]	[MPa]	[MPa]
332	1.000000	0.002620	7.36831e+06	-55239.1	955.817	-29742.2	0.000000	0.000000	6.002803	0.048137	NaN	0.000000	0.001591	0.001717	28.0783	0.062581	0.000978	63.9713	147.998	-168.796	0.007420	0.001355	-1.108838	-1.110104	0.048137	63.9713	-1.109403	-6.703045E+14	-7.181329E-17	NaN
332	1.000000	0.044535	7.36831e+06	-55239.1	955.819	-29742.2	0.000000	0.000000	6.044715	-0.023176	NaN	0.000000	0.001585	0.001702	28.0781	0.069858	0.001970	35.4601	-48.6692	15.5768	-0.083784	0.043255	-1.066924	-1.068204	-0.023176	35.4601	-1.066434	-1.775313E+14	1.305435E-16	NaN
332	1.000000	0.086609	7.36831e+06	-55239.1	955.818	-29742.2	0.000000	0.000000	6.086791	0.018698	NaN	0.000000	0.001578	0.001720	28.0792	0.122750	0.002159	56.8522	-78.0329	-171.633	-0.071290	0.085273	-1.024849	-1.026186	0.018698	56.8522	-1.025096	-4.937581E+13	-3.786895E-16	NaN
332	1.000000	0.128607	7.36831e+06	-55239.1	955.819	-29742.2	0.000000	0.000000	6.128787	-0.018483	NaN	0.000000	0.001536	0.001724	28.0793	0.081268	0.001972	41.2037	-2.796979	14.4322	-0.021770	0.127231	-0.982852	-0.984227	-0.018483	41.2037	-0.982515	-1.319148E+13	1.401111E-15	NaN
332	1.000000	0.170631	7.36831e+06	-55239.1	955.818	-29742.2	0.000000	0.000000	6.170812	0.006921	NaN	0.000000	0.001606	0.001734	28.0794	0.035904	0.002048	17.531	88.1211	-166.291	0.035854	0.169285	-0.940827	-0.942174	0.006921	17.531	-0.941124	-3.650017E+12	-1.896239E-15	NaN
332	1.000000	0.212615	7.36831e+06	-55239.1	955.818	-29742.2	0.000000	0.000000	6.212796	0.002861	NaN	0.000000	0.001553	0.001689	28.0781	0.053199	0.002054	25.897	-123.666	11.3256	-0.047178	0.211273	-0.898843	-0.900186	0.002861	25.897	-0.898926	-9.830053E+11	-2.910029E-15	NaN
332	1.000000	0.254684	7.36831e+06	-55239.1	955.819	-29742.2	0.000000	0.000000	6.254867	0.035483	NaN	0.000000	0.001549	0.001684	28.0781	0.070576	0.002037	34.6407	81.3317	-166.521	0.041514	0.253367	-0.856774	-0.858092	0.035483	34.6407	-0.857543	-2.709295E+11	-1.309691E-13	NaN
332	1.000000	0.296697	7.36831e+06	-55239.1	955.819	-29742.2	0.000000	0.000000	6.296878	-0.015650	NaN	0.000000	0.001560	0.001692	28.078	0.076760	0.002080	36.9026	64.0046	16.5492	0.018105	0.295351	-0.814761	-0.816107	-0.015650	36.9026	-0.814443	-7.060675E+10	2.216468E-13	NaN
332	1.000000	0.338697	7.36831e+06	-55239.1	955.818	-29742.2	0.000000	0.000000	6.338879	0.024178	NaN	0.000000	0.001557	0.001701	28.0799	0.027419	0.001928	14.2243	-120.764	-163.003	-0.019321	0.337334	-0.772762	-0.774124	0.024178	14.2243	-0.774036	-1.996086E+10	-1.211254E-12	NaN
332	1.000000	0.380730	7.36831e+06	-55239.1	955.819	-29742.2	0.000000	0.000000	6.380910	-0.015648	NaN	0.000000	0.001526	0.001737	28.0794	0.031111	0.001995	15.5951	173.504	14.3822	-0.000258	0.379379	-0.730729	-0.732080	-0.015648	15.5951	-0.729976	-5.017429E+9	3.118811E-12	NaN
332	1.000000	0.422723	7.36831e+06	-55239.1	955.818	-29742.2	0.000000	0.000000	6.422904	-0.005023	NaN	0.000000	0.001552	0.001738	28.0792	0.075448	0.002056	36.6924	13.026	-167.459	-0.000496	0.421414	-0.688735	-0.690044	-0.005023	36.6924	-0.688633	-1.368452E+9	3.670534E-12	NaN
332	1.000000	0.464758	7.36831e+06	-55239.1	955.819	-29742.2	0.000000	0.000000	6.464941	0.063100	NaN	0.000000	0.001537	0.001660	28.0793	0.042182	0.001962	21.5051	-137.181	17.2174	0.079669	0.463375	-0.646701	-0.648084	0.063100	21.5051	-0.648902	-3.911814E+8	-1.613055E-10	NaN
332	1.000000	0.506790	7.36831e+06	-55239.1	955.818	-29742.2	0.000000	0.000000	6.506969	-0.062782	NaN	0.000000	0.001556	0.001706	28.0782	0.067545	0.002004	33.7001	-146.347	-164.149	-0.032552	0.505412	-0.604668	-0.606046	-0.062782	33.7001	-0.603271	-9.236431E+7	6.797176E-10	NaN
332	1.000000	0.548764	7.36831e+06	-55239.1	955.819	-29742.2	0.000000	0.000000	6.548945	0.010522	NaN	0.000000	0.001564	0.001679	28.0781	0.148600	0.002025	73.3687	32.425	15.5921	0.035604	0.547409	-0.562694	-0.564049	0.010522	73.3687	-0.562802	-2.553489E+7	-4.120657E-10	NaN
332	1.000000	0.590773	7.36831e+06	-55239.1	955.818	-29742.2	0.000000	0.000000	6.590954	0.001784	NaN	0.000000	0.001579	0.001717	28.0782	0.053795	0.001994	26.9746	-158.418	-163.11	0.002906	0.589450	-0.520686	-0.522008	0.001784	26.9746	-0.520735	-6.66533e+06	-2.677173E-10	NaN
332	1.000000	0.632842	7.36831e+06	-55239.1	955.817	-29742.2	0.000000	0.000000	6.633019	-0.105992	NaN	0.000000	0.001699	0.001718	28.0795	0.071785	0.001936	37.0716	-5.068305	13.3422	-0.084788	0.631434	-0.478617	-0.480024	-0.105992	37.0716	-0.476472	-1.60741e+06	6.593982E-8	NaN
332	1.000000	0.674825	7.36831e+06	-55239.1	955.819	-29742.2	0.000000	0.000000	6.675005	-0.005296	NaN	0.000000	0.001673	0.001788	28.0794	0.112767	0.002150	52.4525	81.7404	-162.83	-0.029819	0.673567	-0.436634	-0.437892	-0.005296	52.4525	-0.436558	-441336	1.199918E-8	NaN
332	1.000000	0.716858	7.36831e+06	-55239.1	955.819	-29742.2	0.000000	0.000000	6.717037	-0.058432	NaN	0.000000	0.001611	0.001784	28.0797	0.099861	0.001940	51.469	-152.646	14.912	0.045946	0.715503	-0.394600	-0.395956	-0.058432	51.469	-0.393749	-108833	5.368991E-7	NaN
332	1.000000	0.758852	7.36831e+06	-55239.1	955.818	-29742.2	0.000000	0.000000	6.759033	-0.009197	NaN	0.000000	0.001631	0.001767	28.0787	0.130737	0.001938	67.4681	101.881	-162.095	-0.013593	0.757612	-0.352606	-0.353847	-0.009197	67.4681	-0.352504	-27754.2	3.313870E-7	NaN
332	1.000000	0.800887	7.36832e+06	-55239.1	955.818	-29742.2	0.000000	0.000000	6.801071	0.062971	NaN	0.000000	0.001578	0.001759	28.0783	0.169513	0.002019	83.9539	171.287	16.7151	0.057351	0.799545	-0.310571	-0.311914	0.062971	83.9539	-0.311134	-6883.82	-9.147699E-6	NaN
332	1.000000	0.842882	7.36832e+06	-55239.1	955.818	-29742.2	0.000000	0.000000	6.843061	-0.049405	NaN	0.000000	0.001589	0.001733	28.0782	0.057324	0.002055	27.8897	19.5792	-166.259	-0.047816	0.841598	-0.268577	-0.269861	-0.049405	27.8897	-0.267248	-1512.42	3.266649E-5	NaN
332	1.000000	0.884918	7.36832e+06	-55239.1	955.819	-29742.2	0.000000	0.000000	6.885102	0.056689	NaN	0.000000	0.001578	0.001752	28.0794	0.093717	0.002010	46.6314	-144.582	16.0563	0.060322	0.883570	-0.226540	-0.227888	0.056689	46.6314	-0.227452	-364.942	-0.000155	NaN
332	1.000000	0.926954	7.36832e+06	-55239.1	955.819	-29742.2	0.000000	0.000000	6.927136	0.016210	NaN	0.000000	0.001605	0.001742	28.0794	0.047809	0.002028	23.5743	-126.71	-160.406	0.032334	0.925622	-0.184504	-0.185836	0.016210	23.5743	-0.185020	-74.2117	-0.000218	NaN
332	1.000000	0.968981	7.36832e+06	-55239.1	955.818	-29742.2	0.000000	0.000000	6.969162	-0.002884	NaN	0.000000	0.001596	0.001782	28.0794	0.040469	0.002030	19.9397	-155.898	15.3375	-0.033179	0.967618	-0.142478	-0.143841	-0.002884	19.9397	-0.142369	-13.1011	0.000220	NaN
332	1.000000	1.010941	7.36832e+06	-55239.1	955.819	-29742.2	0.000000	0.000000	7.011121	-0.018168	NaN	0.000000	0.001565	0.001799	28.0798	0.122114	0.001885	64.7824	144.133	-166.625	-0.011726	1.009638	-0.100518	-0.101820	-0.018168	64.7824	-0.100307	-1.856016	0.009789	NaN
332	1.000000	1.052991	7.36832e+06	-55239.1	955.819	-29742.2	0.000000	0.000000	7.053172	-0.001147	NaN	0.000000	0.001522	0.001766	28.0782	0.070222	0.001995	35.2027	20.4807	15.0452	-0.023285	1.051609	-0.058467	-0.059849	-0.001147	35.2027	-0.058443	-0.162409	0.007059	NaN
332	1.000000	1.095005	7.36832e+06	-55239.1	955.819	-29742.2	0.000000	0.000000	7.095186	-0.016002	NaN	0.000000	0.001557	0.001795	28.0782	0.022761	0.001947	11.6923	-51.9268	-166.037	0.052130	1.093677	-0.016453	-0.017782	-0.016002	11.6923	-0.015427	-0.009533	1.678700	NaN
332	2.000000	1.125063	7.36832e+06	-55239.1	955.818	-29742.2	0.000000	0.000000	7.125780	13.0191	NaN	0.000000	0.001575	0.001731	28.0791	13.0718	0.001803	7249.3	8.501984	5.121404	12.2223	1.124734	0.013604	0.013275	13.0191	7249.3	0.012258	0.011800	1103.31	60971.7
332	2.000000	1.135499	7.36832e+06	-55239.1	955.817	-29742.2	0.000000	0.000000	7.137072	33.8507	NaN	0.000000	0.001565	0.001733	28.0796	23.8663	0.001883	12674	3.372833	-174.561	32.2276	1.135207	0.024040	0.023748	33.8507	12674	0.022037	0.025845	1309.75	72027.3
332	2.000000	1.145998	7.36832e+06	-55239.1	955.819	-29742.2	0.000000	0.000000	7.148662	60.3699	NaN	0.000000	0.001673	0.001695	28.0794	34.6039	0.001794	19292.5	4.948278	-0.786462	58.4086	1.145555	0.034540	0.034097	60.3699	19292.5	0.032193	0.045411	1329.41	82714.4
332	2.000000	1.156474	7.36832e+06	-55239.1	955.818	-29742.2	0.000000	0.000000	7.160735	99.1868	NaN	0.000000	0.001609	0.001717	28.0802	42.9917	0.001770	24284	2.226382	-179.291	97.6472	1.156182	0.045015	0.044723	99.1868	24284	0.041952	0.069170	1433.95	84359.4
332	2.000000	1.166914	7.36832e+06	-55239.1	955.818	-29742.2	0.000000	0.000000	7.172792	138.509	NaN	0.000000	0.001617	0.001761	28.0792	53.575	0.001767	30312.9	5.834580	-5.580475	135.507	1.166629	0.055455	0.055170	138.509	30312.9	0.052028	0.098784	1402.14	88116.3
332	2.000000	1.177431	7.36832e+06	-55239.1	955.82	-29742.2	0.000000	0.000000	7.185229	185.169	NaN	0.000000	0.001543	0.001734	28.0782	64.1324	0.001771	36218.1	6.684289	172.984	181.841	1.176972	0.065972	0.065513	185.169	36218.1	0.062138	0.133585	1386.15	90535.6
332	2.000000	1.187953	7.36832e+06	-55239.1	955.819	-29742.2	0.000000	0.000000	7.197804	235.061	NaN	0.000000	0.001562	0.001737	28.0781	73.7769	0.001815	40645.2	5.290087	-6.534872	233.978	1.187744	0.076494	0.076285	235.061	40645.2	0.072157	0.172973	1358.94	89288
332	2.000000	1.198478	7.36832e+06	-55239.1	955.82	-29742.2	0.000000	0.000000	7.210571	289.587	NaN	0.000000	0.001619	0.001715	28.0796	81.5547	0.001698	48027.6	1.963539	174.969	289.01	1.198298	0.087019	0.086839	289.587	48027.6	0.082497	0.218606	1324.7	93849.8
332	2.000000	1.208854	7.36832e+06	-55239.1	955.819	-29742.2	0.000000	0.000000	7.224757	382.176	NaN	0.000000	0.001512	0.001698	28.0796	91.685	0.001830	50097.7	4.213222	-6.392516	377.719	1.208431	0.097396	0.096972	382.176	50097.7	0.091674	0.263266	1451.67	89206
332	2.000000	1.219354	7.36832e+06	-55239.1	955.819	-29742.2	0.000000	0.000000	7.238379	458.076	NaN	0.000000	0.001594	0.001743	28.0797	101.291	0.001711	59185	8.898825	167.552	454.783	1.219000	0.107896	0.107541	458.076	59185	0.102091	0.318628	1437.65	95795