Folder: unikorn_login/remote_trans/data/nanoindenter/0828-1/data/Data_2025-08-06,11h17m57s (part 83)

File: 2025-07-22_16-23-58_1_183.txt
2025-07-22, 16:23:58, 1
Index	Phase	Displacement	Time	Pos X	Pos Y	Pos Z	Rot A	Rot B	Piezo Z	Force A	Force B	Gripper	Voltage A	Voltage B	Temperature	Amplitude force	Amplitude pos	Stiffness	Phase shift	Phase excitation	Force A raw	Displacement raw	HMax	HMax raw	Real Force	Real Stiffness	Contact Depth	Area	Hardness	Reduced Mod.
[#]	[#]	[um]	[s]	[um]	[um]	[um]	[m°]	[m°]	[um]	[uN]	[uN]	[V]	[V]	[V]	[°C]	[uN]	[um]	[N/m]	[°]	[°]	[uN]	[um]	[um]	[um]	[uN]	[N/m]	[um]	[um^2]	[MPa]	[MPa]
183	1.000000	0.002535	7.36683e+06	-47789.1	955.819	-29765.1	0.000000	0.000000	6.002803	-0.057575	NaN	0.000000	0.001603	0.001679	28.078	0.094734	0.001008	94.0045	45.2836	-161.559	-0.132143	0.001257	-1.134424	-1.135702	-0.057575	94.0045	-1.133964	-1.431514E+15	4.021940E-17	NaN
183	1.000000	0.044497	7.36683e+06	-47789.1	955.819	-29765.1	0.000000	0.000000	6.044768	0.001829	NaN	0.000000	0.001646	0.001687	28.0782	0.093400	0.001961	47.6273	-102.039	16.5892	-0.041592	0.043107	-1.092462	-1.093852	0.001829	47.6273	-1.092491	-3.974227E+14	-4.602808E-18	NaN
183	1.000000	0.086494	7.36683e+06	-47789.1	955.818	-29765.1	0.000000	0.000000	6.086762	-0.036362	NaN	0.000000	0.001649	0.001655	28.0793	0.011857	0.002090	5.673548	8.424285	-167.58	-0.032090	0.085214	-1.050466	-1.051745	-0.036362	5.673548	-1.045659	-9.333687E+13	3.895772E-16	NaN
183	1.000000	0.128517	7.36683e+06	-47789.1	955.819	-29765.1	0.000000	0.000000	6.128789	0.053795	NaN	0.000000	0.001669	0.001697	28.0794	0.042534	0.001899	22.3967	26.7517	17.0853	0.012307	0.127130	-1.008442	-1.009829	0.053795	22.3967	-1.010244	-3.116457E+13	-1.726156E-15	NaN
183	1.000000	0.170539	7.36683e+06	-47789.1	955.818	-29765.1	0.000000	0.000000	6.170810	0.028727	NaN	0.000000	0.001624	0.001673	28.0792	0.049864	0.002072	24.0675	-33.6578	-164.275	-0.050502	0.169191	-0.966420	-0.967768	0.028727	24.0675	-0.967316	-8.231595E+12	-3.489820E-15	NaN
183	1.000000	0.212535	7.36683e+06	-47789.1	955.818	-29765.1	0.000000	0.000000	6.212803	-0.034122	NaN	0.000000	0.001628	0.001690	28.0782	0.006266	0.001932	3.243488	159.315	16.5509	-0.128670	0.211170	-0.924424	-0.925789	-0.034122	3.243488	-0.916534	-1.699851E+12	2.007355E-14	NaN
183	1.000000	0.254572	7.36683e+06	-47789.1	955.819	-29765.1	0.000000	0.000000	6.254840	-0.049869	NaN	0.000000	0.001643	0.001704	28.0779	0.070358	0.002103	33.4503	145.637	-166.819	-0.140001	0.253256	-0.882387	-0.883703	-0.049869	33.4503	-0.881269	-5.673787E+11	8.789428E-14	NaN
183	1.000000	0.296564	7.36683e+06	-47789.1	955.818	-29765.1	0.000000	0.000000	6.296833	-0.009244	NaN	0.000000	0.001636	0.001717	28.0774	0.057416	0.001987	28.9015	51.0873	12.3844	-0.013450	0.295256	-0.840396	-0.841703	-0.009244	28.9015	-0.840156	-1.575442E+11	5.867454E-14	NaN
183	1.000000	0.338617	7.36683e+06	-47789.1	955.819	-29765.1	0.000000	0.000000	6.338888	0.025789	NaN	0.000000	0.001626	0.001702	28.0785	0.058804	0.002063	28.5079	-133.815	-164.768	0.050774	0.337282	-0.798342	-0.799677	0.025789	28.5079	-0.799021	-4.360834E+10	-5.913756E-13	NaN
183	1.000000	0.380623	7.36683e+06	-47789.1	955.819	-29765.1	0.000000	0.000000	6.380891	-0.044304	NaN	0.000000	0.001739	0.001698	28.0788	0.112264	0.001987	56.5106	42.2226	14.9847	-0.052440	0.379286	-0.756336	-0.757673	-0.044304	56.5106	-0.755748	-1.125771E+10	3.935407E-12	NaN
183	1.000000	0.422641	7.36683e+06	-47789.1	955.818	-29765.1	0.000000	0.000000	6.422913	0.044406	NaN	0.000000	0.001722	0.001679	28.0788	0.033777	0.001876	18.0063	1.728764	-166.842	0.012833	0.421299	-0.714318	-0.715660	0.044406	18.0063	-0.716168	-3.252394E+9	-1.365336E-11	NaN
183	1.000000	0.464651	7.36683e+06	-47789.1	955.818	-29765.1	0.000000	0.000000	6.464920	-0.035662	NaN	0.000000	0.001711	0.001719	28.0781	0.073037	0.002101	34.7668	-155.616	15.7044	-0.043393	0.463320	-0.672308	-0.673639	-0.035662	34.7668	-0.671539	-7.988186E+8	4.464371E-11	NaN
183	1.000000	0.506653	7.36683e+06	-47789.1	955.818	-29765.1	0.000000	0.000000	6.506920	-0.076862	NaN	0.000000	0.001710	0.001677	28.0777	0.067869	0.001923	35.2905	35.1703	-167.661	-0.028929	0.505351	-0.630306	-0.631608	-0.076862	35.2905	-0.628673	-2.064418E+8	3.723177E-10	NaN
183	1.000000	0.548717	7.36683e+06	-47789.1	955.818	-29765.1	0.000000	0.000000	6.548990	0.062462	NaN	0.000000	0.001727	0.001687	28.0773	0.123643	0.002153	57.4256	-137.799	17.3204	0.063991	0.547282	-0.588242	-0.589678	0.062462	57.4256	-0.589058	-5.884070E+7	-1.061542E-9	NaN
183	1.000000	0.590726	7.36683e+06	-47789.1	955.819	-29765.1	0.000000	0.000000	6.590994	-0.059305	NaN	0.000000	0.001779	0.001716	28.0773	0.066885	0.001951	34.275	-120.973	-165.688	-0.028752	0.589431	-0.546233	-0.547528	-0.059305	34.275	-0.544935	-1.444720E+7	4.104933E-9	NaN
183	1.000000	0.632732	7.36683e+06	-47789.1	955.818	-29765.1	0.000000	0.000000	6.633001	-0.030925	NaN	0.000000	0.001743	0.001707	28.0785	0.023358	0.002036	11.4733	159.759	13.795	-0.029301	0.631320	-0.504227	-0.505639	-0.030925	11.4733	-0.502205	-3.67941e+06	8.404814E-9	NaN
183	1.000000	0.674748	7.36683e+06	-47789.1	955.818	-29765.1	0.000000	0.000000	6.675018	0.002612	NaN	0.000000	0.001699	0.001747	28.0789	0.022467	0.002033	11.051	152.64	-163.75	-0.047787	0.673392	-0.462211	-0.463567	0.002612	11.051	-0.462388	-1.01994e+06	-2.560990E-9	NaN
183	1.000000	0.716787	7.36683e+06	-47789.1	955.819	-29765.1	0.000000	0.000000	6.717055	-0.050430	NaN	0.000000	0.001741	0.001741	28.0788	0.113148	0.001913	59.1459	-47.2311	17.0612	-0.028461	0.715363	-0.420172	-0.421596	-0.050430	59.1459	-0.419532	-253384	1.990250E-7	NaN
183	1.000000	0.758744	7.36683e+06	-47789.1	955.818	-29765.1	0.000000	0.000000	6.759013	-0.024317	NaN	0.000000	0.001706	0.001738	28.0774	0.069360	0.001929	35.9651	-136.322	-167.662	-0.016111	0.757490	-0.378215	-0.379469	-0.024317	35.9651	-0.377708	-64119.3	3.792405E-7	NaN
183	1.000000	0.800758	7.36684e+06	-47789.1	955.819	-29765.1	0.000000	0.000000	6.801026	-0.053113	NaN	0.000000	0.001732	0.001703	28.0775	0.079104	0.001898	41.6792	48.1274	12.5644	0.038648	0.799444	-0.336201	-0.337515	-0.053113	41.6792	-0.335245	-15565.8	3.412200E-6	NaN
183	1.000000	0.842818	7.36684e+06	-47789.1	955.818	-29765.1	0.000000	0.000000	6.843087	-0.018549	NaN	0.000000	0.001713	0.001740	28.0773	0.076771	0.001988	38.6171	-37.2132	-164.269	-0.075836	0.841549	-0.294141	-0.295410	-0.018549	38.6171	-0.293781	-3800.81	4.880286E-6	NaN
183	1.000000	0.884845	7.36684e+06	-47789.1	955.818	-29765.1	0.000000	0.000000	6.885114	-0.030122	NaN	0.000000	0.001697	0.001716	28.0786	0.022053	0.001984	11.1143	-27.9395	17.1989	0.037453	0.883485	-0.252114	-0.253474	-0.030122	11.1143	-0.250082	-824.574	3.653070E-5	NaN
183	1.000000	0.926867	7.36684e+06	-47789.1	955.818	-29765.1	0.000000	0.000000	6.927136	-0.016727	NaN	0.000000	0.001719	0.001742	28.0788	0.107060	0.002022	52.9547	104.894	-166.319	0.044812	0.925557	-0.210093	-0.211402	-0.016727	52.9547	-0.209856	-190.757	8.768939E-5	NaN
183	1.000000	0.968841	7.36684e+06	-47789.1	955.818	-29765.1	0.000000	0.000000	6.969111	-0.006050	NaN	0.000000	0.001716	0.001708	28.0787	0.046117	0.001936	23.8242	170.35	13.418	-0.088732	0.967504	-0.168118	-0.169455	-0.006050	23.8242	-0.167927	-37.804	0.000160	NaN
183	1.000000	1.010865	7.36684e+06	-47789.1	955.819	-29765.1	0.000000	0.000000	7.011134	-0.033743	NaN	0.000000	0.001685	0.001700	28.0778	0.119590	0.002066	57.8946	87.9192	-167.924	-0.041385	1.009564	-0.126094	-0.127395	-0.033743	57.8946	-0.125657	-6.265842	0.005385	NaN
183	1.000000	1.052866	7.36684e+06	-47789.1	955.817	-29765.1	0.000000	0.000000	7.053136	-7.686518E-5	NaN	0.000000	0.001701	0.001726	28.0779	0.084748	0.002000	42.3778	-136.634	14.1996	-0.034811	1.051566	-0.084093	-0.085394	-7.686518E-5	42.3778	-0.084092	-0.780972	9.842245E-5	NaN
183	1.000000	1.094920	7.36684e+06	-47789.1	955.82	-29765.1	0.000000	0.000000	7.095190	0.000446	NaN	0.000000	0.001692	0.001707	28.0779	0.076170	0.001777	42.8555	-90.8658	-167.393	-0.051460	1.093590	-0.042039	-0.043369	0.000446	42.8555	-0.042047	-0.052205	-0.008545	NaN
183	1.000000	1.136908	7.36684e+06	-47789.1	955.819	-29765.1	0.000000	0.000000	7.137190	0.299268	NaN	0.000000	0.001682	0.001722	28.0779	0.477901	0.001952	244.868	13.2549	14.088	0.078052	1.135597	-5.136293E-5	-0.001363	0.299268	244.868	-0.000968	-0.000710	-421.432	NaN
183	2.000000	1.153489	7.36684e+06	-47789.1	955.819	-29765.1	0.000000	0.000000	7.154591	20.2456	NaN	0.000000	0.001705	0.001745	28.0798	16.2207	0.001716	9451.54	7.049211	-177.011	19.3079	1.153208	0.016530	0.016249	20.2456	9451.54	0.014923	0.015183	1333.42	70080
183	2.000000	1.163989	7.36684e+06	-47789.1	955.82	-29765.1	0.000000	0.000000	7.165962	41.4241	NaN	0.000000	0.001716	0.001736	28.0799	24.7372	0.001809	13672.9	4.812866	2.578456	41.1043	1.163664	0.027030	0.026705	41.4241	13672.9	0.024757	0.030576	1354.8	71440.3
183	2.000000	1.174451	7.36684e+06	-47789.1	955.819	-29765.1	0.000000	0.000000	7.177710	72.7027	NaN	0.000000	0.001692	0.001689	28.079	34.2046	0.001764	19393.6	3.435171	-178.924	71.2829	1.174116	0.037492	0.037157	72.7027	19393.6	0.034680	0.051004	1425.42	78456.2
183	2.000000	1.184879	7.36684e+06	-47789.1	955.82	-29765.1	0.000000	0.000000	7.189720	111.177	NaN	0.000000	0.001672	0.001712	28.0777	43.3916	0.001759	24668.7	5.586915	-3.299806	107.066	1.184590	0.047919	0.047631	111.177	24668.7	0.044539	0.076285	1457.39	81601.9
183	2.000000	1.195363	7.36684e+06	-47789.1	955.82	-29765.1	0.000000	0.000000	7.202114	157.647	NaN	0.000000	0.001667	0.001691	28.0775	52.8429	0.001768	29882.1	3.359696	177.421	153.3	1.195101	0.058404	0.058142	157.647	29882.1	0.054447	0.106652	1478.14	83598.6
183	2.000000	1.205965	7.36684e+06	-47789.1	955.82	-29765.1	0.000000	0.000000	7.214718	206.332	NaN	0.000000	0.001649	0.001719	28.0778	62.852	0.001736	36197.9	3.193333	-4.582103	205.863	1.205644	0.069006	0.068685	206.332	36197.9	0.064731	0.143316	1439.7	87359.3
183	2.000000	1.216486	7.36684e+06	-47789.1	955.82	-29765.1	0.000000	0.000000	7.227805	268.741	NaN	0.000000	0.001784	0.001696	28.0789	73.2506	0.001799	40715.5	7.479984	170.86	271.533	1.216064	0.079527	0.079105	268.741	40715.5	0.074577	0.183202	1466.91	86909.8
183	2.000000	1.226826	7.36684e+06	-47789.1	955.82	-29765.1	0.000000	0.000000	7.241472	349.652	NaN	0.000000	0.001753	0.001687	28.0792	83.7807	0.001857	45123.5	6.249147	-8.717509	344.547	1.226486	0.089867	0.089527	349.652	45123.5	0.084056	0.225918	1547.7	86736.4
183	2.000000	1.237336	7.36684e+06	-47789.1	955.82	-29765.1	0.000000	0.000000	7.255361	431.851	NaN	0.000000	0.001729	0.001668	28.0793	91.9886	0.001804	50981.6	2.656546	173.852	428.846	1.237051	0.100377	0.100092	431.851	50981.6	0.094024	0.275322	1568.53	88770
183	2.000000	1.243304	7.36684e+06	-47789.1	955.821	-29765.1	0.000000	0.000000	7.263110	475.17	NaN	0.000000	0.001746	0.001662	28.0791	98.0807	0.001875	52301.3	1.511163	175.207	472.087	1.243140	0.106345	0.106181	475.17	52301.3	0.099531	0.304564	1560.17	86585.7

File: 2025-07-22_16-23-58_1_184.txt
2025-07-22, 16:23:58, 1
Index	Phase	Displacement	Time	Pos X	Pos Y	Pos Z	Rot A	Rot B	Piezo Z	Force A	Force B	Gripper	Voltage A	Voltage B	Temperature	Amplitude force	Amplitude pos	Stiffness	Phase shift	Phase excitation	Force A raw	Displacement raw	HMax	HMax raw	Real Force	Real Stiffness	Contact Depth	Area	Hardness	Reduced Mod.
[#]	[#]	[um]	[s]	[um]	[um]	[um]	[m°]	[m°]	[um]	[uN]	[uN]	[V]	[V]	[V]	[°C]	[uN]	[um]	[N/m]	[°]	[°]	[uN]	[um]	[um]	[um]	[uN]	[N/m]	[um]	[um^2]	[MPa]	[MPa]
184	1.000000	0.002205	7.36684e+06	-47839.1	955.819	-29764.9	0.000000	0.000000	6.002789	0.045453	NaN	0.000000	0.001687	0.001699	28.0795	0.039346	0.001006	39.1138	114.877	-165.367	0.026495	0.000915	-1.096192	-1.097482	0.045453	39.1138	-1.097064	-4.577736E+14	-9.929138E-17	NaN
184	1.000000	0.044148	7.36684e+06	-47839.1	955.818	-29764.9	0.000000	0.000000	6.044732	0.039776	NaN	0.000000	0.001667	0.001713	28.0796	0.151323	0.002011	75.2347	-131.605	15.7144	0.018135	0.042802	-1.054249	-1.055595	0.039776	75.2347	-1.054645	-1.232700E+14	-3.226762E-16	NaN
184	1.000000	0.086187	7.36684e+06	-47839.1	955.818	-29764.9	0.000000	0.000000	6.086768	-0.038193	NaN	0.000000	0.001681	0.001696	28.0798	0.051341	0.002005	25.6115	6.223433	-164.237	0.017574	0.084843	-1.012210	-1.013554	-0.038193	25.6115	-1.011091	-3.199394E+13	1.193754E-15	NaN
184	1.000000	0.128208	7.36684e+06	-47839.1	955.819	-29764.9	0.000000	0.000000	6.128792	0.054513	NaN	0.000000	0.001673	0.001699	28.0785	0.056080	0.001959	28.6214	-46.4505	13.8512	0.111957	0.126856	-0.970189	-0.971541	0.054513	28.6214	-0.971617	-9.407176E+12	-5.794814E-15	NaN
184	1.000000	0.170221	7.36684e+06	-47839.1	955.819	-29764.9	0.000000	0.000000	6.170806	0.082082	NaN	0.000000	0.001671	0.001670	28.0786	0.044207	0.001853	23.8539	88.5188	-169.158	-0.007446	0.168905	-0.928176	-0.929492	0.082082	23.8539	-0.930757	-2.644912E+12	-3.103398E-14	NaN
184	1.000000	0.212214	7.36684e+06	-47839.1	955.818	-29764.9	0.000000	0.000000	6.212796	-0.010581	NaN	0.000000	0.001691	0.001666	28.0785	0.072559	0.001969	36.842	94.9008	12.913	0.016596	0.210816	-0.886183	-0.887581	-0.010581	36.842	-0.885967	-6.567438E+11	1.611159E-14	NaN
184	1.000000	0.254252	7.36684e+06	-47839.1	955.818	-29764.9	0.000000	0.000000	6.254836	0.046463	NaN	0.000000	0.001701	0.001753	28.0797	0.074404	0.001980	37.5713	-121.311	-164.393	0.000493	0.252942	-0.844145	-0.845455	0.046463	37.5713	-0.845072	-1.836558E+11	-2.529905E-13	NaN
184	1.000000	0.296296	7.36684e+06	-47839.1	955.818	-29764.9	0.000000	0.000000	6.296877	-0.030286	NaN	0.000000	0.001689	0.001648	28.0798	0.015014	0.001974	7.607217	73.6788	11.2525	-0.099033	0.294890	-0.802101	-0.803507	-0.030286	7.607217	-0.799115	-4.373654E+10	6.924622E-13	NaN
184	1.000000	0.338285	7.36684e+06	-47839.1	955.818	-29764.9	0.000000	0.000000	6.338867	0.011804	NaN	0.000000	0.001657	0.001640	28.0798	0.080605	0.002079	38.7652	-95.0612	-165.544	0.000664	0.336955	-0.760112	-0.761442	0.011804	38.7652	-0.760341	-1.299975E+10	-9.080144E-13	NaN
184	1.000000	0.380288	7.36684e+06	-47839.1	955.818	-29764.9	0.000000	0.000000	6.380871	0.023813	NaN	0.000000	0.001721	0.001681	28.0796	0.042338	0.002076	20.3939	70.6874	13.8065	-0.065471	0.378963	-0.718109	-0.719434	0.023813	20.3939	-0.718985	-3.553247E+9	-6.701710E-12	NaN
184	1.000000	0.422337	7.36684e+06	-47839.1	955.818	-29764.9	0.000000	0.000000	6.422918	-0.041681	NaN	0.000000	0.001710	0.001629	28.0784	0.091953	0.001998	46.0261	-92.6531	-165.709	-0.135251	0.421046	-0.676060	-0.677351	-0.041681	46.0261	-0.675381	-9.016061E+8	4.623020E-11	NaN
184	1.000000	0.464358	7.36684e+06	-47839.1	955.817	-29764.9	0.000000	0.000000	6.464942	0.038330	NaN	0.000000	0.001712	0.001652	28.0784	0.046239	0.001864	24.8058	-58.7886	12.0315	-0.004365	0.462985	-0.634038	-0.635411	0.038330	24.8058	-0.635197	-2.537348E+8	-1.510622E-10	NaN
184	1.000000	0.506344	7.36684e+06	-47839.1	955.818	-29764.9	0.000000	0.000000	6.506927	0.005338	NaN	0.000000	0.001729	0.001631	28.0783	0.051122	0.001953	26.1817	81.3595	-168.403	-0.092166	0.505022	-0.592052	-0.593374	0.005338	26.1817	-0.592205	-6.502300E+7	-8.210103E-11	NaN
184	1.000000	0.548370	7.36684e+06	-47839.1	955.819	-29764.9	0.000000	0.000000	6.548951	-0.019559	NaN	0.000000	0.001692	0.001632	28.0794	0.085227	0.001995	42.7236	-70.9717	14.0603	-0.030322	0.546998	-0.550027	-0.551399	-0.019559	42.7236	-0.549684	-1.681027E+7	1.163532E-9	NaN
184	1.000000	0.590385	7.36684e+06	-47839.1	955.819	-29764.9	0.000000	0.000000	6.590967	-0.011372	NaN	0.000000	0.001703	0.001622	28.0795	0.096763	0.001990	48.6336	-88.6398	-163.898	0.018261	0.589120	-0.508011	-0.509276	-0.011372	48.6336	-0.507836	-4.40827e+06	2.579602E-9	NaN
184	1.000000	0.632417	7.36684e+06	-47839.1	955.819	-29764.9	0.000000	0.000000	6.632998	-0.034848	NaN	0.000000	0.001700	0.001644	28.0795	0.108871	0.002046	53.2201	52.3711	17.4022	-0.023688	0.631054	-0.465979	-0.467343	-0.034848	53.2201	-0.465488	-1.12746e+06	3.090821E-8	NaN
184	1.000000	0.674452	7.36684e+06	-47839.1	955.818	-29764.9	0.000000	0.000000	6.675035	0.012260	NaN	0.000000	0.001714	0.001641	28.0784	0.086006	0.002107	40.8132	13.0869	-166.622	0.038580	0.673122	-0.423945	-0.425275	0.012260	40.8132	-0.424170	-294801	-4.158596E-8	NaN
184	1.000000	0.716450	7.36684e+06	-47839.1	955.818	-29764.9	0.000000	0.000000	6.717034	0.041991	NaN	0.000000	0.001704	0.001665	28.0783	0.045514	0.001897	23.9934	123.369	17.2666	0.046949	0.715125	-0.381947	-0.383271	0.041991	23.9934	-0.383259	-77026.6	-5.451492E-7	NaN
184	1.000000	0.758444	7.36684e+06	-47839.1	955.818	-29764.9	0.000000	0.000000	6.759027	0.006359	NaN	0.000000	0.001779	0.001632	28.0783	0.200334	0.002069	96.8143	-171.54	-164.267	0.018583	0.757168	-0.339952	-0.341228	0.006359	96.8143	-0.340002	-18263.3	-3.482100E-7	NaN
184	1.000000	0.800487	7.36685e+06	-47839.1	955.819	-29764.9	0.000000	0.000000	6.801068	-0.033327	NaN	0.000000	0.001718	0.001609	28.0793	0.032979	0.001983	16.6335	14.9674	14.6872	0.055592	0.799185	-0.297909	-0.299212	-0.033327	16.6335	-0.296407	-4159.93	8.011376E-6	NaN
184	1.000000	0.842510	7.36685e+06	-47839.1	955.818	-29764.9	0.000000	0.000000	6.843094	0.040209	NaN	0.000000	0.001681	0.001644	28.0794	0.096444	0.002000	48.2129	-40.6323	-166.385	0.014646	0.841188	-0.255887	-0.257208	0.040209	48.2129	-0.256512	-1036.06	-3.881003E-5	NaN
184	1.000000	0.884524	7.36685e+06	-47839.1	955.819	-29764.9	0.000000	0.000000	6.885106	-0.015374	NaN	0.000000	0.001681	0.001631	28.0795	0.063115	0.001982	31.8429	38.8943	12.9886	-0.010718	0.883166	-0.213873	-0.215231	-0.015374	31.8429	-0.213511	-218.543	7.034966E-5	NaN
184	1.000000	0.926538	7.36685e+06	-47839.1	955.819	-29764.9	0.000000	0.000000	6.927120	-0.016211	NaN	0.000000	0.001700	0.001599	28.0797	0.026587	0.002036	13.0615	50.5773	-165.143	-0.016491	0.925261	-0.171859	-0.173136	-0.016211	13.0615	-0.170928	-42.6295	0.000380	NaN
184	1.000000	0.968553	7.36685e+06	-47839.1	955.819	-29764.9	0.000000	0.000000	6.969134	-0.039804	NaN	0.000000	0.001706	0.001638	28.0787	0.024993	0.001856	13.4641	-131.735	15.5905	0.037219	0.967188	-0.129843	-0.131209	-0.039804	13.4641	-0.127626	-6.850188	0.005811	NaN
184	1.000000	1.010556	7.36685e+06	-47839.1	955.82	-29764.9	0.000000	0.000000	7.011137	-0.014673	NaN	0.000000	0.001680	0.001612	28.0796	0.082184	0.001827	44.9763	-163.807	-164.184	-0.118386	1.009256	-0.087841	-0.089141	-0.014673	44.9763	-0.087596	-0.948434	0.015471	NaN
184	1.000000	1.052610	7.36685e+06	-47839.1	955.819	-29764.9	0.000000	0.000000	7.053188	-0.102434	NaN	0.000000	0.001713	0.001680	28.0784	0.039381	0.001892	20.8129	80.309	17.7473	-0.007221	1.051243	-0.045787	-0.047154	-0.102434	20.8129	-0.042096	-0.052383	1.955482	NaN
184	1.000000	1.094567	7.36685e+06	-47839.1	955.819	-29764.9	0.000000	0.000000	7.095150	0.011507	NaN	0.000000	0.001651	0.001692	28.0795	0.118434	0.001967	60.1979	-165.951	-165.172	0.078932	1.093300	-0.003830	-0.005097	0.011507	60.1979	-0.003973	-0.002761	-4.167052	NaN
184	2.000000	1.115639	7.36685e+06	-47839.1	955.82	-29764.9	0.000000	0.000000	7.116958	17.9215	NaN	0.000000	0.001699	0.001665	28.0798	16.6777	0.001799	9272.8	9.062970	1.716661	17.3403	1.115387	0.017242	0.016990	17.9215	9272.8	0.015793	0.016357	1095.63	66241.3
184	2.000000	1.126112	7.36685e+06	-47839.1	955.82	-29764.9	0.000000	0.000000	7.128382	41.0679	NaN	0.000000	0.001653	0.001695	28.0794	27.4918	0.001851	14849.7	4.369132	-176.674	39.7262	1.125840	0.027715	0.027444	41.0679	14849.7	0.025641	0.032192	1275.73	75617.2
184	2.000000	1.136533	7.36685e+06	-47839.1	955.82	-29764.9	0.000000	0.000000	7.139959	69.16	NaN	0.000000	0.001700	0.001680	28.0782	36.4381	0.001678	21717.7	4.773850	-0.267801	65.6572	1.136204	0.038136	0.037807	69.16	21717.7	0.035748	0.053502	1292.66	85783.3
184	2.000000	1.147072	7.36685e+06	-47839.1	955.821	-29764.9	0.000000	0.000000	7.152076	107.536	NaN	0.000000	0.001677	0.001656	28.0784	47.5061	0.001830	25955.3	5.761423	176.268	106.529	1.146788	0.048675	0.048392	107.536	25955.3	0.045568	0.079208	1357.63	84258.7
184	2.000000	1.157616	7.36685e+06	-47839.1	955.82	-29764.9	0.000000	0.000000	7.164657	157.093	NaN	0.000000	0.001687	0.001693	28.0792	55.7515	0.001727	32290.9	2.386531	-1.691764	157.262	1.157308	0.059220	0.058911	157.093	32290.9	0.055571	0.110407	1422.86	88788.1
184	2.000000	1.168061	7.36685e+06	-47839.1	955.82	-29764.9	0.000000	0.000000	7.177913	225.444	NaN	0.000000	0.001687	0.001701	28.0797	69.4294	0.001825	38037.9	7.457601	173.25	223.757	1.167702	0.069665	0.069305	225.444	38037.9	0.065220	0.145187	1552.78	91206.3
184	2.000000	1.178633	7.36685e+06	-47839.1	955.819	-29764.9	0.000000	0.000000	7.191467	298.001	NaN	0.000000	0.001742	0.001667	28.0797	79.6922	0.001783	44686.3	6.460802	-8.719202	300.45	1.178263	0.080236	0.079866	298.001	44686.3	0.075235	0.186031	1601.89	94657.4
184	2.000000	1.189005	7.36685e+06	-47839.1	955.82	-29764.9	0.000000	0.000000	7.206104	401.712	NaN	0.000000	0.001640	0.001648	28.0797	88.7858	0.001733	51228.3	7.528594	169.966	402.009	1.188607	0.090609	0.090210	401.712	51228.3	0.084727	0.229103	1753.41	97784
184	2.000000	1.199568	7.36685e+06	-47839.1	955.82	-29764.9	0.000000	0.000000	7.220518	495.384	NaN	0.000000	0.001601	0.001566	28.0795	97.4378	0.001881	51799.2	4.642645	-7.418898	496.604	1.199293	0.101171	0.100896	495.384	51799.2	0.093999	0.275191	1800.14	90214.9
184	2.000000	1.206982	7.36685e+06	-47839.1	955.82	-29764.9	0.000000	0.000000	7.231026	570.641	NaN	0.000000	0.001583	0.001605	28.0782	102.753	0.001781	57695.3	6.082555	170.598	569.51	1.206607	0.108585	0.108210	570.641	57695.3	0.101167	0.313521	1820.11	94141.5