Folder: unikorn_login/remote_trans/data/nanoindenter/0828-1/data/Data_2025-08-06,11h17m57s (part 19)

File: 2025-07-22_16-23-58_1_36.txt
2025-07-22, 16:23:58, 1
Index	Phase	Displacement	Time	Pos X	Pos Y	Pos Z	Rot A	Rot B	Piezo Z	Force A	Force B	Gripper	Voltage A	Voltage B	Temperature	Amplitude force	Amplitude pos	Stiffness	Phase shift	Phase excitation	Force A raw	Displacement raw	HMax	HMax raw	Real Force	Real Stiffness	Contact Depth	Area	Hardness	Reduced Mod.
[#]	[#]	[um]	[s]	[um]	[um]	[um]	[m°]	[m°]	[um]	[uN]	[uN]	[V]	[V]	[V]	[°C]	[uN]	[um]	[N/m]	[°]	[°]	[uN]	[um]	[um]	[um]	[uN]	[N/m]	[um]	[um^2]	[MPa]	[MPa]
36	1.000000	0.002197	7.36539e+06	-40439.1	955.819	-29790.7	0.000000	0.000000	6.002767	-0.037851	NaN	0.000000	0.001593	0.001571	28.1294	0.014772	0.001008	14.6515	123.98	-168.521	-0.029856	0.000998	-1.078578	-1.079778	-0.037851	14.6515	-1.076641	-2.434446E+14	1.554816E-16	NaN
36	1.000000	0.042211	7.36539e+06	-40439.1	955.818	-29790.7	0.000000	0.000000	6.042783	0.001665	NaN	0.000000	0.001613	0.001566	28.1282	0.103484	0.002009	51.5149	-152.69	-166.615	0.057094	0.040917	-1.038564	-1.039859	0.001665	51.5149	-1.038588	-7.498717E+13	-2.220554E-17	NaN
36	1.000000	0.082202	7.36539e+06	-40439.1	955.819	-29790.7	0.000000	0.000000	6.082774	0.020774	NaN	0.000000	0.001625	0.001575	28.1294	0.015662	0.002107	7.433483	-145.677	-166.533	0.048787	0.080859	-0.998574	-0.999916	0.020774	7.433483	-1.000670	-2.316240E+13	-8.968683E-16	NaN
36	1.000000	0.122200	7.36539e+06	-40439.1	955.819	-29790.7	0.000000	0.000000	6.122771	-0.018123	NaN	0.000000	0.001659	0.001588	28.1293	0.106917	0.001979	54.013	2.962511	-167.952	0.080440	0.120839	-0.958575	-0.959937	-0.018123	54.013	-0.958324	-6.226835E+12	2.910488E-15	NaN
36	1.000000	0.162223	7.36539e+06	-40439.1	955.819	-29790.7	0.000000	0.000000	6.162793	-0.009709	NaN	0.000000	0.001618	0.001635	28.1302	0.040859	0.002066	19.7779	-160.202	-166.137	0.024677	0.160895	-0.918553	-0.919881	-0.009709	19.7779	-0.918185	-1.789351E+12	5.425767E-15	NaN
36	1.000000	0.202263	7.36539e+06	-40439.1	955.818	-29790.7	0.000000	0.000000	6.202832	-0.056693	NaN	0.000000	0.001587	0.001625	28.129	0.051412	0.001833	28.0471	113.43	-169.426	-0.114079	0.200882	-0.878512	-0.879894	-0.056693	28.0471	-0.876996	-4.966874E+11	1.141425E-13	NaN
36	1.000000	0.242252	7.36539e+06	-40439.1	955.819	-29790.7	0.000000	0.000000	6.242819	-0.100644	NaN	0.000000	0.001687	0.001599	28.1289	0.024420	0.001944	12.563	104.402	-165.413	-0.091894	0.240987	-0.838524	-0.839789	-0.100644	12.563	-0.832515	-1.241293E+11	8.107963E-13	NaN
36	1.000000	0.282256	7.36539e+06	-40439.1	955.818	-29790.7	0.000000	0.000000	6.282825	-0.053631	NaN	0.000000	0.001652	0.001583	28.1284	0.089693	0.001871	47.9442	139.243	-161.961	0.039970	0.280957	-0.798519	-0.799819	-0.053631	47.9442	-0.797680	-4.181911E+10	1.282450E-12	NaN
36	1.000000	0.322311	7.36539e+06	-40439.1	955.819	-29790.7	0.000000	0.000000	6.322880	-0.063652	NaN	0.000000	0.001625	0.001602	28.1286	0.097697	0.002075	47.0898	-77.5827	-162.695	-0.063068	0.320960	-0.758465	-0.759815	-0.063652	47.0898	-0.757451	-1.187459E+10	5.360390E-12	NaN
36	1.000000	0.362298	7.36539e+06	-40439.1	955.819	-29790.7	0.000000	0.000000	6.362869	0.014283	NaN	0.000000	0.001650	0.001600	28.1287	0.105275	0.002019	52.1482	165.525	-163.612	0.062196	0.360977	-0.718478	-0.719798	0.014283	52.1482	-0.718683	-3.519781E+9	-4.058018E-12	NaN
36	1.000000	0.402323	7.36539e+06	-40439.1	955.819	-29790.7	0.000000	0.000000	6.402894	0.004102	NaN	0.000000	0.001635	0.001653	28.1295	0.074076	0.001848	40.086	-142.843	-165.594	-0.022777	0.401009	-0.678452	-0.679766	0.004102	40.086	-0.678529	-9.956101E+8	-4.120365E-12	NaN
36	1.000000	0.442341	7.36539e+06	-40439.1	955.818	-29790.7	0.000000	0.000000	6.442911	-0.042567	NaN	0.000000	0.001634	0.001603	28.1289	0.100242	0.001982	50.5762	-136.237	-165.174	-0.018255	0.441035	-0.638434	-0.639741	-0.042567	50.5762	-0.637803	-2.755139E+8	1.545003E-10	NaN
36	1.000000	0.482366	7.36539e+06	-40439.1	955.818	-29790.7	0.000000	0.000000	6.482935	-0.045610	NaN	0.000000	0.001657	0.001557	28.1301	0.053243	0.001932	27.5519	-93.0419	-165.38	-0.054408	0.481050	-0.598410	-0.599726	-0.045610	27.5519	-0.597168	-7.611213E+7	5.992485E-10	NaN
36	1.000000	0.522401	7.36539e+06	-40439.1	955.817	-29790.7	0.000000	0.000000	6.522974	0.046531	NaN	0.000000	0.001569	0.001585	28.1271	0.064711	0.001900	34.0658	110.384	-164.602	0.079318	0.521041	-0.558374	-0.559735	0.046531	34.0658	-0.559399	-2.291187E+7	-2.030871E-9	NaN
36	1.000000	0.562390	7.36539e+06	-40439.1	955.818	-29790.7	0.000000	0.000000	6.562960	-0.010530	NaN	0.000000	0.001601	0.001627	28.128	0.033594	0.002054	16.3571	-99.1311	-165.794	0.008674	0.561109	-0.518386	-0.519666	-0.010530	16.3571	-0.517903	-6.08736e+06	1.729844E-9	NaN
36	1.000000	0.602428	7.36539e+06	-40439.1	955.818	-29790.7	0.000000	0.000000	6.602997	-0.056360	NaN	0.000000	0.001580	0.001604	28.1269	0.125400	0.002052	61.108	27.316	-168.02	-0.044247	0.601154	-0.478348	-0.479621	-0.056360	61.108	-0.477656	-1.66996e+06	3.374921E-8	NaN
36	1.000000	0.642422	7.3654e+06	-40439.1	955.819	-29790.7	0.000000	0.000000	6.642992	-0.012957	NaN	0.000000	0.001604	0.001622	28.129	0.088565	0.002042	43.3723	3.629267	-167.892	-0.100597	0.641086	-0.438354	-0.439690	-0.012957	43.3723	-0.438130	-464473	2.789537E-8	NaN
36	1.000000	0.682463	7.3654e+06	-40439.1	955.819	-29790.7	0.000000	0.000000	6.683034	-0.011954	NaN	0.000000	0.001601	0.001601	28.128	0.059358	0.001942	30.5689	-154.338	-163.388	-0.060844	0.681146	-0.398312	-0.399630	-0.011954	30.5689	-0.398019	-125238	9.544914E-8	NaN
36	1.000000	0.722470	7.3654e+06	-40439.1	955.818	-29790.7	0.000000	0.000000	6.723040	-0.023755	NaN	0.000000	0.001606	0.001547	28.1287	0.033070	0.001982	16.6886	-68.9096	-163.013	-0.005350	0.721145	-0.358305	-0.359630	-0.023755	16.6886	-0.357238	-32500.8	7.309194E-7	NaN
36	1.000000	0.762449	7.3654e+06	-40439.1	955.818	-29790.7	0.000000	0.000000	6.763019	-0.036578	NaN	0.000000	0.001620	0.001559	28.1274	0.005247	0.001908	2.749367	75.5364	-164.446	-0.057830	0.761121	-0.318326	-0.319655	-0.036578	2.749367	-0.308348	-6260.36	5.842829E-6	NaN
36	1.000000	0.802527	7.3654e+06	-40439.1	955.818	-29790.7	0.000000	0.000000	6.803098	-0.000553	NaN	0.000000	0.001592	0.001616	28.1273	0.092540	0.002023	45.7383	-150.578	-167.165	-0.018452	0.801161	-0.278249	-0.279615	-0.000553	45.7383	-0.278239	-2220.2	2.491958E-7	NaN
36	1.000000	0.842532	7.3654e+06	-40439.1	955.819	-29790.7	0.000000	0.000000	6.843105	0.026177	NaN	0.000000	0.001598	0.001575	28.1263	0.123368	0.002057	59.9636	-13.4413	-167.042	-0.050850	0.841205	-0.238243	-0.239571	0.026177	59.9636	-0.238571	-546.02	-4.794168E-5	NaN
36	1.000000	0.882540	7.3654e+06	-40439.1	955.818	-29790.7	0.000000	0.000000	6.883108	-0.058222	NaN	0.000000	0.001689	0.001634	28.1275	0.037304	0.001884	19.8045	-46.0877	-166.172	-0.062740	0.881217	-0.198236	-0.199558	-0.058222	19.8045	-0.196031	-113.31	0.000514	NaN
36	1.000000	0.922572	7.3654e+06	-40439.1	955.819	-29790.7	0.000000	0.000000	6.923141	-0.060806	NaN	0.000000	0.001569	0.001623	28.1273	0.077924	0.002030	38.3809	-171.046	-168.782	-0.030086	0.921298	-0.158203	-0.159478	-0.060806	38.3809	-0.157015	-24.2522	0.002507	NaN
36	1.000000	0.962553	7.3654e+06	-40439.1	955.819	-29790.7	0.000000	0.000000	6.963125	0.021582	NaN	0.000000	0.001683	0.001658	28.128	0.030043	0.002018	14.8855	150.751	-163.445	0.000847	0.961233	-0.118222	-0.119543	0.021582	14.8855	-0.119310	-4.678741	-0.004613	NaN
36	1.000000	1.002570	7.3654e+06	-40439.1	955.819	-29790.7	0.000000	0.000000	7.003141	-0.008158	NaN	0.000000	0.001669	0.001634	28.1267	0.041538	0.002092	19.8567	177.965	-162.88	-0.058712	1.001290	-0.078206	-0.079486	-0.008158	19.8567	-0.077897	-0.547943	0.014888	NaN
36	1.000000	1.042604	7.3654e+06	-40439.1	955.818	-29790.7	0.000000	0.000000	7.043339	3.996893	NaN	0.000000	0.001690	0.001686	28.1273	2.180169	0.002038	1069.6	14.1462	-170.673	3.542736	1.041287	-0.038172	-0.039489	3.996893	1069.6	-0.040974	-0.048416	-82.5533	NaN
36	2.000000	1.067219	7.3654e+06	-40439.1	955.819	-29790.7	0.000000	0.000000	7.068118	7.964222	NaN	0.000000	0.001566	0.001647	28.1261	3.077174	0.002028	1517.55	8.848339	-169.679	8.030504	1.066898	-0.013556	-0.013877	7.964222	1517.55	-0.017492	-0.010828	-735.503	NaN
36	2.000000	1.077166	7.3654e+06	-40439.1	955.82	-29790.7	0.000000	0.000000	7.077817	1.936820	NaN	0.000000	0.001635	0.001700	28.1266	1.747162	0.002020	865.123	10.659	-168.496	2.054971	1.076874	-0.003610	-0.003902	1.936820	865.123	-0.005289	-0.003597	-538.417	NaN
36	2.000000	1.087134	7.3654e+06	-40439.1	955.819	-29790.7	0.000000	0.000000	7.087854	3.617407	NaN	0.000000	0.001599	0.001697	28.1259	3.194768	0.001808	1767.43	6.380615	-168.825	3.635517	1.086821	0.006359	0.006046	3.617407	1767.43	0.004824	0.003973	910.466	25618.2
36	2.000000	1.097136	7.3654e+06	-40439.1	955.82	-29790.7	0.000000	0.000000	7.098140	10.5341	NaN	0.000000	0.001567	0.001631	28.1279	8.512205	0.001851	4598.77	11.2495	-174.196	10.194	1.096816	0.016360	0.016041	10.5341	4598.77	0.014642	0.014811	711.235	34524.1
36	2.000000	1.107101	7.3654e+06	-40439.1	955.82	-29790.7	0.000000	0.000000	7.109335	40.4749	NaN	0.000000	0.001583	0.001642	28.1263	20.9777	0.001787	11741.7	3.062347	-175.13	39.0916	1.106736	0.026325	0.025960	40.4749	11741.7	0.023740	0.028763	1407.19	63254.2
36	2.000000	1.117117	7.3654e+06	-40439.1	955.821	-29790.7	0.000000	0.000000	7.121278	87.3607	NaN	0.000000	0.001547	0.001666	28.1269	31.2694	0.001834	17045.3	4.805643	179.936	88.1466	1.116777	0.036342	0.036002	87.3607	17045.3	0.032498	0.046080	1895.85	72547.5
36	2.000000	1.127104	7.3654e+06	-40439.1	955.82	-29790.7	0.000000	0.000000	7.133523	142.282	NaN	0.000000	0.001664	0.001672	28.1244	40.3124	0.001808	22301.5	1.115869	-178.973	142.723	1.126797	0.046329	0.046021	142.282	22301.5	0.041544	0.068079	2089.95	78090.9
36	2.000000	1.137084	7.3654e+06	-40439.1	955.82	-29790.7	0.000000	0.000000	7.146997	227.321	NaN	0.000000	0.001634	0.001686	28.1252	51.6906	0.001929	26797.5	7.274429	175.297	228.042	1.136661	0.056309	0.055886	227.321	26797.5	0.049946	0.092247	2464.26	80610.2
36	2.000000	1.146934	7.3654e+06	-40439.1	955.819	-29790.7	0.000000	0.000000	7.160195	308.784	NaN	0.000000	0.001615	0.001725	28.1238	60.4075	0.001910	31632.7	5.312264	173.936	301.357	1.146672	0.066159	0.065897	308.784	31632.7	0.058837	0.121673	2537.83	82853.8
36	2.000000	1.156978	7.3654e+06	-40439.1	955.82	-29790.7	0.000000	0.000000	7.174866	421.393	NaN	0.000000	0.001601	0.001778	28.1255	69.2915	0.001821	38042.5	6.224917	171.781	418.207	1.156665	0.076202	0.075890	421.393	38042.5	0.067895	0.155629	2707.68	88104.4
36	2.000000	1.160492	7.3654e+06	-40439.1	955.819	-29790.7	0.000000	0.000000	7.179871	457.678	NaN	0.000000	0.001578	0.001751	28.0859	71.6419	0.001734	41323.9	4.312773	-7.394131	451.016	1.160214	0.079716	0.079438	457.678	41323.9	0.071410	0.169869	2694.29	91604.5

File: 2025-07-22_16-23-58_1_37.txt
2025-07-22, 16:23:58, 1
Index	Phase	Displacement	Time	Pos X	Pos Y	Pos Z	Rot A	Rot B	Piezo Z	Force A	Force B	Gripper	Voltage A	Voltage B	Temperature	Amplitude force	Amplitude pos	Stiffness	Phase shift	Phase excitation	Force A raw	Displacement raw	HMax	HMax raw	Real Force	Real Stiffness	Contact Depth	Area	Hardness	Reduced Mod.
[#]	[#]	[um]	[s]	[um]	[um]	[um]	[m°]	[m°]	[um]	[uN]	[uN]	[V]	[V]	[V]	[°C]	[uN]	[um]	[N/m]	[°]	[°]	[uN]	[um]	[um]	[um]	[uN]	[N/m]	[um]	[um^2]	[MPa]	[MPa]
37	1.000000	0.002240	7.3654e+06	-40489.1	955.818	-29790.5	0.000000	0.000000	6.002826	0.078891	NaN	0.000000	0.001624	0.001761	28.1223	0.063734	0.001021	62.412	78.1839	-164.901	0.084672	0.000932	-1.072755	-1.074063	0.078891	62.412	-1.073703	-2.222958E+14	-3.548920E-16	NaN
37	1.000000	0.042187	7.3654e+06	-40489.1	955.818	-29790.5	0.000000	0.000000	6.042769	-0.002036	NaN	0.000000	0.001622	0.001773	28.1231	0.046020	0.001990	23.1269	134.09	-166.1	0.023267	0.040889	-1.032808	-1.034106	-0.002036	23.1269	-1.032742	-6.256913E+13	3.254623E-17	NaN
37	1.000000	0.082173	7.3654e+06	-40489.1	955.818	-29790.5	0.000000	0.000000	6.082758	0.055362	NaN	0.000000	0.001631	0.001789	28.121	0.066211	0.001977	33.4922	-159.843	-166.851	0.033881	0.080885	-0.992821	-0.994109	0.055362	33.4922	-0.994061	-1.887128E+13	-2.933683E-15	NaN
37	1.000000	0.122186	7.3654e+06	-40489.1	955.819	-29790.5	0.000000	0.000000	6.122769	0.007186	NaN	0.000000	0.001643	0.001794	28.1241	0.121824	0.002017	60.3893	166.355	-163.164	-0.017472	0.120844	-0.952809	-0.954150	0.007186	60.3893	-0.952898	-5.261504E+12	-1.365789E-15	NaN
37	1.000000	0.162202	7.3654e+06	-40489.1	955.818	-29790.5	0.000000	0.000000	6.162786	0.038754	NaN	0.000000	0.001611	0.001809	28.1234	0.126449	0.002042	61.9339	-10.7232	-167.434	0.051360	0.160945	-0.912792	-0.914049	0.038754	61.9339	-0.913262	-1.535381E+12	-2.524067E-14	NaN
37	1.000000	0.202231	7.3654e+06	-40489.1	955.819	-29790.5	0.000000	0.000000	6.202813	-0.005355	NaN	0.000000	0.001629	0.001804	28.1247	0.162921	0.001955	83.3332	-35.4393	-164.432	0.054912	0.200907	-0.872763	-0.874088	-0.005355	83.3332	-0.872715	-4.346857E+11	1.231835E-14	NaN
37	1.000000	0.242251	7.3654e+06	-40489.1	955.819	-29790.5	0.000000	0.000000	6.242834	0.004776	NaN	0.000000	0.001630	0.001807	28.1225	0.088344	0.001943	45.4787	53.2279	-165.712	-0.016276	0.240945	-0.832743	-0.834050	0.004776	45.4787	-0.832822	-1.253238E+11	-3.811133E-14	NaN
37	1.000000	0.282290	7.3654e+06	-40489.1	955.819	-29790.5	0.000000	0.000000	6.282873	-0.000766	NaN	0.000000	0.001641	0.001785	28.1215	0.034512	0.001949	17.711	25.3425	-165.4	0.027840	0.280949	-0.792704	-0.794045	-0.000766	17.711	-0.792672	-3.575759E+10	2.141998E-14	NaN
37	1.000000	0.322282	7.3654e+06	-40489.1	955.818	-29790.5	0.000000	0.000000	6.322866	0.036624	NaN	0.000000	0.001652	0.001790	28.1212	0.099580	0.002026	49.1428	116.65	-167.217	0.012257	0.320952	-0.752713	-0.754043	0.036624	49.1428	-0.753272	-1.041723E+10	-3.515685E-12	NaN
37	1.000000	0.362314	7.3654e+06	-40489.1	955.817	-29790.5	0.000000	0.000000	6.362897	0.006771	NaN	0.000000	0.001640	0.001734	28.1213	0.108551	0.001919	56.5797	61.4923	-167.284	0.066646	0.360989	-0.712680	-0.714006	0.006771	56.5797	-0.712770	-2.923124E+9	-2.316464E-12	NaN
37	1.000000	0.402276	7.3654e+06	-40489.1	955.818	-29790.5	0.000000	0.000000	6.402863	0.102374	NaN	0.000000	0.001651	0.001739	28.1213	0.047985	0.001993	24.0828	166.89	-165.401	-0.011170	0.401030	-0.672718	-0.673965	0.102374	24.0828	-0.675906	-9.166668E+8	-1.116807E-10	NaN
37	1.000000	0.442311	7.3654e+06	-40489.1	955.817	-29790.5	0.000000	0.000000	6.442892	-0.025058	NaN	0.000000	0.001639	0.001750	28.1219	0.090226	0.002000	45.1033	135.334	-167.401	0.017422	0.441045	-0.632684	-0.633950	-0.025058	45.1033	-0.632267	-2.312891E+8	1.083415E-10	NaN
37	1.000000	0.482388	7.3654e+06	-40489.1	955.819	-29790.5	0.000000	0.000000	6.482970	-0.002922	NaN	0.000000	0.001708	0.001742	28.1206	0.057126	0.001983	28.8049	-112.207	-163.63	0.047999	0.480982	-0.592607	-0.594012	-0.002922	28.8049	-0.592531	-6.569830E+7	4.448178E-11	NaN
37	1.000000	0.522363	7.3654e+06	-40489.1	955.818	-29790.5	0.000000	0.000000	6.522950	0.106475	NaN	0.000000	0.001613	0.001772	28.1218	0.093782	0.001857	50.5019	133.144	-165.512	0.035773	0.521064	-0.552632	-0.553931	0.106475	50.5019	-0.554213	-1.942187E+7	-5.482207E-9	NaN
37	1.000000	0.562386	7.3654e+06	-40489.1	955.817	-29790.5	0.000000	0.000000	6.562972	0.080694	NaN	0.000000	0.001685	0.001793	28.1187	0.004890	0.001978	2.471719	-133.559	-164.33	0.102732	0.561058	-0.512609	-0.513937	0.080694	2.471719	-0.537094	-1.124724E+7	-7.174603E-9	NaN
37	1.000000	0.602401	7.3654e+06	-40489.1	955.818	-29790.5	0.000000	0.000000	6.602984	0.027483	NaN	0.000000	0.001606	0.001755	28.1203	0.030058	0.001949	15.4205	75.9534	-163.57	0.002706	0.601046	-0.472594	-0.473948	0.027483	15.4205	-0.473931	-1.48086e+06	-1.855895E-8	NaN
37	1.000000	0.642437	7.3654e+06	-40489.1	955.819	-29790.5	0.000000	0.000000	6.643023	0.080789	NaN	0.000000	0.001622	0.001787	28.1191	0.030027	0.001870	16.0607	-126.121	-166.616	0.105429	0.641070	-0.432558	-0.433925	0.080789	16.0607	-0.436330	-438076	-1.844187E-7	NaN
37	1.000000	0.682431	7.3654e+06	-40489.1	955.818	-29790.5	0.000000	0.000000	6.683015	0.047262	NaN	0.000000	0.001630	0.001795	28.1208	0.123115	0.002064	59.6618	74.6757	-166.039	0.109550	0.681099	-0.392564	-0.393896	0.047262	59.6618	-0.393158	-106738	-4.427880E-7	NaN
37	1.000000	0.722449	7.3654e+06	-40489.1	955.818	-29790.5	0.000000	0.000000	6.723033	0.059403	NaN	0.000000	0.001586	0.001723	28.1192	0.099604	0.001972	50.5133	140.443	-166.48	0.127985	0.721147	-0.352546	-0.353848	0.059403	50.5133	-0.353428	-28623.4	-2.075328E-6	NaN
37	1.000000	0.762468	7.36541e+06	-40489.1	955.818	-29790.5	0.000000	0.000000	6.763053	0.074239	NaN	0.000000	0.001631	0.001783	28.1206	0.015613	0.001884	8.288046	82.5398	-168.999	0.111061	0.761223	-0.312527	-0.313771	0.074239	8.288046	-0.319245	-9068.14	-8.186806E-6	NaN
37	1.000000	0.802511	7.36541e+06	-40489.1	955.819	-29790.5	0.000000	0.000000	6.803095	0.043782	NaN	0.000000	0.001698	0.001765	28.1179	0.084515	0.001828	46.2429	-29.3588	-167.439	0.051051	0.801180	-0.272484	-0.273814	0.043782	46.2429	-0.273194	-1862.25	-2.351000E-5	NaN
37	1.000000	0.842476	7.36541e+06	-40489.1	955.818	-29790.5	0.000000	0.000000	6.843060	0.028184	NaN	0.000000	0.001681	0.001725	28.119	0.035699	0.002287	15.6102	-171.679	-169.102	-0.019044	0.841184	-0.232518	-0.233810	0.028184	15.6102	-0.233873	-460.823	-6.116049E-5	NaN
37	1.000000	0.882533	7.36541e+06	-40489.1	955.819	-29790.5	0.000000	0.000000	6.883118	0.071430	NaN	0.000000	0.001710	0.001792	28.1176	0.072898	0.002018	36.1323	-101.554	-167.576	0.056102	0.881254	-0.192462	-0.193741	0.071430	36.1323	-0.193944	-104.64	-0.000683	NaN
37	1.000000	0.922547	7.36541e+06	-40489.1	955.818	-29790.5	0.000000	0.000000	6.923132	0.045670	NaN	0.000000	0.001689	0.001814	28.1184	0.046807	0.001958	23.9053	-54.8215	-168.224	0.026417	0.921202	-0.152447	-0.153792	0.045670	23.9053	-0.153880	-21.3009	-0.002144	NaN
37	1.000000	0.962558	7.36541e+06	-40489.1	955.818	-29790.5	0.000000	0.000000	6.963143	0.045837	NaN	0.000000	0.001714	0.001745	28.1181	0.087049	0.001961	44.3803	128.98	-167.583	0.075777	0.961275	-0.112436	-0.113720	0.045837	44.3803	-0.113211	-3.508154	-0.013066	NaN
37	1.000000	1.002571	7.36541e+06	-40489.1	955.82	-29790.5	0.000000	0.000000	7.003155	0.057846	NaN	0.000000	0.001723	0.001765	28.1192	0.087927	0.002074	42.3942	140.048	-164.309	0.000733	1.001228	-0.072424	-0.073767	0.057846	42.3942	-0.073447	-0.420856	-0.137449	NaN
37	1.000000	1.042555	7.36541e+06	-40489.1	955.82	-29790.5	0.000000	0.000000	7.043139	0.040047	NaN	0.000000	0.001713	0.001789	28.1183	0.107706	0.002071	52.0177	93.3384	-168.018	0.010875	1.041232	-0.032439	-0.033763	0.040047	52.0177	-0.033017	-0.028029	-1.428732	NaN
37	1.000000	1.082600	7.36541e+06	-40489.1	955.819	-29790.5	0.000000	0.000000	7.083207	0.611845	NaN	0.000000	0.001649	0.001805	28.1172	0.933151	0.002056	453.856	10.1564	-169.138	0.125021	1.081319	0.007605	0.006324	0.611845	453.856	0.006594	0.005636	108.565	5523.52
37	2.000000	1.101143	7.36541e+06	-40489.1	955.82	-29790.5	0.000000	0.000000	7.102350	15.2053	NaN	0.000000	0.001668	0.001789	28.1162	15.5456	0.001827	8507.54	8.806103	-178.076	15.6733	1.100809	0.026148	0.025814	15.2053	8507.54	0.024808	0.030667	495.819	44385.5
37	2.000000	1.111093	7.36541e+06	-40489.1	955.821	-29790.5	0.000000	0.000000	7.113189	36.8288	NaN	0.000000	0.001691	0.001823	28.1172	26.5549	0.001734	15316.6	4.034156	-179.715	36.0661	1.110827	0.036099	0.035832	36.8288	15316.6	0.034295	0.050118	734.842	62508.4
37	2.000000	1.121086	7.36541e+06	-40489.1	955.821	-29790.5	0.000000	0.000000	7.124393	66.3029	NaN	0.000000	0.001678	0.001787	28.1163	35.5855	0.001680	21182.7	3.694610	178.39	66.1644	1.120796	0.046092	0.045802	66.3029	21182.7	0.043744	0.074062	895.232	71114.3
37	2.000000	1.131024	7.36541e+06	-40489.1	955.821	-29790.5	0.000000	0.000000	7.135973	106.271	NaN	0.000000	0.001645	0.001788	28.1178	46.8353	0.001716	27300.6	2.729042	177.013	104.337	1.130721	0.056029	0.055726	106.271	27300.6	0.053109	0.102266	1039.16	77997.5
37	2.000000	1.141001	7.36541e+06	-40489.1	955.821	-29790.5	0.000000	0.000000	7.147620	146.884	NaN	0.000000	0.001612	0.001782	28.117	57.5712	0.001865	30872.6	5.827759	173.132	145.717	1.140736	0.066007	0.065741	146.884	30872.6	0.062438	0.134697	1090.48	76854.2
37	2.000000	1.150991	7.36541e+06	-40489.1	955.821	-29790.5	0.000000	0.000000	7.159390	190.2	NaN	0.000000	0.001671	0.001768	28.1173	65.5296	0.001797	36474.3	4.744309	172.704	189.083	1.150753	0.075997	0.075758	190.2	36474.3	0.072086	0.172676	1101.49	80194.5
37	2.000000	1.161026	7.36541e+06	-40489.1	955.821	-29790.5	0.000000	0.000000	7.171688	245.266	NaN	0.000000	0.001684	0.001721	28.1153	75.7801	0.001778	42614.1	3.570321	173.172	245.612	1.160795	0.086031	0.085800	245.266	42614.1	0.081715	0.214979	1140.88	83970.8
37	2.000000	1.170930	7.36541e+06	-40489.1	955.821	-29790.5	0.000000	0.000000	7.185197	333.007	NaN	0.000000	0.001654	0.001744	28.1161	85.4702	0.001933	44223.2	6.843917	169.896	328.809	1.170605	0.095935	0.095611	333.007	44223.2	0.090288	0.256270	1299.44	79813.2
37	2.000000	1.180992	7.36541e+06	-40489.1	955.82	-29790.5	0.000000	0.000000	7.199053	425.333	NaN	0.000000	0.001641	0.001765	28.1144	94.5634	0.001775	53275.2	3.359027	171.536	422.586	1.180775	0.105997	0.105780	425.333	53275.2	0.100009	0.307169	1384.69	87823.2
37	2.000000	1.191093	7.36541e+06	-40489.1	955.821	-29790.5	0.000000	0.000000	7.213214	524.123	NaN	0.000000	0.001666	0.001804	28.1161	103.376	0.001793	57641.3	4.295418	170.118	528.589	1.190778	0.116098	0.115783	524.123	57641.3	0.109279	0.359704	1457.09	87808
37	2.000000	1.192342	7.36541e+06	-40489.1	955.821	-29790.5	0.000000	0.000000	7.215867	558.272	NaN	0.000000	0.001637	0.001811	28.0809	103.362	0.001705	60609.8	7.319911	-13.0412	548.354	1.192040	0.117348	0.117046	558.272	60609.8	0.110440	0.366559	1523.01	91462.8