Folder: unikorn_login/remote_trans/data/nanoindenter/0828-1/data/Data_2025-08-06,11h17m57s (part 37)

File: 2025-07-22_16-23-58_1_72.txt
2025-07-22, 16:23:58, 1
Index	Phase	Displacement	Time	Pos X	Pos Y	Pos Z	Rot A	Rot B	Piezo Z	Force A	Force B	Gripper	Voltage A	Voltage B	Temperature	Amplitude force	Amplitude pos	Stiffness	Phase shift	Phase excitation	Force A raw	Displacement raw	HMax	HMax raw	Real Force	Real Stiffness	Contact Depth	Area	Hardness	Reduced Mod.
[#]	[#]	[um]	[s]	[um]	[um]	[um]	[m°]	[m°]	[um]	[uN]	[uN]	[V]	[V]	[V]	[°C]	[uN]	[um]	[N/m]	[°]	[°]	[uN]	[um]	[um]	[um]	[uN]	[N/m]	[um]	[um^2]	[MPa]	[MPa]
72	1.000000	0.002694	7.36575e+06	-42239.1	955.817	-29784.1	0.000000	0.000000	6.002796	-0.005995	NaN	0.000000	0.001611	0.001688	28.1187	0.053895	0.000938	57.4609	7.354073	-162.982	0.018183	0.001367	-0.966049	-0.967375	-0.005995	57.4609	-0.965970	-7.894997E+12	7.593671E-16	NaN
72	1.000000	0.040676	7.36575e+06	-42239.1	955.817	-29784.1	0.000000	0.000000	6.040777	-0.036959	NaN	0.000000	0.001643	0.001688	28.0851	0.088665	0.001914	46.3248	-156.607	13.3626	-0.015322	0.039293	-0.928067	-0.929449	-0.036959	46.3248	-0.927468	-2.387962E+12	1.547713E-14	NaN
72	1.000000	0.078650	7.36575e+06	-42239.1	955.818	-29784.1	0.000000	0.000000	6.078751	-0.059533	NaN	0.000000	0.001662	0.001684	28.0852	0.025706	0.001968	13.065	66.4001	-169.045	0.035545	0.077356	-0.890092	-0.891387	-0.059533	13.065	-0.886675	-6.713666E+11	8.867433E-14	NaN
72	1.000000	0.116673	7.36575e+06	-42239.1	955.818	-29784.1	0.000000	0.000000	6.116774	-0.054299	NaN	0.000000	0.001654	0.001694	28.1236	0.053629	0.001895	28.307	-37.1222	12.4334	-0.082098	0.115330	-0.852069	-0.853413	-0.054299	28.307	-0.850630	-2.184113E+11	2.486075E-13	NaN
72	1.000000	0.154697	7.36575e+06	-42239.1	955.818	-29784.1	0.000000	0.000000	6.154800	-0.007650	NaN	0.000000	0.001628	0.001639	28.1172	0.033648	0.002098	16.0388	68.7589	-166.25	-0.033658	0.153396	-0.814045	-0.815346	-0.007650	16.0388	-0.813687	-6.895892E+10	1.109413E-13	NaN
72	1.000000	0.192712	7.36575e+06	-42239.1	955.818	-29784.1	0.000000	0.000000	6.192812	-0.059145	NaN	0.000000	0.001614	0.001626	28.0827	0.111418	0.002027	54.9565	62.7001	11.8686	-0.044194	0.191397	-0.776030	-0.777345	-0.059145	54.9565	-0.775223	-2.071625E+10	2.855025E-12	NaN
72	1.000000	0.230700	7.36575e+06	-42239.1	955.818	-29784.1	0.000000	0.000000	6.230802	-0.039267	NaN	0.000000	0.001652	0.001620	28.0855	0.062005	0.001958	31.6606	-163.177	-166.153	-0.002808	0.229377	-0.738042	-0.739366	-0.039267	31.6606	-0.737112	-6.276421E+9	6.256213E-12	NaN
72	1.000000	0.268760	7.36575e+06	-42239.1	955.818	-29784.1	0.000000	0.000000	6.268861	-0.038738	NaN	0.000000	0.001655	0.001642	28.1229	0.082188	0.001987	41.3541	97.2648	13.7571	-0.029649	0.267392	-0.699982	-0.701350	-0.038738	41.3541	-0.699280	-1.912914E+9	2.025092E-11	NaN
72	1.000000	0.306786	7.36575e+06	-42239.1	955.818	-29784.1	0.000000	0.000000	6.306886	-0.078395	NaN	0.000000	0.001555	0.001631	28.1195	0.044245	0.002019	21.9152	78.0593	-161.896	-0.139443	0.305434	-0.661956	-0.663308	-0.078395	21.9152	-0.659273	-5.426388E+8	1.444702E-10	NaN
72	1.000000	0.344773	7.36575e+06	-42239.1	955.818	-29784.1	0.000000	0.000000	6.344874	-0.038397	NaN	0.000000	0.001558	0.001653	28.0839	0.055740	0.002101	26.5309	4.054308	15.171	-0.078964	0.343458	-0.623970	-0.625284	-0.038397	26.5309	-0.622884	-1.718982E+8	2.233683E-10	NaN
72	1.000000	0.382789	7.36575e+06	-42239.1	955.818	-29784.1	0.000000	0.000000	6.382889	-0.068988	NaN	0.000000	0.001528	0.001665	28.0875	0.072476	0.002045	35.4491	-144.423	-168.016	-0.059200	0.381469	-0.585953	-0.587274	-0.068988	35.4491	-0.584494	-5.090147E+7	1.355322E-9	NaN
72	1.000000	0.420829	7.36575e+06	-42239.1	955.818	-29784.1	0.000000	0.000000	6.420933	0.025389	NaN	0.000000	0.001547	0.001643	28.1229	0.052953	0.002003	26.4426	75.276	12.9298	0.003524	0.419504	-0.547914	-0.549239	0.025389	26.4426	-0.548634	-1.625660E+7	-1.561768E-9	NaN
72	1.000000	0.458833	7.36575e+06	-42239.1	955.818	-29784.1	0.000000	0.000000	6.458934	-0.042168	NaN	0.000000	0.001656	0.001690	28.1165	0.094637	0.001960	48.2904	-22.7041	-164.408	0.005457	0.457488	-0.509910	-0.511254	-0.042168	48.2904	-0.509255	-4.61353e+06	9.140147E-9	NaN
72	1.000000	0.496839	7.36575e+06	-42239.1	955.818	-29784.1	0.000000	0.000000	6.496939	-0.066091	NaN	0.000000	0.001545	0.001705	28.0816	0.106595	0.001968	54.1638	110.13	14.9895	0.006972	0.495469	-0.471903	-0.473274	-0.066091	54.1638	-0.470988	-1.34669e+06	4.907634E-8	NaN
72	1.000000	0.534843	7.36575e+06	-42239.1	955.817	-29784.1	0.000000	0.000000	6.534943	-0.072865	NaN	0.000000	0.001568	0.001620	28.085	0.172014	0.001971	87.2776	-114.221	-165.692	0.002854	0.533582	-0.433899	-0.435161	-0.072865	87.2776	-0.433273	-396595	1.837258E-7	NaN
72	1.000000	0.572869	7.36575e+06	-42239.1	955.818	-29784.1	0.000000	0.000000	6.572971	-0.024591	NaN	0.000000	0.001540	0.001651	28.1245	0.094347	0.001947	48.454	-90.3158	16.2573	0.001077	0.571529	-0.395873	-0.397213	-0.024591	48.454	-0.395493	-115258	2.133589E-7	NaN
72	1.000000	0.610876	7.36575e+06	-42239.1	955.818	-29784.1	0.000000	0.000000	6.610980	0.028061	NaN	0.000000	0.001584	0.001693	28.1172	0.076807	0.002111	36.3917	-104.389	-167.309	0.043003	0.609589	-0.357866	-0.359153	0.028061	36.3917	-0.358445	-33834.3	-8.293584E-7	NaN
72	1.000000	0.648876	7.36575e+06	-42239.1	955.818	-29784.1	0.000000	0.000000	6.648979	0.004648	NaN	0.000000	0.001585	0.001695	28.0821	0.052831	0.001910	27.6649	41.7494	10.789	0.065980	0.647550	-0.319866	-0.321192	0.004648	27.6649	-0.319992	-9300.78	-4.997757E-7	NaN
72	1.000000	0.686935	7.36575e+06	-42239.1	955.819	-29784.1	0.000000	0.000000	6.687040	0.060742	NaN	0.000000	0.001557	0.001664	28.0867	0.069714	0.001890	36.8878	130.101	-165.74	0.062957	0.685606	-0.281808	-0.283137	0.060742	36.8878	-0.283043	-2623.13	-2.315618E-5	NaN
72	1.000000	0.724940	7.36575e+06	-42239.1	955.819	-29784.1	0.000000	0.000000	6.725042	-0.011696	NaN	0.000000	0.001577	0.001724	28.1238	0.113976	0.002018	56.4774	157.476	13.4882	0.010633	0.723538	-0.243803	-0.245204	-0.011696	56.4774	-0.243647	-655.267	1.784880E-5	NaN
72	1.000000	0.762953	7.36575e+06	-42239.1	955.818	-29784.1	0.000000	0.000000	6.763056	0.003999	NaN	0.000000	0.001554	0.001653	28.1146	0.053979	0.001937	27.8715	120.41	-169.214	-0.054217	0.761600	-0.205790	-0.207142	0.003999	27.8715	-0.205897	-164.507	-2.431033E-5	NaN
72	1.000000	0.800980	7.36575e+06	-42239.1	955.818	-29784.1	0.000000	0.000000	6.801083	0.014632	NaN	0.000000	0.001548	0.001698	28.0804	0.064154	0.002079	30.8584	116.097	17.6398	0.044947	0.799619	-0.167762	-0.169123	0.014632	30.8584	-0.168118	-38.0947	-0.000384	NaN
72	1.000000	0.838968	7.36575e+06	-42239.1	955.818	-29784.1	0.000000	0.000000	6.839070	-0.020402	NaN	0.000000	0.001573	0.001704	28.0878	0.107748	0.002066	52.1466	-72.9973	-164.004	-0.030638	0.837660	-0.129774	-0.131082	-0.020402	52.1466	-0.129481	-7.445913	0.002740	NaN
72	1.000000	0.877027	7.36575e+06	-42239.1	955.819	-29784.1	0.000000	0.000000	6.877129	-0.007954	NaN	0.000000	0.001654	0.001652	28.1253	0.058270	0.001969	29.5906	95.4801	14.875	-0.001175	0.875643	-0.091716	-0.093099	-0.007954	29.5906	-0.091514	-1.172691	0.006783	NaN
72	1.000000	0.914991	7.36575e+06	-42239.1	955.818	-29784.1	0.000000	0.000000	6.915093	-0.034111	NaN	0.000000	0.001673	0.001650	28.1159	0.115867	0.002035	56.9285	-112.803	-166.66	-0.076397	0.913748	-0.053751	-0.054994	-0.034111	56.9285	-0.053302	-0.114662	0.297492	NaN
72	1.000000	0.953014	7.36575e+06	-42239.1	955.817	-29784.1	0.000000	0.000000	6.953119	0.044332	NaN	0.000000	0.001547	0.001673	28.0825	0.061941	0.002104	29.4358	175.921	14.088	0.070600	0.951628	-0.015728	-0.017115	0.044332	29.4358	-0.016858	-0.010420	-4.254593	NaN
72	2.000000	0.981675	7.36575e+06	-42239.1	955.817	-29784.1	0.000000	0.000000	6.982200	10.2717	NaN	0.000000	0.001576	0.001645	28.0871	10.8323	0.001727	6273.65	6.277027	-171.76	9.979569	0.981333	0.012933	0.012591	10.2717	6273.65	0.011705	0.011139	922.156	54309.5
72	2.000000	0.991072	7.36575e+06	-42239.1	955.818	-29784.1	0.000000	0.000000	6.992259	26.3726	NaN	0.000000	0.001618	0.001679	28.1264	21.3933	0.001802	11872.1	7.708087	1.968963	25.0889	0.990799	0.022330	0.022057	26.3726	11872.1	0.020664	0.023596	1117.66	70612.5
72	2.000000	1.000573	7.36575e+06	-42239.1	955.818	-29784.1	0.000000	0.000000	7.002891	53.8896	NaN	0.000000	0.001636	0.001663	28.1113	29.4497	0.001698	17348.1	3.200517	-177.507	51.9618	1.000252	0.031831	0.031509	53.8896	17348.1	0.029501	0.039716	1356.87	79532
72	2.000000	1.010058	7.36575e+06	-42239.1	955.818	-29784.1	0.000000	0.000000	7.013404	78.9042	NaN	0.000000	0.001664	0.001671	28.0834	38.4971	0.001767	21792.6	2.254811	1.904349	77.6234	1.009672	0.041316	0.040930	78.9042	21792.6	0.038600	0.060460	1305.06	80974.4
72	2.000000	1.019527	7.36575e+06	-42239.1	955.818	-29784.1	0.000000	0.000000	7.024375	115.46	NaN	0.000000	0.001596	0.001650	28.0873	48.1146	0.001790	26881	5.128236	177.187	113.093	1.019117	0.050784	0.050375	115.46	26881	0.047563	0.085029	1357.89	84223.8
72	2.000000	1.028963	7.36575e+06	-42239.1	955.818	-29784.1	0.000000	0.000000	7.035258	150.653	NaN	0.000000	0.001559	0.001656	28.1277	56.3517	0.001841	30617.3	4.812892	-3.383566	146.12	1.028671	0.060221	0.059928	150.653	30617.3	0.056530	0.113662	1325.45	82972.2
72	2.000000	1.038454	7.36575e+06	-42239.1	955.817	-29784.1	0.000000	0.000000	7.046771	199.86	NaN	0.000000	0.001582	0.001672	28.113	65.1869	0.001679	38827.8	6.630686	172.442	196.505	1.038194	0.069712	0.069451	199.86	38827.8	0.065851	0.147621	1353.87	92329.7
72	2.000000	1.047970	7.36575e+06	-42239.1	955.818	-29784.1	0.000000	0.000000	7.058553	254.983	NaN	0.000000	0.001589	0.001674	28.0828	74.8244	0.001742	42954.5	3.903750	-5.553774	251.744	1.047728	0.079228	0.078986	254.983	42954.5	0.074776	0.184057	1385.35	91475.7
72	2.000000	1.057472	7.36575e+06	-42239.1	955.818	-29784.1	0.000000	0.000000	7.070529	315.195	NaN	0.000000	0.001579	0.001646	28.0869	82.7644	0.001702	48636.8	3.274161	175.425	312.817	1.057149	0.088730	0.088407	315.195	48636.8	0.083870	0.225039	1400.63	93672
72	2.000000	1.066958	7.36575e+06	-42239.1	955.817	-29784.1	0.000000	0.000000	7.082510	375.889	NaN	0.000000	0.001592	0.001592	28.1272	91.8044	0.001794	51174	7.350227	-9.817832	372.716	1.066515	0.098216	0.097773	375.889	51174	0.092707	0.268534	1399.78	90224.3
72	2.000000	1.076526	7.36575e+06	-42239.1	955.816	-29784.1	0.000000	0.000000	7.095272	453.619	NaN	0.000000	0.001603	0.001643	28.112	100.493	0.001832	54853.9	8.395094	169.237	454.21	1.075992	0.107784	0.107250	453.619	54853.9	0.101582	0.315807	1436.38	89180.5
72	2.000000	1.077039	7.36575e+06	-42239.1	955.816	-29784.1	0.000000	0.000000	7.095617	449.532	NaN	0.000000	0.001589	0.001610	28.1273	101.841	0.001801	56543.5	6.905609	-10.2764	450.502	1.076798	0.108297	0.108056	449.532	56543.5	0.102334	0.319978	1404.88	91326.3

File: 2025-07-22_16-23-58_1_73.txt
2025-07-22, 16:23:58, 1
Index	Phase	Displacement	Time	Pos X	Pos Y	Pos Z	Rot A	Rot B	Piezo Z	Force A	Force B	Gripper	Voltage A	Voltage B	Temperature	Amplitude force	Amplitude pos	Stiffness	Phase shift	Phase excitation	Force A raw	Displacement raw	HMax	HMax raw	Real Force	Real Stiffness	Contact Depth	Area	Hardness	Reduced Mod.
[#]	[#]	[um]	[s]	[um]	[um]	[um]	[m°]	[m°]	[um]	[uN]	[uN]	[V]	[V]	[V]	[°C]	[uN]	[um]	[N/m]	[°]	[°]	[uN]	[um]	[um]	[um]	[uN]	[N/m]	[um]	[um^2]	[MPa]	[MPa]
73	1.000000	0.002860	7.36576e+06	-42289.1	955.819	-29783.8	0.000000	0.000000	6.002809	0.045935	NaN	0.000000	0.001618	0.001650	28.0878	0.087269	0.000973	89.7086	174.48	-165.957	-0.017770	0.001559	-1.003966	-1.005267	0.045935	89.7086	-1.004350	-2.596133E+13	-1.769355E-15	NaN
73	1.000000	0.040819	7.36576e+06	-42289.1	955.818	-29783.8	0.000000	0.000000	6.040767	0.037773	NaN	0.000000	0.001563	0.001667	28.1257	0.032607	0.002013	16.1946	44.0061	10.2224	0.008442	0.039439	-0.966006	-0.967386	0.037773	16.1946	-0.967756	-8.344810E+12	-4.526566E-15	NaN
73	1.000000	0.078816	7.36576e+06	-42289.1	955.818	-29783.8	0.000000	0.000000	6.078760	-0.055230	NaN	0.000000	0.001585	0.001709	28.1072	0.054234	0.001960	27.6674	-74.8238	-165.064	-0.030090	0.077521	-0.928010	-0.929305	-0.055230	27.6674	-0.926513	-2.318092E+12	2.382584E-14	NaN
73	1.000000	0.116847	7.36576e+06	-42289.1	955.819	-29783.8	0.000000	0.000000	6.116791	-0.069130	NaN	0.000000	0.001590	0.001689	28.081	0.054025	0.001984	27.2247	-158.48	15.669	-0.014172	0.115478	-0.889978	-0.891348	-0.069130	27.2247	-0.888074	-7.012598E+11	9.857974E-14	NaN
73	1.000000	0.154842	7.36576e+06	-42289.1	955.818	-29783.9	0.000000	0.000000	6.154787	-0.033253	NaN	0.000000	0.001639	0.001643	28.088	0.064707	0.001975	32.7667	153.869	-162.395	0.083219	0.153564	-0.851984	-0.853262	-0.033253	32.7667	-0.851223	-2.224833E+11	1.494648E-13	NaN
73	1.000000	0.192871	7.36576e+06	-42289.1	955.818	-29783.9	0.000000	0.000000	6.192819	0.021166	NaN	0.000000	0.001641	0.001654	28.128	0.058971	0.002043	28.8607	84.541	16.8441	0.037708	0.191497	-0.813954	-0.815329	0.021166	28.8607	-0.814504	-7.074191E+10	-2.992038E-13	NaN
73	1.000000	0.230899	7.36576e+06	-42289.1	955.819	-29783.9	0.000000	0.000000	6.230846	-0.000261	NaN	0.000000	0.001550	0.001637	28.1065	0.039074	0.002155	18.1277	148.749	-162.497	-0.091079	0.229580	-0.775927	-0.777246	-0.000261	18.1277	-0.775916	-2.117034E+10	1.232782E-14	NaN
73	1.000000	0.268907	7.36576e+06	-42289.1	955.819	-29783.9	0.000000	0.000000	6.268852	-0.034593	NaN	0.000000	0.001530	0.001662	28.0797	0.073498	0.002060	35.6815	2.955168	16.2091	-0.011933	0.267544	-0.737918	-0.739282	-0.034593	35.6815	-0.737191	-6.292129E+9	5.497843E-12	NaN
73	1.000000	0.306917	7.36576e+06	-42289.1	955.818	-29783.9	0.000000	0.000000	6.306862	-0.033007	NaN	0.000000	0.001668	0.001695	28.0872	0.020217	0.001925	10.5	31.6762	-164.274	0.006565	0.305657	-0.699909	-0.701169	-0.033007	10.5	-0.697552	-1.811718E+9	1.821877E-11	NaN
73	1.000000	0.344943	7.36576e+06	-42289.1	955.819	-29783.9	0.000000	0.000000	6.344887	-0.065675	NaN	0.000000	0.001539	0.001680	28.1265	0.012758	0.001909	6.683203	150.332	17.1187	-0.070205	0.343597	-0.661882	-0.663229	-0.065675	6.683203	-0.654512	-4.669607E+8	1.406440E-10	NaN
73	1.000000	0.382946	7.36576e+06	-42289.1	955.818	-29783.9	0.000000	0.000000	6.382889	-0.078685	NaN	0.000000	0.001585	0.001677	28.1042	0.039044	0.001984	19.6754	-15.6868	-162.211	-0.019526	0.381622	-0.623880	-0.625204	-0.078685	19.6754	-0.620880	-1.613376E+8	4.877062E-10	NaN
73	1.000000	0.420973	7.36576e+06	-42289.1	955.818	-29783.9	0.000000	0.000000	6.420920	0.012231	NaN	0.000000	0.001608	0.001693	28.0805	0.093612	0.001922	48.7176	-123.402	17.0308	0.049325	0.419598	-0.585853	-0.587227	0.012231	48.7176	-0.586041	-5.346624E+7	-2.287668E-10	NaN
73	1.000000	0.458971	7.36576e+06	-42289.1	955.819	-29783.9	0.000000	0.000000	6.458916	-0.026875	NaN	0.000000	0.001655	0.001648	28.0885	0.100373	0.002046	49.0552	22.7517	-165.349	0.015881	0.457626	-0.547855	-0.549200	-0.026875	49.0552	-0.547444	-1.565114E+7	1.717115E-9	NaN
73	1.000000	0.496982	7.36576e+06	-42289.1	955.818	-29783.9	0.000000	0.000000	6.496931	0.050757	NaN	0.000000	0.001585	0.001677	28.1285	0.036119	0.002018	17.9003	-141.059	18.9324	0.020065	0.495659	-0.509844	-0.511167	0.050757	17.9003	-0.511971	-5.03337e+06	-1.008420E-8	NaN
73	1.000000	0.535003	7.36576e+06	-42289.1	955.819	-29783.9	0.000000	0.000000	6.534950	0.001597	NaN	0.000000	0.001592	0.001667	28.1026	0.113612	0.002148	52.891	-41.1189	-168.57	-0.107354	0.533701	-0.471823	-0.473125	0.001597	52.891	-0.471846	-1.38448e+06	-1.153600E-9	NaN
73	1.000000	0.573036	7.36576e+06	-42289.1	955.818	-29783.9	0.000000	0.000000	6.572979	-0.069116	NaN	0.000000	0.001559	0.001691	28.0791	0.050061	0.002109	23.7421	-125.933	17.9607	-0.046075	0.571677	-0.433790	-0.435149	-0.069116	23.7421	-0.431607	-375653	1.839877E-7	NaN
73	1.000000	0.611074	7.36576e+06	-42289.1	955.819	-29783.9	0.000000	0.000000	6.611022	0.049976	NaN	0.000000	0.001585	0.001690	28.088	0.060117	0.001960	30.6731	22.9728	-163.655	0.032396	0.609791	-0.395752	-0.397035	0.049976	30.6731	-0.396974	-121010	-4.129909E-7	NaN
73	1.000000	0.649078	7.36576e+06	-42289.1	955.818	-29783.9	0.000000	0.000000	6.649021	-0.074197	NaN	0.000000	0.001586	0.001718	28.1272	0.077025	0.002047	37.6263	-150.652	13.4607	-0.053311	0.647691	-0.357748	-0.359135	-0.074197	37.6263	-0.356269	-31468.4	2.357829E-6	NaN
73	1.000000	0.687059	7.36576e+06	-42289.1	955.818	-29783.9	0.000000	0.000000	6.687003	-0.070177	NaN	0.000000	0.001653	0.001708	28.1038	0.071868	0.002026	35.4787	27.6387	-165.364	0.004896	0.685802	-0.319767	-0.321024	-0.070177	35.4787	-0.318283	-8777.2	7.995370E-6	NaN
73	1.000000	0.725065	7.36576e+06	-42289.1	955.818	-29783.9	0.000000	0.000000	6.725011	-0.005364	NaN	0.000000	0.001549	0.001696	28.0814	0.089786	0.001945	46.1553	98.0853	17.1661	0.043890	0.723723	-0.281761	-0.283103	-0.005364	46.1553	-0.281674	-2501.55	2.144212E-6	NaN
73	1.000000	0.763116	7.36576e+06	-42289.1	955.818	-29783.9	0.000000	0.000000	6.763062	-0.005879	NaN	0.000000	0.001577	0.001681	28.0901	0.091654	0.001966	46.6294	160.411	-161.264	-0.023767	0.761780	-0.243710	-0.245046	-0.005879	46.6294	-0.243615	-654.511	8.981606E-6	NaN
73	1.000000	0.801138	7.36576e+06	-42289.1	955.819	-29783.9	0.000000	0.000000	6.801084	-0.028429	NaN	0.000000	0.001587	0.001674	28.1277	0.018244	0.001947	9.370678	-72.7641	15.9539	0.000290	0.799780	-0.205688	-0.207045	-0.028429	9.370678	-0.203412	-149.841	0.000190	NaN
73	1.000000	0.839110	7.36576e+06	-42289.1	955.819	-29783.9	0.000000	0.000000	6.839057	0.021728	NaN	0.000000	0.001580	0.001628	28.1011	0.044336	0.001972	22.4778	113.149	-167.659	0.018712	0.837838	-0.167716	-0.168988	0.021728	22.4778	-0.168441	-38.5916	-0.000563	NaN
73	1.000000	0.877147	7.36576e+06	-42289.1	955.819	-29783.9	0.000000	0.000000	6.877096	0.038601	NaN	0.000000	0.001572	0.001614	28.0792	0.059909	0.001972	30.387	-122.133	14.0743	0.048597	0.875753	-0.129678	-0.131073	0.038601	30.387	-0.130631	-7.838873	-0.004924	NaN
73	1.000000	0.915134	7.36576e+06	-42289.1	955.819	-29783.9	0.000000	0.000000	6.915081	0.024296	NaN	0.000000	0.001628	0.001671	28.0895	0.090809	0.002027	44.7959	-138.638	-164.641	0.004583	0.913865	-0.091692	-0.092961	0.024296	44.7959	-0.092099	-1.209911	-0.020081	NaN
73	1.000000	0.953173	7.36576e+06	-42289.1	955.819	-29783.9	0.000000	0.000000	6.953119	-0.008483	NaN	0.000000	0.001621	0.001653	28.1281	0.072308	0.001953	37.0288	-7.008761	13.2144	-0.011900	0.951806	-0.053653	-0.055020	-0.008483	37.0288	-0.053481	-0.116082	0.073082	NaN
73	1.000000	0.991200	7.36576e+06	-42289.1	955.818	-29783.9	0.000000	0.000000	6.991147	0.011691	NaN	0.000000	0.001657	0.001696	28.1036	0.011799	0.001937	6.090360	-29.881	-164.341	0.000184	0.989910	-0.015626	-0.016916	0.011691	6.090360	-0.017066	-0.010553	-1.107903	NaN
73	2.000000	1.020215	7.36576e+06	-42289.1	955.819	-29783.9	0.000000	0.000000	7.020710	13.3409	NaN	0.000000	0.001653	0.001634	28.0793	13.3926	0.001873	7152.2	10.0661	5.118460	12.9107	1.019906	0.013389	0.013080	13.3409	7152.2	0.011990	0.011478	1162.28	60992.4
73	2.000000	1.029659	7.36576e+06	-42289.1	955.819	-29783.9	0.000000	0.000000	7.031145	37.4509	NaN	0.000000	0.001560	0.001640	28.0922	23.9928	0.001851	12958.9	6.040926	-177.163	35.6908	1.029347	0.022833	0.022522	37.4509	12958.9	0.020666	0.023599	1586.96	77071.4
73	2.000000	1.039118	7.36576e+06	-42289.1	955.818	-29783.9	0.000000	0.000000	7.041394	56.6773	NaN	0.000000	0.001566	0.001612	28.1273	33.1024	0.001822	18172.9	9.486132	-4.446326	54.717	1.038867	0.032293	0.032042	56.6773	18172.9	0.029954	0.040648	1394.36	82353.1
73	2.000000	1.048621	7.36576e+06	-42289.1	955.819	-29783.9	0.000000	0.000000	7.052290	90.5859	NaN	0.000000	0.001562	0.001608	28.1015	41.1957	0.001744	23621.6	4.257314	177.886	89.8089	1.048329	0.041795	0.041503	90.5859	23621.6	0.038919	0.061264	1478.61	87192.7
73	2.000000	1.058070	7.36576e+06	-42289.1	955.819	-29783.9	0.000000	0.000000	7.063082	123.237	NaN	0.000000	0.001563	0.001623	28.0822	50.1681	0.001876	26740.5	3.330591	-0.594176	121.118	1.057746	0.051245	0.050920	123.237	26740.5	0.047788	0.085699	1438.02	83455.5
73	2.000000	1.067532	7.36576e+06	-42289.1	955.82	-29783.9	0.000000	0.000000	7.074293	165.8	NaN	0.000000	0.001592	0.001610	28.0946	57.9083	0.001934	29944.7	-0.085614	-179.105	161.386	1.067254	0.060706	0.060428	165.8	29944.7	0.056554	0.113741	1457.7	81121.5
73	2.000000	1.077041	7.36576e+06	-42289.1	955.819	-29783.9	0.000000	0.000000	7.085964	218.404	NaN	0.000000	0.001594	0.001630	28.1303	66.8616	0.001785	37453.1	4.989070	-6.182029	213.56	1.076774	0.070215	0.069949	218.404	37453.1	0.065841	0.147584	1479.87	89072.1
73	2.000000	1.086576	7.36576e+06	-42289.1	955.819	-29783.9	0.000000	0.000000	7.097885	276.459	NaN	0.000000	0.001573	0.001684	28.1024	77.9318	0.001871	41645.8	7.125408	171.806	275.563	1.086187	0.079750	0.079362	276.459	41645.8	0.074771	0.184037	1502.2	88693.6
73	2.000000	1.096025	7.36576e+06	-42289.1	955.82	-29783.9	0.000000	0.000000	7.110005	341.452	NaN	0.000000	0.001561	0.001610	28.0809	83.8479	0.001795	46717.7	1.232528	-3.759974	334.397	1.095655	0.089199	0.088830	341.452	46717.7	0.083717	0.224322	1522.16	90119.7
73	2.000000	1.105547	7.36576e+06	-42289.1	955.82	-29783.9	0.000000	0.000000	7.122341	409.918	NaN	0.000000	0.001569	0.001596	28.0935	92.6633	0.001713	54099.9	3.472903	173.538	408.986	1.105094	0.098721	0.098268	409.918	54099.9	0.093038	0.270233	1516.91	95082.4
73	2.000000	1.115003	7.36576e+06	-42289.1	955.821	-29783.9	0.000000	0.000000	7.134690	480.306	NaN	0.000000	0.001636	0.001637	28.1291	102.174	0.001861	54909.6	3.214192	-6.402257	476.411	1.114668	0.108178	0.107842	480.306	54909.6	0.101617	0.316004	1519.94	89243.2
73	2.000000	1.115557	7.36576e+06	-42289.1	955.821	-29783.9	0.000000	0.000000	7.135382	483.674	NaN	0.000000	0.001625	0.001643	28.0927	102.066	0.001822	56031.1	2.460260	174.212	483.269	1.115169	0.108731	0.108343	483.674	56031.1	0.102257	0.319551	1513.61	90559.2