Folder: unikorn_login/remote_trans/data/nanoindenter/0828-1/data/Data_2025-08-06,11h17m57s (part 138)

File: 2025-07-22_16-23-58_1_293.txt
2025-07-22, 16:23:58, 1
Index	Phase	Displacement	Time	Pos X	Pos Y	Pos Z	Rot A	Rot B	Piezo Z	Force A	Force B	Gripper	Voltage A	Voltage B	Temperature	Amplitude force	Amplitude pos	Stiffness	Phase shift	Phase excitation	Force A raw	Displacement raw	HMax	HMax raw	Real Force	Real Stiffness	Contact Depth	Area	Hardness	Reduced Mod.
[#]	[#]	[um]	[s]	[um]	[um]	[um]	[m°]	[m°]	[um]	[uN]	[uN]	[V]	[V]	[V]	[°C]	[uN]	[um]	[N/m]	[°]	[°]	[uN]	[um]	[um]	[um]	[uN]	[N/m]	[um]	[um^2]	[MPa]	[MPa]
293	1.000000	0.002621	7.36792e+06	-53289.1	955.819	-29746.5	0.000000	0.000000	6.002846	-0.003366	NaN	0.000000	0.001578	0.001694	28.0783	0.097384	0.001002	97.2102	146.953	-169.414	-0.001319	0.001360	-1.699305	-1.700565	-0.003366	97.2102	-1.699279	-4.975747E+22	6.765110E-26	NaN
293	1.000000	0.060522	7.36792e+06	-53289.1	955.819	-29746.5	0.000000	0.000000	6.060753	0.123627	NaN	0.000000	0.001602	0.001685	28.0796	0.062071	0.001990	31.1956	-10.909	15.7724	0.035790	0.059182	-1.641404	-1.642744	0.123627	31.1956	-1.644376	-9.274136E+21	-1.333031E-23	NaN
293	1.000000	0.118532	7.36792e+06	-53289.1	955.819	-29746.4	0.000000	0.000000	6.118760	0.063528	NaN	0.000000	0.001622	0.001668	28.0792	0.013337	0.001936	6.888748	-101.979	-165.804	0.050433	0.117219	-1.583394	-1.584707	0.063528	6.888748	-1.590310	-1.771495E+21	-3.586145E-23	NaN
293	1.000000	0.176577	7.36792e+06	-53289.1	955.819	-29746.4	0.000000	0.000000	6.176807	0.106943	NaN	0.000000	0.001588	0.001656	28.0779	0.022531	0.002043	11.0276	174.522	9.134591	0.157199	0.175164	-1.525349	-1.526761	0.106943	11.0276	-1.532622	-3.024695E+20	-3.535660E-22	NaN
293	1.000000	0.234611	7.36792e+06	-53289.1	955.818	-29746.4	0.000000	0.000000	6.234838	0.047628	NaN	0.000000	0.001608	0.001641	28.0782	0.031930	0.002020	15.8053	-133.313	-166.667	0.062775	0.233296	-1.467315	-1.468629	0.047628	15.8053	-1.469575	-4.375299E+19	-1.088556E-21	NaN
293	1.000000	0.292610	7.36792e+06	-53289.1	955.819	-29746.4	0.000000	0.000000	6.292836	0.024973	NaN	0.000000	0.001590	0.001648	28.0781	0.034978	0.002043	17.1233	-172.229	15.3224	-0.011724	0.291260	-1.409316	-1.410666	0.024973	17.1233	-1.410410	-7.117211E+18	-3.508774E-21	NaN
293	1.000000	0.350655	7.36792e+06	-53289.1	955.818	-29746.4	0.000000	0.000000	6.350881	0.031842	NaN	0.000000	0.001571	0.001651	28.0791	0.077012	0.002001	38.4791	-156.625	-165.763	0.037943	0.349322	-1.351271	-1.352604	0.031842	38.4791	-1.351892	-1.178919E+18	-2.700955E-20	NaN
293	1.000000	0.408665	7.36792e+06	-53289.1	955.818	-29746.4	0.000000	0.000000	6.408893	0.066281	NaN	0.000000	0.001611	0.001621	28.0791	0.033920	0.002120	16.0033	122.353	16.3718	0.060249	0.407355	-1.293260	-1.294570	0.066281	16.0033	-1.296367	-2.137196E+17	-3.101290E-19	NaN
293	1.000000	0.466713	7.36792e+06	-53289.1	955.819	-29746.4	0.000000	0.000000	6.466940	0.041258	NaN	0.000000	0.001632	0.001681	28.0781	0.052028	0.001965	26.4724	130.042	-166.555	-0.025348	0.465361	-1.235213	-1.236565	0.041258	26.4724	-1.236382	-3.370781E+16	-1.223977E-18	NaN
293	1.000000	0.524743	7.36792e+06	-53289.1	955.818	-29746.4	0.000000	0.000000	6.524974	0.114933	NaN	0.000000	0.001731	0.001643	28.0785	0.122339	0.001924	63.5773	-69.6276	14.9125	0.109930	0.523388	-1.177182	-1.178538	0.114933	63.5773	-1.178538	-5.666126E+15	-2.028420E-17	NaN
293	1.000000	0.582763	7.36793e+06	-53289.1	955.819	-29746.4	0.000000	0.000000	6.582989	0.032197	NaN	0.000000	0.001625	0.001627	28.0798	0.133201	0.002088	63.7897	160.814	-164.819	0.102011	0.581453	-1.119163	-1.120473	0.032197	63.7897	-1.119542	-9.169009E+14	-3.511454E-17	NaN
293	1.000000	0.640771	7.36793e+06	-53289.1	955.819	-29746.4	0.000000	0.000000	6.640996	0.003215	NaN	0.000000	0.001628	0.001643	28.0795	0.128859	0.002053	62.762	-61.7186	11.0972	-0.055373	0.639412	-1.061155	-1.062513	0.003215	62.762	-1.061193	-1.509584E+14	-2.129621E-17	NaN
293	1.000000	0.698788	7.36793e+06	-53289.1	955.819	-29746.4	0.000000	0.000000	6.699014	0.011678	NaN	0.000000	0.001611	0.001646	28.0793	0.125126	0.001936	64.6335	38.1941	-163.942	0.014872	0.697455	-1.003138	-1.004471	0.011678	64.6335	-1.003273	-2.510935E+13	-4.650985E-16	NaN
293	1.000000	0.756805	7.36793e+06	-53289.1	955.82	-29746.4	0.000000	0.000000	6.757030	-0.015099	NaN	0.000000	0.001612	0.001624	28.0785	0.051162	0.001869	27.374	161.724	11.9874	0.038341	0.755499	-0.945120	-0.946426	-0.015099	27.374	-0.944707	-4.079733E+12	3.701057E-15	NaN
293	1.000000	0.814864	7.36793e+06	-53289.1	955.818	-29746.4	0.000000	0.000000	6.815089	0.006526	NaN	0.000000	0.001644	0.001623	28.0782	0.052034	0.002080	25.0106	58.2542	-164.766	-0.019493	0.813521	-0.887062	-0.888404	0.006526	25.0106	-0.887258	-6.836672E+11	-9.545249E-15	NaN
293	1.000000	0.872835	7.36793e+06	-53289.1	955.818	-29746.4	0.000000	0.000000	6.873062	0.025677	NaN	0.000000	0.001624	0.001625	28.0795	0.063948	0.002035	31.4209	91.2568	15.9166	0.032222	0.871507	-0.829091	-0.830419	0.025677	31.4209	-0.829703	-1.137010E+11	-2.258292E-13	NaN
293	1.000000	0.930889	7.36793e+06	-53289.1	955.819	-29746.4	0.000000	0.000000	6.931116	0.043185	NaN	0.000000	0.001640	0.001625	28.0794	0.075468	0.001961	38.4767	23.0734	-165.182	0.022797	0.929551	-0.771037	-0.772374	0.043185	38.4767	-0.771879	-1.865715E+10	-2.314652E-12	NaN
293	1.000000	0.988908	7.36793e+06	-53289.1	955.818	-29746.4	0.000000	0.000000	6.989137	0.078223	NaN	0.000000	0.001651	0.001618	28.0787	0.088001	0.001965	44.7887	172.414	14.4391	0.093989	0.987533	-0.713018	-0.714393	0.078223	44.7887	-0.714327	-3.069705E+9	-2.548221E-11	NaN
293	1.000000	1.046947	7.36793e+06	-53289.1	955.818	-29746.4	0.000000	0.000000	7.047172	-0.006039	NaN	0.000000	0.001705	0.001629	28.0782	0.065470	0.002034	32.1859	102.069	-169.11	0.013809	1.045597	-0.654979	-0.656329	-0.006039	32.1859	-0.654838	-4.717949E+8	1.279906E-11	NaN
293	1.000000	1.104942	7.36793e+06	-53289.1	955.818	-29746.4	0.000000	0.000000	7.105166	-0.026780	NaN	0.000000	0.001640	0.001624	28.0781	0.029454	0.001898	15.5197	48.3662	9.925141	0.023642	1.103584	-0.596984	-0.598342	-0.026780	15.5197	-0.595690	-7.262485E+7	3.687385E-10	NaN
293	1.000000	1.162999	7.36793e+06	-53289.1	955.819	-29746.4	0.000000	0.000000	7.163226	0.023279	NaN	0.000000	0.001590	0.001608	28.0792	0.059998	0.001938	30.9523	167.673	-163.973	-0.028259	1.161674	-0.538927	-0.540251	0.023279	30.9523	-0.539491	-1.214211E+7	-1.917231E-9	NaN
293	1.000000	1.221018	7.36793e+06	-53289.1	955.819	-29746.4	0.000000	0.000000	7.221246	0.059062	NaN	0.000000	0.001597	0.001633	28.0797	0.084367	0.001879	44.9007	93.7757	12.4274	0.073792	1.219666	-0.480907	-0.482260	0.059062	44.9007	-0.481894	-1.91442e+06	-3.085130E-8	NaN
293	1.000000	1.279027	7.36793e+06	-53289.1	955.818	-29746.4	0.000000	0.000000	7.279252	-0.009438	NaN	0.000000	0.001619	0.001654	28.0784	0.084480	0.002014	41.9549	40.5666	-166.559	0.039358	1.277734	-0.422899	-0.424192	-0.009438	41.9549	-0.422730	-281267	3.355652E-8	NaN
293	1.000000	1.337066	7.36793e+06	-53289.1	955.82	-29746.4	0.000000	0.000000	7.337294	0.048727	NaN	0.000000	0.001613	0.001656	28.0782	0.090487	0.001944	46.5472	-133.456	11.2814	0.035270	1.335733	-0.364859	-0.366192	0.048727	46.5472	-0.365644	-42988.3	-1.133493E-6	NaN
293	1.000000	1.395090	7.36793e+06	-53289.1	955.819	-29746.4	0.000000	0.000000	7.395317	0.053747	NaN	0.000000	0.001609	0.001660	28.0781	0.049127	0.001830	26.8487	25.4191	-168.363	0.055949	1.393757	-0.306836	-0.308169	0.053747	26.8487	-0.308337	-6258.06	-8.588385E-6	NaN
293	1.000000	1.453121	7.36793e+06	-53289.1	955.818	-29746.4	0.000000	0.000000	7.453349	0.075999	NaN	0.000000	0.001589	0.001657	28.0797	0.096261	0.002013	47.8265	-135.998	14.1366	0.027716	1.451757	-0.248805	-0.250169	0.075999	47.8265	-0.249997	-822.091	-9.244585E-5	NaN
293	1.000000	1.511125	7.36793e+06	-53289.1	955.819	-29746.4	0.000000	0.000000	7.511351	-0.000885	NaN	0.000000	0.001591	0.001652	28.0793	0.083850	0.001971	42.5331	121.639	-167.582	0.001914	1.509889	-0.190801	-0.192036	-0.000885	42.5331	-0.190785	-92.7116	9.540574E-6	NaN
293	1.000000	1.569160	7.36793e+06	-53289.1	955.819	-29746.4	0.000000	0.000000	7.569389	0.075697	NaN	0.000000	0.001611	0.001684	28.0781	0.021802	0.001957	11.1411	127.114	14.118	0.076309	1.567794	-0.132765	-0.134131	0.075697	11.1411	-0.137861	-10.7809	-0.007021	NaN
293	1.000000	1.627175	7.36793e+06	-53289.1	955.82	-29746.4	0.000000	0.000000	7.627404	0.081072	NaN	0.000000	0.001618	0.001615	28.0783	0.040769	0.002003	20.3587	2.457994	-164.424	0.012672	1.625935	-0.074751	-0.075990	0.081072	20.3587	-0.077738	-0.542854	-0.149344	NaN
293	1.000000	1.685218	7.36793e+06	-53289.1	955.82	-29746.4	0.000000	0.000000	7.685446	0.078488	NaN	0.000000	0.001601	0.001633	28.0797	0.015406	0.002028	7.596483	-65.4676	14.2316	0.049979	1.683858	-0.016708	-0.018068	0.078488	7.596483	-0.024457	-0.016330	-4.806338	NaN
293	2.000000	1.725737	7.36793e+06	-53289.1	955.82	-29746.4	0.000000	0.000000	7.726585	15.1481	NaN	0.000000	0.001645	0.001628	28.0798	13.9682	0.001773	7877.2	7.905559	-176.425	14.7659	1.725386	0.023811	0.023460	15.1481	7877.2	0.022369	0.026402	573.746	44292.1
293	2.000000	1.740152	7.36793e+06	-53289.1	955.818	-29746.4	0.000000	0.000000	7.742393	49.0146	NaN	0.000000	0.001577	0.001673	28.0797	28.4507	0.001775	16030	7.170128	-1.496364	47.7324	1.739775	0.038226	0.037849	49.0146	16030	0.035933	0.053941	908.675	63059.1
293	2.000000	1.754587	7.36793e+06	-53289.1	955.82	-29746.4	0.000000	0.000000	7.758658	93.4823	NaN	0.000000	0.001633	0.001660	28.0784	40.2821	0.001773	22714.7	3.866780	177.896	91.2266	1.754306	0.052661	0.052381	93.4823	22714.7	0.049575	0.091103	1026.12	68756.4
293	2.000000	1.769132	7.36793e+06	-53289.1	955.818	-29746.4	0.000000	0.000000	7.775481	148.882	NaN	0.000000	0.001543	0.001708	28.0787	54.2619	0.001876	28919.1	7.022885	-7.575020	148.438	1.768790	0.067206	0.066864	148.882	28919.1	0.063345	0.138075	1078.27	71105
293	2.000000	1.783573	7.36793e+06	-53289.1	955.82	-29746.4	0.000000	0.000000	7.793060	225.167	NaN	0.000000	0.001592	0.001709	28.08	66.9946	0.001852	36182.7	3.531377	174.754	224.074	1.783310	0.081648	0.081384	225.167	36182.7	0.076980	0.193637	1162.83	75124.3
293	2.000000	1.798095	7.36793e+06	-53289.1	955.819	-29746.4	0.000000	0.000000	7.810866	305.019	NaN	0.000000	0.001607	0.001680	28.0799	79.2575	0.001636	48441.5	6.124364	-10.0055	303.537	1.797575	0.096169	0.095649	305.019	48441.5	0.091447	0.262112	1163.7	86446.5
293	2.000000	1.812545	7.36793e+06	-53289.1	955.819	-29746.4	0.000000	0.000000	7.829775	413.427	NaN	0.000000	0.001616	0.001712	28.0787	92.3562	0.001861	49621.6	3.694439	172.247	411.82	1.812221	0.110619	0.110295	413.427	49621.6	0.104370	0.331401	1247.51	78753
293	2.000000	1.818584	7.36793e+06	-53289.1	955.819	-29746.4	0.000000	0.000000	7.837827	462.357	NaN	0.000000	0.001633	0.001723	28.0783	97.4646	0.001628	59879	5.183493	169.97	462.508	1.818118	0.116659	0.116192	462.357	59879	0.110867	0.369101	1252.66	90048.3

File: 2025-07-22_16-23-58_1_294.txt
2025-07-22, 16:23:58, 1
Index	Phase	Displacement	Time	Pos X	Pos Y	Pos Z	Rot A	Rot B	Piezo Z	Force A	Force B	Gripper	Voltage A	Voltage B	Temperature	Amplitude force	Amplitude pos	Stiffness	Phase shift	Phase excitation	Force A raw	Displacement raw	HMax	HMax raw	Real Force	Real Stiffness	Contact Depth	Area	Hardness	Reduced Mod.
[#]	[#]	[um]	[s]	[um]	[um]	[um]	[m°]	[m°]	[um]	[uN]	[uN]	[V]	[V]	[V]	[°C]	[uN]	[um]	[N/m]	[°]	[°]	[uN]	[um]	[um]	[um]	[uN]	[N/m]	[um]	[um^2]	[MPa]	[MPa]
294	1.000000	0.003135	7.36794e+06	-53339.1	955.817	-29746.8	0.000000	0.000000	6.002810	-0.078868	NaN	0.000000	0.001611	0.001603	28.0807	0.043273	0.000891	48.5876	6.212450	-162.31	0.027340	0.001907	-1.141896	-1.143124	-0.078868	48.5876	-1.140679	-1.761334E+15	4.477763E-17	NaN
294	1.000000	0.045062	7.36794e+06	-53339.1	955.819	-29746.8	0.000000	0.000000	6.044742	0.026443	NaN	0.000000	0.001677	0.001599	28.0807	0.038296	0.002131	17.9697	35.51	13.8448	0.031704	0.043700	-1.099969	-1.101331	0.026443	17.9697	-1.101072	-5.181560E+14	-5.103370E-17	NaN
294	1.000000	0.087063	7.36794e+06	-53339.1	955.818	-29746.8	0.000000	0.000000	6.086741	-0.022456	NaN	0.000000	0.001643	0.001643	28.0793	0.143154	0.002054	69.6843	-12.2225	-165.566	0.055189	0.085770	-1.057968	-1.059260	-0.022456	69.6843	-1.057726	-1.355999E+14	1.656058E-16	NaN
294	1.000000	0.129104	7.36794e+06	-53339.1	955.818	-29746.8	0.000000	0.000000	6.128783	0.000498	NaN	0.000000	0.001580	0.001617	28.0792	0.086658	0.001941	44.6357	-64.0545	13.8375	-0.035724	0.127757	-1.015927	-1.017274	0.000498	44.6357	-1.015936	-3.717602E+13	-1.340587E-17	NaN
294	1.000000	0.171145	7.36794e+06	-53339.1	955.818	-29746.8	0.000000	0.000000	6.170821	-0.063142	NaN	0.000000	0.001650	0.001608	28.079	0.099111	0.001931	51.3385	-131.311	-165.217	-0.045661	0.169812	-0.973886	-0.975219	-0.063142	51.3385	-0.972964	-9.808497E+12	6.437458E-15	NaN
294	1.000000	0.213158	7.36794e+06	-53339.1	955.818	-29746.8	0.000000	0.000000	6.212839	0.066155	NaN	0.000000	0.001632	0.001598	28.0804	0.044899	0.001972	22.7659	-165.118	13.3716	0.006415	0.211789	-0.931873	-0.933242	0.066155	22.7659	-0.934053	-2.930149E+12	-2.257747E-14	NaN
294	1.000000	0.255164	7.36794e+06	-53339.1	955.818	-29746.8	0.000000	0.000000	6.254843	0.000331	NaN	0.000000	0.001623	0.001587	28.0804	0.056484	0.001915	29.4912	172.573	-167.198	-0.048185	0.253857	-0.889867	-0.891173	0.000331	29.4912	-0.889876	-7.417088E+11	-4.459313E-16	NaN
294	1.000000	0.297183	7.36794e+06	-53339.1	955.819	-29746.8	0.000000	0.000000	6.296862	-0.008080	NaN	0.000000	0.001650	0.001549	28.0803	0.051181	0.002131	24.0145	-171.393	11.9858	0.010933	0.295790	-0.847848	-0.849241	-0.008080	24.0145	-0.847595	-1.986890E+11	4.066595E-14	NaN
294	1.000000	0.339171	7.36794e+06	-53339.1	955.819	-29746.8	0.000000	0.000000	6.338852	0.044643	NaN	0.000000	0.001690	0.001582	28.0789	0.025857	0.001990	12.9927	-32.1852	-166.629	-0.050827	0.337893	-0.805860	-0.807138	0.044643	12.9927	-0.808437	-5.852738E+10	-7.627723E-13	NaN
294	1.000000	0.381209	7.36794e+06	-53339.1	955.818	-29746.8	0.000000	0.000000	6.380887	-0.031198	NaN	0.000000	0.001676	0.001589	28.079	0.049343	0.001973	25.014	168.659	10.1064	-0.079994	0.379836	-0.763822	-0.765195	-0.031198	25.014	-0.762886	-1.407883E+10	2.215935E-12	NaN
294	1.000000	0.423210	7.36794e+06	-53339.1	955.817	-29746.8	0.000000	0.000000	6.422888	-0.026734	NaN	0.000000	0.001714	0.001596	28.0794	0.121025	0.002008	60.2719	79.1836	-163.295	-0.004216	0.421873	-0.721821	-0.723158	-0.026734	60.2719	-0.721488	-3.843869E+9	6.954894E-12	NaN
294	1.000000	0.465249	7.36794e+06	-53339.1	955.818	-29746.8	0.000000	0.000000	6.464928	-0.006900	NaN	0.000000	0.001709	0.001590	28.0794	0.079565	0.002003	39.7192	-171.597	13.822	-0.051380	0.463846	-0.679782	-0.681185	-0.006900	39.7192	-0.679651	-1.031426E+9	6.690130E-12	NaN
294	1.000000	0.507288	7.36794e+06	-53339.1	955.817	-29746.8	0.000000	0.000000	6.506967	-0.015832	NaN	0.000000	0.001721	0.001662	28.0805	0.029659	0.001942	15.2705	-109.184	-165.932	-0.014685	0.505962	-0.637743	-0.639069	-0.015832	15.2705	-0.636965	-2.683137E+8	5.900570E-11	NaN
294	1.000000	0.549280	7.36794e+06	-53339.1	955.818	-29746.8	0.000000	0.000000	6.548960	0.021163	NaN	0.000000	0.001721	0.001642	28.0805	0.086933	0.002125	40.9061	36.7737	12.5758	0.070236	0.547946	-0.595751	-0.597085	0.021163	40.9061	-0.596139	-7.366642E+7	-2.872818E-10	NaN
294	1.000000	0.591303	7.36794e+06	-53339.1	955.818	-29746.8	0.000000	0.000000	6.590983	0.022143	NaN	0.000000	0.001671	0.001539	28.0803	0.036665	0.001927	19.0228	69.3409	-162.409	0.020748	0.589985	-0.553727	-0.555046	0.022143	19.0228	-0.554600	-1.966337E+7	-1.126116E-9	NaN
294	1.000000	0.633319	7.36794e+06	-53339.1	955.818	-29746.8	0.000000	0.000000	6.632999	0.025164	NaN	0.000000	0.001701	0.001600	28.0792	0.103799	0.002051	50.6038	173.422	16.7944	0.062878	0.631966	-0.511712	-0.513065	0.025164	50.6038	-0.512085	-5.05187e+06	-4.981198E-9	NaN
294	1.000000	0.675314	7.36794e+06	-53339.1	955.819	-29746.8	0.000000	0.000000	6.674992	-0.019449	NaN	0.000000	0.001708	0.001613	28.0793	0.078103	0.002043	38.2354	-135.658	-169.386	-0.002511	0.674053	-0.469717	-0.470977	-0.019449	38.2354	-0.469335	-1.27669e+06	1.523387E-8	NaN
294	1.000000	0.717356	7.36794e+06	-53339.1	955.818	-29746.8	0.000000	0.000000	6.717035	-0.002570	NaN	0.000000	0.001755	0.001587	28.0791	0.074874	0.001986	37.6979	-159.369	14.3972	0.057403	0.715976	-0.427675	-0.429055	-0.002570	37.6979	-0.427624	-329938	7.788516E-9	NaN
294	1.000000	0.759351	7.36794e+06	-53339.1	955.818	-29746.8	0.000000	0.000000	6.759028	-0.055429	NaN	0.000000	0.001745	0.001589	28.081	0.099706	0.002003	49.7824	-35.0327	-165.404	-0.001415	0.758045	-0.385680	-0.386986	-0.055429	49.7824	-0.384844	-81162.9	6.829335E-7	NaN
294	1.000000	0.801374	7.36794e+06	-53339.1	955.817	-29746.8	0.000000	0.000000	6.801055	0.047398	NaN	0.000000	0.001783	0.001638	28.0804	0.090744	0.002099	43.2379	159.908	14.0816	0.065579	0.800043	-0.343657	-0.344988	0.047398	43.2379	-0.344479	-21221.4	-2.233499E-6	NaN
294	1.000000	0.843383	7.36794e+06	-53339.1	955.817	-29746.8	0.000000	0.000000	6.843063	0.027447	NaN	0.000000	0.001676	0.001593	28.0804	0.081141	0.002128	38.1295	-82.9608	-167.072	0.012489	0.842114	-0.301648	-0.302917	0.027447	38.1295	-0.302188	-5072.02	-5.411461E-6	NaN
294	1.000000	0.885448	7.36794e+06	-53339.1	955.818	-29746.8	0.000000	0.000000	6.885129	0.055351	NaN	0.000000	0.001701	0.001620	28.0793	0.085776	0.002020	42.4557	165.238	13.8358	0.102737	0.884102	-0.259583	-0.260929	0.055351	42.4557	-0.260561	-1195.39	-4.630356E-5	NaN
294	1.000000	0.927463	7.36794e+06	-53339.1	955.818	-29746.8	0.000000	0.000000	6.927144	0.038938	NaN	0.000000	0.001658	0.001613	28.08	0.031899	0.002037	15.6596	93.5724	-163.505	-0.021911	0.926162	-0.217568	-0.218869	0.038938	15.6596	-0.219433	-272.024	-0.000143	NaN
294	1.000000	0.969421	7.36794e+06	-53339.1	955.818	-29746.8	0.000000	0.000000	6.969099	-0.010842	NaN	0.000000	0.001720	0.001621	28.0794	0.039986	0.001967	20.331	-168.28	14.9475	0.116051	0.968120	-0.175610	-0.176911	-0.010842	20.331	-0.175210	-50.5347	0.000215	NaN
294	1.000000	1.011468	7.36794e+06	-53339.1	955.817	-29746.8	0.000000	0.000000	7.011145	-0.049423	NaN	0.000000	0.001687	0.001590	28.0795	0.079937	0.002004	39.889	-25.1616	-167.195	0.029588	1.010167	-0.133563	-0.134864	-0.049423	39.889	-0.132634	-8.568999	0.005768	NaN
294	1.000000	1.053479	7.36794e+06	-53339.1	955.817	-29746.8	0.000000	0.000000	7.053157	-0.002826	NaN	0.000000	0.001656	0.001610	28.0803	0.046652	0.001998	23.3535	13.0898	13.9244	0.018106	1.052150	-0.091552	-0.092881	-0.002826	23.3535	-0.091462	-1.169392	0.002417	NaN
294	1.000000	1.095499	7.36794e+06	-53339.1	955.817	-29746.8	0.000000	0.000000	7.095177	-0.024165	NaN	0.000000	0.001681	0.001620	28.0804	0.044620	0.001966	22.6963	-174.865	-162.176	-0.054298	1.094184	-0.049532	-0.050847	-0.024165	22.6963	-0.048733	-0.083532	0.289290	NaN
294	1.000000	1.137534	7.36794e+06	-53339.1	955.818	-29746.8	0.000000	0.000000	7.137229	0.399154	NaN	0.000000	0.001699	0.001655	28.0805	0.678195	0.001814	373.959	30.0956	14.1028	0.444517	1.136141	-0.007497	-0.008890	0.399154	373.959	-0.008297	-0.005405	-73.8428	NaN
294	2.000000	1.161035	7.36794e+06	-53339.1	955.818	-29746.8	0.000000	0.000000	7.161410	16.9378	NaN	0.000000	0.001662	0.001644	28.0793	16.0684	0.001731	9280.98	6.239801	-174.11	15.1204	1.160731	0.016004	0.015700	16.9378	9280.98	0.014635	0.014802	1144.32	69696.6
294	2.000000	1.171531	7.36794e+06	-53339.1	955.817	-29746.8	0.000000	0.000000	7.172628	34.4935	NaN	0.000000	0.001626	0.001635	28.0791	26.5369	0.001786	14860.7	5.791553	2.766760	33.6709	1.171163	0.026500	0.026132	34.4935	14860.7	0.024759	0.030578	1128.04	77643.8
294	2.000000	1.182040	7.36794e+06	-53339.1	955.818	-29746.8	0.000000	0.000000	7.184308	62.9554	NaN	0.000000	0.001642	0.001666	28.0792	37.0968	0.001747	21230.1	8.330638	176.486	64.2515	1.181766	0.037009	0.036735	62.9554	21230.1	0.034785	0.051246	1228.48	85682.8
294	2.000000	1.192541	7.36794e+06	-53339.1	955.819	-29746.8	0.000000	0.000000	7.196499	104.048	NaN	0.000000	0.001683	0.001620	28.0804	49.2798	0.001782	27654.4	3.797322	-2.678278	104.827	1.192221	0.047510	0.047190	104.048	27654.4	0.044688	0.076704	1356.49	91228.3
294	2.000000	1.203001	7.36794e+06	-53339.1	955.819	-29746.8	0.000000	0.000000	7.209899	175.502	NaN	0.000000	0.001689	0.001710	28.0807	60.0275	0.001810	33171.7	5.933416	174.505	173.657	1.202516	0.057971	0.057485	175.502	33171.7	0.054003	0.105185	1668.51	93446.7
294	2.000000	1.213484	7.36794e+06	-53339.1	955.82	-29746.8	0.000000	0.000000	7.223231	244.777	NaN	0.000000	0.001698	0.001627	28.0804	71.3527	0.001793	39800.9	3.226545	-4.899999	243.274	1.213190	0.068453	0.068159	244.777	39800.9	0.063841	0.139939	1749.16	97206.6
294	2.000000	1.223869	7.36794e+06	-53339.1	955.819	-29746.8	0.000000	0.000000	7.237211	332.186	NaN	0.000000	0.001655	0.001651	28.0792	81.8131	0.001815	45065.6	5.608454	171.936	327.534	1.223539	0.078838	0.078508	332.186	45065.6	0.073309	0.177810	1868.21	97642.9
294	2.000000	1.234354	7.36794e+06	-53339.1	955.82	-29746.8	0.000000	0.000000	7.250459	399.346	NaN	0.000000	0.001677	0.001626	28.0791	89.9339	0.001808	49744	5.080658	-8.352776	392.811	1.234114	0.089323	0.089083	399.346	49744	0.083302	0.222370	1795.86	96377.5
294	2.000000	1.244864	7.36794e+06	-53339.1	955.819	-29746.8	0.000000	0.000000	7.265023	497.911	NaN	0.000000	0.001740	0.001652	28.0795	96.7474	0.001743	55494.2	3.392382	172.686	492.257	1.244521	0.099833	0.099490	497.911	55494.2	0.093104	0.270572	1840.21	97471.8
294	2.000000	1.253333	7.36794e+06	-53339.1	955.82	-29746.8	0.000000	0.000000	7.276227	564.432	NaN	0.000000	0.001766	0.001647	28.0792	104.709	0.001750	59836.6	0.785461	-5.298579	556.956	1.253164	0.108302	0.108133	564.432	59836.6	0.101227	0.313850	1798.41	97584.2