Folder: unikorn_login/remote_trans/data/nanoindenter/0828-1/data/Data_2025-08-06,11h17m57s (part 40)

File: 2025-07-22_16-23-58_1_78.txt
2025-07-22, 16:23:58, 1
Index	Phase	Displacement	Time	Pos X	Pos Y	Pos Z	Rot A	Rot B	Piezo Z	Force A	Force B	Gripper	Voltage A	Voltage B	Temperature	Amplitude force	Amplitude pos	Stiffness	Phase shift	Phase excitation	Force A raw	Displacement raw	HMax	HMax raw	Real Force	Real Stiffness	Contact Depth	Area	Hardness	Reduced Mod.
[#]	[#]	[um]	[s]	[um]	[um]	[um]	[m°]	[m°]	[um]	[uN]	[uN]	[V]	[V]	[V]	[°C]	[uN]	[um]	[N/m]	[°]	[°]	[uN]	[um]	[um]	[um]	[uN]	[N/m]	[um]	[um^2]	[MPa]	[MPa]
78	1.000000	0.002497	7.3658e+06	-42539.1	955.818	-29782.9	0.000000	0.000000	6.002791	0.050594	NaN	0.000000	0.001534	0.001675	28.13	0.076642	0.000939	81.6379	-110.652	-162.199	0.049519	0.001264	-1.059112	-1.060345	0.050594	81.6379	-1.059576	-1.435913E+14	-3.523484E-16	NaN
78	1.000000	0.042466	7.3658e+06	-42539.1	955.818	-29782.9	0.000000	0.000000	6.042758	-0.007775	NaN	0.000000	0.001546	0.001674	28.1294	0.071475	0.001978	36.1355	160.496	-162.667	0.032477	0.041156	-1.019142	-1.020452	-0.007775	36.1355	-1.018981	-4.085476E+13	1.903155E-16	NaN
78	1.000000	0.082464	7.3658e+06	-42539.1	955.818	-29782.9	0.000000	0.000000	6.082757	0.007258	NaN	0.000000	0.001555	0.001659	28.1285	0.089613	0.001861	48.1596	105.933	-164.416	-0.033693	0.081168	-0.979144	-0.980440	0.007258	48.1596	-0.979257	-1.192356E+13	-6.087239E-16	NaN
78	1.000000	0.122491	7.3658e+06	-42539.1	955.819	-29782.9	0.000000	0.000000	6.122785	0.031883	NaN	0.000000	0.001570	0.001683	28.1297	0.094269	0.002043	46.1413	-32.0641	-164.242	0.020224	0.121145	-0.939117	-0.940464	0.031883	46.1413	-0.939635	-3.485133E+12	-9.148312E-15	NaN
78	1.000000	0.162497	7.3658e+06	-42539.1	955.818	-29782.9	0.000000	0.000000	6.162791	0.032271	NaN	0.000000	0.001588	0.001691	28.1294	0.009929	0.002003	4.956784	-169.982	-165.479	0.033515	0.161212	-0.899112	-0.900397	0.032271	4.956784	-0.903994	-1.150896E+12	-2.803952E-14	NaN
78	1.000000	0.202512	7.3658e+06	-42539.1	955.819	-29782.9	0.000000	0.000000	6.202805	0.034453	NaN	0.000000	0.001588	0.001671	28.1309	0.062920	0.002097	30.007	-44.1368	-165.954	0.081435	0.201246	-0.859097	-0.860362	0.034453	30.007	-0.859958	-2.921135E+11	-1.179435E-13	NaN
78	1.000000	0.242550	7.3658e+06	-42539.1	955.818	-29782.9	0.000000	0.000000	6.242846	0.096413	NaN	0.000000	0.001582	0.001675	28.1299	0.059336	0.001853	32.0208	-174.497	-167.775	0.184856	0.241207	-0.819059	-0.820402	0.096413	32.0208	-0.821317	-8.751214E+10	-1.101713E-12	NaN
78	1.000000	0.282553	7.3658e+06	-42539.1	955.819	-29782.9	0.000000	0.000000	6.282847	0.047847	NaN	0.000000	0.001544	0.001698	28.131	0.088887	0.001984	44.805	-22.1193	-166.3	0.033205	0.281282	-0.779056	-0.780326	0.047847	44.805	-0.779857	-2.394871E+10	-1.997877E-12	NaN
78	1.000000	0.322593	7.3658e+06	-42539.1	955.819	-29782.9	0.000000	0.000000	6.322887	0.030391	NaN	0.000000	0.001569	0.001677	28.1285	0.042625	0.002015	21.1572	-49.7489	-166.036	0.018790	0.321268	-0.739016	-0.740340	0.030391	21.1572	-0.740093	-6.891610E+9	-4.409925E-12	NaN
78	1.000000	0.362592	7.3658e+06	-42539.1	955.819	-29782.9	0.000000	0.000000	6.362889	0.114085	NaN	0.000000	0.001569	0.001703	28.1294	0.048870	0.001923	25.4083	-141.339	-164.315	0.091232	0.361282	-0.699017	-0.700326	0.114085	25.4083	-0.702384	-2.109059E+9	-5.409293E-11	NaN
78	1.000000	0.402611	7.3658e+06	-42539.1	955.818	-29782.9	0.000000	0.000000	6.402903	-0.026433	NaN	0.000000	0.001561	0.001672	28.1284	0.122271	0.001847	66.1958	-161.308	-162.928	0.071448	0.401274	-0.658997	-0.660335	-0.026433	66.1958	-0.658698	-5.328799E+8	4.960449E-11	NaN
78	1.000000	0.442623	7.3658e+06	-42539.1	955.819	-29782.9	0.000000	0.000000	6.442915	-0.027256	NaN	0.000000	0.001557	0.001687	28.1309	0.080146	0.002035	39.3847	-34.4022	-162.824	0.044034	0.441282	-0.618985	-0.620326	-0.027256	39.3847	-0.618466	-1.494678E+8	1.823543E-10	NaN
78	1.000000	0.482661	7.36581e+06	-42539.1	955.819	-29782.9	0.000000	0.000000	6.482957	0.085886	NaN	0.000000	0.001500	0.001652	28.1299	0.105861	0.001975	53.5937	-153.277	-164.572	0.035484	0.481359	-0.578947	-0.580249	0.085886	53.5937	-0.580149	-4.433891E+7	-1.937038E-9	NaN
78	1.000000	0.522641	7.36581e+06	-42539.1	955.818	-29782.9	0.000000	0.000000	6.522933	-0.011218	NaN	0.000000	0.001558	0.001681	28.131	0.070621	0.001949	36.2285	-24.8037	-165.849	0.017205	0.521396	-0.538968	-0.540213	-0.011218	36.2285	-0.538736	-1.185278E+7	9.464296E-10	NaN
78	1.000000	0.562673	7.36581e+06	-42539.1	955.818	-29782.9	0.000000	0.000000	6.562969	0.087965	NaN	0.000000	0.001546	0.001663	28.1289	0.070070	0.001917	36.5592	-6.113324	-162.019	0.071987	0.561376	-0.498936	-0.500232	0.087965	36.5592	-0.500740	-3.51032e+06	-2.505888E-8	NaN
78	1.000000	0.602687	7.36581e+06	-42539.1	955.819	-29782.9	0.000000	0.000000	6.602977	-0.041248	NaN	0.000000	0.001563	0.001680	28.1303	0.026937	0.002135	12.6162	149.588	-163.552	-0.015139	0.601375	-0.458922	-0.460234	-0.041248	12.6162	-0.456470	-842152	4.897968E-8	NaN
78	1.000000	0.642704	7.36581e+06	-42539.1	955.819	-29782.9	0.000000	0.000000	6.642996	-0.010994	NaN	0.000000	0.001558	0.001684	28.1292	0.100479	0.001987	50.5608	-31.0223	-162.315	0.062931	0.641416	-0.418904	-0.420193	-0.010994	50.5608	-0.418741	-246923	4.452594E-8	NaN
78	1.000000	0.682720	7.36581e+06	-42539.1	955.819	-29782.9	0.000000	0.000000	6.683012	-0.018468	NaN	0.000000	0.001510	0.001671	28.1301	0.085131	0.002024	42.0649	-19.5342	-166.19	0.030698	0.681393	-0.378888	-0.380216	-0.018468	42.0649	-0.378559	-65948.4	2.800368E-7	NaN
78	1.000000	0.722729	7.36581e+06	-42539.1	955.819	-29782.9	0.000000	0.000000	6.723019	-0.043112	NaN	0.000000	0.001563	0.001680	28.1306	0.002354	0.002052	1.146801	-83.5098	-164.483	-0.042525	0.721422	-0.338880	-0.340186	-0.043112	1.146801	-0.310685	-6779.31	6.359363E-6	NaN
78	1.000000	0.762742	7.36581e+06	-42539.1	955.818	-29782.9	0.000000	0.000000	6.763033	-0.040172	NaN	0.000000	0.001542	0.001697	28.1312	0.064488	0.001906	33.8317	117.511	-163.454	-0.050164	0.761475	-0.298866	-0.300134	-0.040172	33.8317	-0.297976	-4390.2	9.150370E-6	NaN
78	1.000000	0.802774	7.36581e+06	-42539.1	955.819	-29782.9	0.000000	0.000000	6.803067	0.029008	NaN	0.000000	0.001562	0.001664	28.1304	0.088555	0.002003	44.2077	-27.6334	-166.258	-0.051408	0.801522	-0.258835	-0.260087	0.029008	44.2077	-0.259327	-1144.45	-2.534692E-5	NaN
78	1.000000	0.842803	7.36581e+06	-42539.1	955.819	-29782.9	0.000000	0.000000	6.843098	0.061934	NaN	0.000000	0.001599	0.001697	28.1303	0.083026	0.002014	41.2238	165.471	-164.334	0.014387	0.841477	-0.218806	-0.220131	0.061934	41.2238	-0.219932	-277.073	-0.000224	NaN
78	1.000000	0.882786	7.36581e+06	-42539.1	955.819	-29782.9	0.000000	0.000000	6.883079	0.013622	NaN	0.000000	0.001562	0.001695	28.1293	0.038760	0.001895	20.4488	-60.0539	-165.546	0.007284	0.881498	-0.178823	-0.180111	0.013622	20.4488	-0.179322	-59.4195	-0.000229	NaN
78	1.000000	0.922848	7.36581e+06	-42539.1	955.818	-29782.9	0.000000	0.000000	6.923140	-0.028082	NaN	0.000000	0.001648	0.001673	28.13	0.097523	0.001986	49.1036	69.3335	-167.216	0.101895	0.921547	-0.138760	-0.140062	-0.028082	49.1036	-0.138331	-11.0037	0.002552	NaN
78	1.000000	0.962863	7.36581e+06	-42539.1	955.818	-29782.9	0.000000	0.000000	6.963156	0.011282	NaN	0.000000	0.001595	0.001704	28.1291	0.045682	0.001983	23.0343	159.857	-162.6	-0.031378	0.961516	-0.098746	-0.100092	0.011282	23.0343	-0.099113	-1.746067	-0.006461	NaN
78	1.000000	1.002862	7.36581e+06	-42539.1	955.819	-29782.9	0.000000	0.000000	7.003153	-0.039454	NaN	0.000000	0.001583	0.001691	28.1314	0.056363	0.002020	27.901	-2.039576	-165.341	0.066556	1.001567	-0.058746	-0.060041	-0.039454	27.901	-0.057686	-0.154391	0.255545	NaN
78	1.000000	1.042881	7.36581e+06	-42539.1	955.818	-29782.9	0.000000	0.000000	7.043172	-0.048070	NaN	0.000000	0.001546	0.001654	28.1308	0.045623	0.001870	24.392	-75.6972	-162.222	0.045762	1.041494	-0.018727	-0.020114	-0.048070	24.392	-0.017249	-0.010671	4.504961	NaN
78	2.000000	1.075414	7.36581e+06	-42539.1	955.817	-29782.9	0.000000	0.000000	7.076193	11.8397	NaN	0.000000	0.001572	0.001656	28.1319	10.9732	0.001788	6138.81	7.457172	-171.892	11.5074	1.075134	0.013805	0.013525	11.8397	6138.81	0.012359	0.011923	993.045	51365.4
78	2.000000	1.085373	7.36581e+06	-42539.1	955.819	-29782.9	0.000000	0.000000	7.086791	27.3889	NaN	0.000000	0.001572	0.001701	28.1294	21.2783	0.001844	11539.5	7.390552	-176.652	27.03	1.085013	0.023764	0.023405	27.3889	11539.5	0.021984	0.025756	1063.39	65693.1
78	2.000000	1.095348	7.36581e+06	-42539.1	955.818	-29782.9	0.000000	0.000000	7.097889	54.7124	NaN	0.000000	0.001591	0.001708	28.1302	30.6478	0.001705	17971.5	7.959315	177.828	54.2047	1.094973	0.033740	0.033364	54.7124	17971.5	0.031457	0.043817	1248.66	78440.1
78	2.000000	1.105261	7.36581e+06	-42539.1	955.818	-29782.9	0.000000	0.000000	7.109210	88.953	NaN	0.000000	0.001604	0.001705	28.1295	40.6635	0.001741	23353.1	3.381541	179.652	87.2531	1.105010	0.043653	0.043401	88.953	23353.1	0.040796	0.066101	1345.7	82987.6
78	2.000000	1.115268	7.36581e+06	-42539.1	955.818	-29782.9	0.000000	0.000000	7.120962	131.422	NaN	0.000000	0.001599	0.001671	28.1317	53.2948	0.001774	30038.8	7.805042	173.029	128.156	1.115020	0.053660	0.053411	131.422	30038.8	0.050378	0.093586	1404.28	89711.7
78	2.000000	1.125178	7.36581e+06	-42539.1	955.819	-29782.9	0.000000	0.000000	7.133130	186.383	NaN	0.000000	0.001579	0.001677	28.1308	63.7058	0.001848	34476.9	7.258500	172.781	182.079	1.124879	0.063569	0.063270	186.383	34476.9	0.059515	0.124074	1502.19	89425.5
78	2.000000	1.135188	7.36581e+06	-42539.1	955.818	-29782.9	0.000000	0.000000	7.146115	258.751	NaN	0.000000	0.001589	0.001701	28.1316	74.2764	0.001862	39897.6	4.842769	173.989	254.723	1.134920	0.073580	0.073312	258.751	39897.6	0.068716	0.158902	1628.37	91444
78	2.000000	1.145145	7.36581e+06	-42539.1	955.819	-29782.9	0.000000	0.000000	7.159246	335.993	NaN	0.000000	0.001594	0.001698	28.1307	83.2197	0.001737	47919	2.532337	175.231	329.97	1.144958	0.083536	0.083349	335.993	47919	0.078277	0.199380	1685.19	98048.4
78	2.000000	1.155140	7.36581e+06	-42539.1	955.818	-29782.9	0.000000	0.000000	7.173563	441.137	NaN	0.000000	0.001576	0.001660	28.1303	93.9321	0.001806	52018	4.402590	172.895	435.861	1.154848	0.093531	0.093240	441.137	52018	0.087171	0.240867	1831.46	96836.4
78	2.000000	1.165182	7.36581e+06	-42539.1	955.819	-29782.9	0.000000	0.000000	7.187792	543.012	NaN	0.000000	0.001583	0.001689	28.1293	104.486	0.001820	57410.1	3.915858	172.39	540.098	1.165015	0.103573	0.103407	543.012	57410.1	0.096479	0.288189	1884.22	97706.5
78	2.000000	1.171231	7.36581e+06	-42539.1	955.818	-29782.9	0.000000	0.000000	7.196901	617.477	NaN	0.000000	0.001611	0.001702	28.1293	110.49	0.001803	61289.8	7.893505	168.382	616.656	1.170851	0.109622	0.109242	617.477	61289.8	0.102066	0.318490	1938.76	99223.2

File: 2025-07-22_16-23-58_1_79.txt
2025-07-22, 16:23:58, 1
Index	Phase	Displacement	Time	Pos X	Pos Y	Pos Z	Rot A	Rot B	Piezo Z	Force A	Force B	Gripper	Voltage A	Voltage B	Temperature	Amplitude force	Amplitude pos	Stiffness	Phase shift	Phase excitation	Force A raw	Displacement raw	HMax	HMax raw	Real Force	Real Stiffness	Contact Depth	Area	Hardness	Reduced Mod.
[#]	[#]	[um]	[s]	[um]	[um]	[um]	[m°]	[m°]	[um]	[uN]	[uN]	[V]	[V]	[V]	[°C]	[uN]	[um]	[N/m]	[°]	[°]	[uN]	[um]	[um]	[um]	[uN]	[N/m]	[um]	[um^2]	[MPa]	[MPa]
79	1.000000	0.002486	7.36581e+06	-42589.1	955.819	-29782.7	0.000000	0.000000	6.002800	-0.026993	NaN	0.000000	0.001568	0.001729	28.0939	0.059278	0.000951	62.3305	127.787	-161.788	0.020951	0.001204	-1.086938	-1.088221	-0.026993	62.3305	-1.086613	-3.313881E+14	8.145541E-17	NaN
79	1.000000	0.044417	7.36581e+06	-42589.1	955.818	-29782.7	0.000000	0.000000	6.044731	-0.034577	NaN	0.000000	0.001544	0.001667	28.1299	0.003460	0.001927	1.795292	-90.1382	14.2568	0.001925	0.043047	-1.045007	-1.046377	-0.034577	1.795292	-1.030562	-5.848449E+13	5.912216E-16	NaN
79	1.000000	0.086462	7.36581e+06	-42589.1	955.819	-29782.7	0.000000	0.000000	6.086778	0.040404	NaN	0.000000	0.001609	0.001693	28.1003	0.066609	0.002049	32.5016	-24.2672	-167.787	0.036144	0.085227	-1.002963	-1.004197	0.040404	32.5016	-1.003895	-2.559791E+13	-1.578396E-15	NaN
79	1.000000	0.128503	7.36581e+06	-42589.1	955.819	-29782.7	0.000000	0.000000	6.128818	-0.012827	NaN	0.000000	0.001592	0.001709	28.0801	0.111323	0.001960	56.7966	131.578	14.469	-0.032187	0.127116	-0.960921	-0.962309	-0.012827	56.7966	-0.960752	-6.714335E+12	1.910359E-15	NaN
79	1.000000	0.170480	7.36581e+06	-42589.1	955.818	-29782.7	0.000000	0.000000	6.170797	0.043324	NaN	0.000000	0.001590	0.001720	28.0937	0.036299	0.001981	18.3231	-70.1178	-167.902	-0.013685	0.169128	-0.918944	-0.920296	0.043324	18.3231	-0.920718	-1.935966E+12	-2.237869E-14	NaN
79	1.000000	0.212497	7.36581e+06	-42589.1	955.819	-29782.7	0.000000	0.000000	6.212812	0.012734	NaN	0.000000	0.001629	0.001719	28.1308	0.073167	0.001953	37.4681	-128.873	12.3927	-0.049518	0.211137	-0.876928	-0.878288	0.012734	37.4681	-0.877183	-4.995801E+11	-2.548952E-14	NaN
79	1.000000	0.254492	7.36581e+06	-42589.1	955.819	-29782.7	0.000000	0.000000	6.254806	-0.013006	NaN	0.000000	0.001623	0.001674	28.1027	0.091526	0.002002	45.7225	-169.305	-164.303	0.030356	0.253255	-0.834933	-0.836170	-0.013006	45.7225	-0.834719	-1.329663E+11	9.781186E-14	NaN
79	1.000000	0.296521	7.36581e+06	-42589.1	955.819	-29782.7	0.000000	0.000000	6.296834	-0.051121	NaN	0.000000	0.001564	0.001716	28.08	0.093013	0.002132	43.6293	-27.8598	17.8808	-0.014696	0.295193	-0.792903	-0.794231	-0.051121	43.6293	-0.792025	-3.504127E+10	1.458890E-12	NaN
79	1.000000	0.338556	7.36581e+06	-42589.1	955.818	-29782.7	0.000000	0.000000	6.338870	-0.020694	NaN	0.000000	0.001577	0.001700	28.0919	0.174813	0.002132	81.9927	-67.2075	-167.147	0.033310	0.337243	-0.750868	-0.752182	-0.020694	81.9927	-0.750679	-9.604200E+9	2.154650E-12	NaN
79	1.000000	0.380593	7.36581e+06	-42589.1	955.818	-29782.7	0.000000	0.000000	6.380905	-0.074926	NaN	0.000000	0.001550	0.001718	28.1296	0.098500	0.001937	50.8537	130.001	17.8285	-0.085663	0.379253	-0.708831	-0.710172	-0.074926	50.8537	-0.707726	-2.494700E+9	3.003411E-11	NaN
79	1.000000	0.422585	7.36581e+06	-42589.1	955.818	-29782.7	0.000000	0.000000	6.422897	-0.062189	NaN	0.000000	0.001556	0.001719	28.1037	0.026096	0.001999	13.0515	145.315	-166.276	-0.073215	0.421294	-0.666839	-0.668131	-0.062189	13.0515	-0.663266	-6.154523E+8	1.010463E-10	NaN
79	1.000000	0.464608	7.36581e+06	-42589.1	955.818	-29782.7	0.000000	0.000000	6.464924	0.050910	NaN	0.000000	0.001528	0.001744	28.0806	0.070380	0.001958	35.9521	129.56	13.2105	0.068502	0.463256	-0.624817	-0.626169	0.050910	35.9521	-0.625879	-1.889811E+8	-2.693905E-10	NaN
79	1.000000	0.506633	7.36581e+06	-42589.1	955.818	-29782.7	0.000000	0.000000	6.506946	-0.031987	NaN	0.000000	0.001564	0.001743	28.0923	0.091701	0.001952	46.9816	-143.285	-166.045	-0.017041	0.505306	-0.582792	-0.584119	-0.031987	46.9816	-0.582281	-4.744670E+7	6.741711E-10	NaN
79	1.000000	0.548648	7.36581e+06	-42589.1	955.819	-29782.7	0.000000	0.000000	6.548962	-0.029639	NaN	0.000000	0.001589	0.001659	28.1304	0.061944	0.001860	33.3083	-59.7191	12.6841	0.025927	0.547278	-0.540776	-0.542147	-0.029639	33.3083	-0.540109	-1.238420E+7	2.393312E-9	NaN
79	1.000000	0.590678	7.36582e+06	-42589.1	955.818	-29782.7	0.000000	0.000000	6.590992	-0.015099	NaN	0.000000	0.001601	0.001700	28.1051	0.037812	0.002009	18.8242	146.068	-164.864	0.081651	0.589362	-0.498747	-0.500062	-0.015099	18.8242	-0.498145	-3.22949e+06	4.675400E-9	NaN
79	1.000000	0.632685	7.36582e+06	-42589.1	955.818	-29782.7	0.000000	0.000000	6.632999	-0.010014	NaN	0.000000	0.001544	0.001651	28.0798	0.028334	0.001942	14.5928	135.548	14.0576	0.042421	0.631300	-0.456740	-0.458125	-0.010014	14.5928	-0.456225	-835505	1.198586E-8	NaN
79	1.000000	0.674732	7.36582e+06	-42589.1	955.819	-29782.7	0.000000	0.000000	6.675049	0.054659	NaN	0.000000	0.001546	0.001619	28.0912	0.038566	0.002133	18.0846	-80.4322	-166.761	0.097888	0.673353	-0.414692	-0.416072	0.054659	18.0846	-0.416959	-232953	-2.346344E-7	NaN
79	1.000000	0.716737	7.36582e+06	-42589.1	955.818	-29782.7	0.000000	0.000000	6.717049	-0.062295	NaN	0.000000	0.001520	0.001697	28.1294	0.071179	0.001924	36.9957	82.0583	12.9214	-0.023702	0.715353	-0.372687	-0.374071	-0.062295	36.9957	-0.371424	-52075.6	1.196244E-6	NaN
79	1.000000	0.758702	7.36582e+06	-42589.1	955.818	-29782.7	0.000000	0.000000	6.759015	-0.041743	NaN	0.000000	0.001564	0.001662	28.1069	0.060246	0.002122	28.3928	115.854	-166.895	-0.040857	0.757401	-0.330723	-0.332024	-0.041743	28.3928	-0.329620	-12879.1	3.241167E-6	NaN
79	1.000000	0.800766	7.36582e+06	-42589.1	955.818	-29782.7	0.000000	0.000000	6.801080	-0.025553	NaN	0.000000	0.001555	0.001650	28.0802	0.112510	0.002100	53.5659	157.165	12.1052	0.012887	0.799427	-0.288659	-0.289998	-0.025553	53.5659	-0.288301	-3146.52	8.120980E-6	NaN
79	1.000000	0.842772	7.36582e+06	-42589.1	955.818	-29782.7	0.000000	0.000000	6.843088	0.033868	NaN	0.000000	0.001569	0.001702	28.0899	0.119446	0.001892	63.1279	-53.895	-165.789	-0.021514	0.841510	-0.246653	-0.247914	0.033868	63.1279	-0.247055	-740.218	-4.575370E-5	NaN
79	1.000000	0.884751	7.36582e+06	-42589.1	955.818	-29782.7	0.000000	0.000000	6.885065	-0.007429	NaN	0.000000	0.001602	0.001655	28.1278	0.117359	0.002007	58.4865	-72.1594	13.074	0.032051	0.883453	-0.204673	-0.205972	-0.007429	58.4865	-0.204578	-156.559	4.745197E-5	NaN
79	1.000000	0.926802	7.36582e+06	-42589.1	955.818	-29782.7	0.000000	0.000000	6.927115	-0.045641	NaN	0.000000	0.001613	0.001685	28.1068	0.085350	0.001942	43.949	-16.2208	-164.386	-0.024434	0.925508	-0.162623	-0.163917	-0.045641	43.949	-0.161844	-29.5579	0.001544	NaN
79	1.000000	0.968797	7.36582e+06	-42589.1	955.819	-29782.7	0.000000	0.000000	6.969109	-0.074076	NaN	0.000000	0.001651	0.001678	28.0813	0.060395	0.002105	28.6944	92.9931	13.6786	-0.051665	0.967526	-0.120628	-0.121898	-0.074076	28.6944	-0.118691	-4.545705	0.016296	NaN
79	1.000000	1.010828	7.36582e+06	-42589.1	955.82	-29782.7	0.000000	0.000000	7.011140	-0.068713	NaN	0.000000	0.001623	0.001689	28.0921	0.089490	0.001973	45.3624	4.059197	-168.038	-0.058826	1.009537	-0.078596	-0.079887	-0.068713	45.3624	-0.077460	-0.534113	0.128649	NaN
79	1.000000	1.052823	7.36582e+06	-42589.1	955.82	-29782.7	0.000000	0.000000	7.053137	-0.015722	NaN	0.000000	0.001645	0.001655	28.1288	0.099552	0.002039	48.8256	-145.976	15.1914	-0.063825	1.051539	-0.036601	-0.037885	-0.015722	48.8256	-0.036360	-0.035136	0.447449	NaN
79	1.000000	1.094836	7.36582e+06	-42589.1	955.819	-29782.7	0.000000	0.000000	7.095309	3.863925	NaN	0.000000	0.001608	0.001719	28.1089	4.433513	0.001846	2401.71	10.1372	-165.629	2.402835	1.093479	0.005411	0.004054	3.863925	2401.71	0.004205	0.003419	1130.1	37526.4
79	2.000000	1.107894	7.36582e+06	-42589.1	955.818	-29782.7	0.000000	0.000000	7.109601	33.8911	NaN	0.000000	0.001592	0.001696	28.0794	20.8156	0.001769	11764.7	6.300678	1.855281	32.1445	1.107510	0.018469	0.018085	33.8911	11764.7	0.016308	0.017070	1985.42	82269.5
79	2.000000	1.118323	7.36582e+06	-42589.1	955.819	-29782.7	0.000000	0.000000	7.121330	65.4976	NaN	0.000000	0.001574	0.001648	28.0905	32.0184	0.001964	16306.2	5.161580	-178.535	63.934	1.118042	0.028898	0.028618	65.4976	16306.2	0.025886	0.032647	2006.23	82452.5
79	2.000000	1.128852	7.36582e+06	-42589.1	955.819	-29782.7	0.000000	0.000000	7.133913	115.489	NaN	0.000000	0.001573	0.001647	28.1271	40.7125	0.001815	22434.2	4.145339	-2.186200	113.908	1.128438	0.039427	0.039014	115.489	22434.2	0.035566	0.053073	2176.05	88970.9
79	2.000000	1.139279	7.36582e+06	-42589.1	955.819	-29782.7	0.000000	0.000000	7.146723	173.445	NaN	0.000000	0.001560	0.001656	28.1097	48.9813	0.001887	25952.4	4.754661	175.673	170.792	1.138979	0.049855	0.049555	173.445	25952.4	0.044842	0.077140	2248.43	85370.9
79	2.000000	1.149804	7.36582e+06	-42589.1	955.819	-29782.7	0.000000	0.000000	7.159819	236.02	NaN	0.000000	0.001581	0.001671	28.082	56.7258	0.001752	32383.6	5.986126	-6.981732	233.559	1.149425	0.060379	0.060000	236.02	32383.6	0.054913	0.108202	2181.29	89945.5
79	2.000000	1.160393	7.36582e+06	-42589.1	955.819	-29782.7	0.000000	0.000000	7.172811	294.473	NaN	0.000000	0.001589	0.001682	28.0892	67.3431	0.001881	35808	5.366196	172.986	299.492	1.159984	0.070969	0.070559	294.473	35808	0.064801	0.143585	2050.86	86337.3
79	2.000000	1.170787	7.36582e+06	-42589.1	955.818	-29782.7	0.000000	0.000000	7.185895	359.937	NaN	0.000000	0.001565	0.001671	28.127	74.0947	0.001892	39156.3	3.696390	-5.984588	357.111	1.170424	0.081362	0.080999	359.937	39156.3	0.074468	0.182736	1969.71	83687.9
79	2.000000	1.181223	7.36582e+06	-42589.1	955.818	-29782.7	0.000000	0.000000	7.198678	417.032	NaN	0.000000	0.001587	0.001656	28.1081	83.5751	0.001810	46183	5.954403	171.129	413.94	1.180925	0.091799	0.091501	417.032	46183	0.085026	0.230527	1809.04	87880.8
79	2.000000	1.191719	7.36582e+06	-42589.1	955.817	-29782.7	0.000000	0.000000	7.212343	494.139	NaN	0.000000	0.001569	0.001708	28.0814	92.7111	0.001861	49815.2	4.712018	-7.898636	491.321	1.191346	0.102294	0.101922	494.139	49815.2	0.094855	0.279644	1767.03	86066.1
79	2.000000	1.196755	7.36582e+06	-42589.1	955.818	-29782.7	0.000000	0.000000	7.218990	533.345	NaN	0.000000	0.001553	0.001684	28.1272	97.1567	0.001891	51372.5	5.879211	-9.412812	530.016	1.196358	0.107331	0.106934	533.345	51372.5	0.099544	0.304636	1750.76	85038.1