Folder: unikorn_login/remote_trans/data/nanoindenter/0828-1/data/Data_2025-08-06,11h17m57s (part 197)

File: 2025-07-22_16-23-58_1_411.txt
2025-07-22, 16:23:58, 1
Index	Phase	Displacement	Time	Pos X	Pos Y	Pos Z	Rot A	Rot B	Piezo Z	Force A	Force B	Gripper	Voltage A	Voltage B	Temperature	Amplitude force	Amplitude pos	Stiffness	Phase shift	Phase excitation	Force A raw	Displacement raw	HMax	HMax raw	Real Force	Real Stiffness	Contact Depth	Area	Hardness	Reduced Mod.
[#]	[#]	[um]	[s]	[um]	[um]	[um]	[m°]	[m°]	[um]	[uN]	[uN]	[V]	[V]	[V]	[°C]	[uN]	[um]	[N/m]	[°]	[°]	[uN]	[um]	[um]	[um]	[uN]	[N/m]	[um]	[um^2]	[MPa]	[MPa]
411	1.000000	0.002431	7.36908e+06	-56539.1	1005.82	-29738.8	0.000000	0.000000	6.002814	0.035265	NaN	0.000000	0.001596	0.001624	28.0808	0.063213	0.001133	55.7782	168.041	-166.877	0.105291	0.001198	-1.166627	-1.167859	0.035265	55.7782	-1.167101	-3.981388E+15	-8.857539E-18	NaN
411	1.000000	0.046382	7.36908e+06	-56539.1	1005.82	-29738.8	0.000000	0.000000	6.046763	-0.000393	NaN	0.000000	0.001589	0.001591	28.0809	0.053658	0.002029	26.4517	117.591	-169.587	0.025057	0.045086	-1.122676	-1.123971	-0.000393	26.4517	-1.122665	-1.009766E+15	3.894882E-19	NaN
411	1.000000	0.090367	7.36908e+06	-56539.1	1005.82	-29738.8	0.000000	0.000000	6.090750	0.025481	NaN	0.000000	0.001603	0.001588	28.0819	0.019957	0.001943	10.2699	-43.5755	-166.979	-0.007084	0.089076	-1.078690	-1.079982	0.025481	10.2699	-1.080551	-2.747386E+14	-9.274627E-17	NaN
411	1.000000	0.134402	7.36908e+06	-56539.1	1005.82	-29738.8	0.000000	0.000000	6.134782	-0.036083	NaN	0.000000	0.001580	0.001564	28.0823	0.026273	0.001955	13.437	172.395	-169.721	0.057212	0.133103	-1.034656	-1.035954	-0.036083	13.437	-1.032642	-6.237490E+13	5.784792E-16	NaN
411	1.000000	0.178429	7.36908e+06	-56539.1	1005.82	-29738.8	0.000000	0.000000	6.178813	0.053976	NaN	0.000000	0.001570	0.001564	28.082	0.100049	0.001873	53.4153	62.4959	-166.784	0.034753	0.177148	-0.990628	-0.991910	0.053976	53.4153	-0.991386	-1.736925E+13	-3.107561E-15	NaN
411	1.000000	0.222428	7.36908e+06	-56539.1	1005.82	-29738.8	0.000000	0.000000	6.222808	-0.030390	NaN	0.000000	0.001595	0.001584	28.0815	0.179548	0.002098	85.5849	-64.9066	-170.002	-0.006189	0.221075	-0.946630	-0.947982	-0.030390	85.5849	-0.946363	-4.295140E+12	7.075446E-15	NaN
411	1.000000	0.266440	7.36908e+06	-56539.1	1005.82	-29738.8	0.000000	0.000000	6.266825	0.074193	NaN	0.000000	0.001606	0.001531	28.0805	0.013082	0.002062	6.345273	127.811	-162.817	0.046538	0.265143	-0.902617	-0.903915	0.074193	6.345273	-0.911387	-1.448414E+12	-5.122338E-14	NaN
411	1.000000	0.310518	7.36908e+06	-56539.1	1005.82	-29738.8	0.000000	0.000000	6.310900	0.018799	NaN	0.000000	0.001602	0.001577	28.0809	0.057773	0.002002	28.8633	90.7285	-169.02	0.088464	0.309097	-0.858540	-0.859960	0.018799	28.8633	-0.859028	-2.837704E+11	-6.624799E-14	NaN
411	1.000000	0.354512	7.36908e+06	-56539.1	1005.82	-29738.8	0.000000	0.000000	6.354894	0.016553	NaN	0.000000	0.001672	0.001589	28.0821	0.088086	0.001912	46.0713	118.191	-164.812	-0.003409	0.353188	-0.814545	-0.815869	0.016553	46.0713	-0.814815	-7.143129E+10	-2.317359E-13	NaN
411	1.000000	0.398512	7.36908e+06	-56539.1	1005.82	-29738.8	0.000000	0.000000	6.398892	-0.045714	NaN	0.000000	0.001598	0.001609	28.0817	0.051059	0.001959	26.0693	-66.3134	-166.983	-0.003840	0.397238	-0.770546	-0.771820	-0.045714	26.0693	-0.769231	-1.717291E+10	2.662007E-12	NaN
411	1.000000	0.442547	7.36908e+06	-56539.1	1005.82	-29738.8	0.000000	0.000000	6.442927	-0.036111	NaN	0.000000	0.001592	0.001587	28.082	0.054995	0.002133	25.7774	-43.6638	-165.213	-0.076631	0.441326	-0.726510	-0.727732	-0.036111	25.7774	-0.725460	-4.354305E+9	8.293181E-12	NaN
411	1.000000	0.486553	7.36908e+06	-56539.1	1005.82	-29738.8	0.000000	0.000000	6.486935	0.001461	NaN	0.000000	0.001643	0.001594	28.0808	0.055901	0.002032	27.5118	47.3688	-164.974	-0.054753	0.485268	-0.682504	-0.683790	0.001461	27.5118	-0.682544	-1.129785E+9	-1.293449E-12	NaN
411	1.000000	0.530569	7.36908e+06	-56539.1	1005.82	-29738.8	0.000000	0.000000	6.530949	-0.037591	NaN	0.000000	0.001632	0.001651	28.0804	0.087773	0.002016	43.5474	149.106	-163.62	-0.024275	0.529231	-0.638488	-0.639826	-0.037591	43.5474	-0.637841	-2.758451E+8	1.362763E-10	NaN
411	1.000000	0.574547	7.36908e+06	-56539.1	1005.82	-29738.8	0.000000	0.000000	6.574927	-0.046329	NaN	0.000000	0.001614	0.001632	28.0804	0.027980	0.002133	13.1196	-72.4916	-167.175	-0.034638	0.573306	-0.594510	-0.595751	-0.046329	13.1196	-0.591862	-6.431832E+7	7.203033E-10	NaN
411	1.000000	0.618623	7.36908e+06	-56539.1	1005.82	-29738.8	0.000000	0.000000	6.619000	-0.108761	NaN	0.000000	0.001615	0.001683	28.0817	0.111392	0.002056	54.1894	-30.6083	-166.649	-0.074376	0.617329	-0.550434	-0.551728	-0.108761	54.1894	-0.548929	-1.641042E+7	6.627536E-9	NaN
411	1.000000	0.662617	7.36908e+06	-56539.1	1005.82	-29738.8	0.000000	0.000000	6.662996	-0.063729	NaN	0.000000	0.001611	0.001664	28.0818	0.047386	0.001951	24.2929	-175.138	-166.648	-0.011155	0.661347	-0.506441	-0.507710	-0.063729	24.2929	-0.504473	-3.9573e+06	1.610414E-8	NaN
411	1.000000	0.706648	7.36908e+06	-56539.1	1005.82	-29738.8	0.000000	0.000000	6.707029	0.003131	NaN	0.000000	0.001690	0.001696	28.082	0.062459	0.001951	32.018	2.923679	-168.055	-0.085881	0.705332	-0.462410	-0.463726	0.003131	32.018	-0.462483	-1.02308e+06	-3.060574E-9	NaN
411	1.000000	0.750680	7.36908e+06	-56539.1	1005.82	-29738.8	0.000000	0.000000	6.751059	-0.061804	NaN	0.000000	0.001579	0.001653	28.0818	0.068748	0.001991	34.522	153.11	-164.351	0.027019	0.749351	-0.418377	-0.419707	-0.061804	34.522	-0.417034	-233528	2.646552E-7	NaN
411	1.000000	0.794678	7.36908e+06	-56539.1	1005.82	-29738.8	0.000000	0.000000	6.795056	-0.089586	NaN	0.000000	0.001673	0.001661	28.0804	0.049495	0.002071	23.8962	155.312	-166.406	-0.063266	0.793388	-0.374380	-0.375669	-0.089586	23.8962	-0.371568	-52323.9	1.712145E-6	NaN
411	1.000000	0.838667	7.36908e+06	-56539.1	1005.82	-29738.8	0.000000	0.000000	6.839049	0.001172	NaN	0.000000	0.001672	0.001671	28.0803	0.051703	0.001961	26.3696	83.5875	-164.587	0.038966	0.837407	-0.330390	-0.331651	0.001172	26.3696	-0.330424	-13232.9	-8.856753E-8	NaN
411	1.000000	0.882748	7.36908e+06	-56539.1	1005.82	-29738.8	0.000000	0.000000	6.883129	-0.011291	NaN	0.000000	0.001649	0.001661	28.0806	0.053713	0.001832	29.3168	-133.07	-168.109	0.062411	0.881417	-0.286309	-0.287641	-0.011291	29.3168	-0.286021	-2908.06	3.882639E-6	NaN
411	1.000000	0.926728	7.36908e+06	-56539.1	1005.82	-29738.8	0.000000	0.000000	6.927109	-0.021581	NaN	0.000000	0.001666	0.001648	28.082	0.136119	0.001880	72.4119	-166.274	-166.503	-0.016319	0.925425	-0.242330	-0.243633	-0.021581	72.4119	-0.242106	-620.03	3.480572E-5	NaN
411	1.000000	0.970744	7.36908e+06	-56539.1	1005.82	-29738.8	0.000000	0.000000	6.971125	-0.002208	NaN	0.000000	0.001627	0.001632	28.0816	0.123501	0.002106	58.6547	113.276	-167.066	-0.023417	0.969393	-0.198314	-0.199664	-0.002208	58.6547	-0.198286	-123.449	1.788962E-5	NaN
411	1.000000	1.014789	7.36908e+06	-56539.1	1005.82	-29738.8	0.000000	0.000000	7.015174	0.087340	NaN	0.000000	0.001680	0.001660	28.0817	0.075393	0.001952	38.614	90.2824	-165.845	0.134081	1.013446	-0.154269	-0.155611	0.087340	38.614	-0.155965	-23.2235	-0.003761	NaN
411	1.000000	1.058747	7.36909e+06	-56539.1	1005.82	-29738.8	0.000000	0.000000	7.059126	-0.057364	NaN	0.000000	0.001692	0.001641	28.0806	0.117934	0.001928	61.1563	-137.575	-164.919	-0.126712	1.057542	-0.110310	-0.111516	-0.057364	61.1563	-0.109607	-2.948324	0.019456	NaN
411	1.000000	1.102828	7.36909e+06	-56539.1	1005.82	-29738.8	0.000000	0.000000	7.103207	-0.072587	NaN	0.000000	0.001670	0.001638	28.0806	0.070794	0.002015	35.1253	85.2923	-164.249	-0.144401	1.101538	-0.066229	-0.067519	-0.072587	35.1253	-0.064679	-0.244159	0.297295	NaN
411	1.000000	1.146814	7.36909e+06	-56539.1	1005.82	-29738.8	0.000000	0.000000	7.147200	0.104135	NaN	0.000000	0.001679	0.001649	28.0807	0.088096	0.001970	44.7097	51.157	-165.28	0.060938	1.145514	-0.022244	-0.023544	0.104135	44.7097	-0.023991	-0.015882	-6.556928	NaN
411	2.000000	1.182419	7.36909e+06	-56539.1	1005.82	-29738.8	0.000000	0.000000	7.183258	11.1157	NaN	0.000000	0.001665	0.001627	28.0819	11.8119	0.001648	7167.56	2.624901	-171.942	10.8101	1.182101	0.013362	0.013043	11.1157	7167.56	0.012199	0.011729	947.722	60466.7
411	2.000000	1.193336	7.36909e+06	-56539.1	1005.82	-29738.8	0.000000	0.000000	7.195037	32.0854	NaN	0.000000	0.001610	0.001654	28.0818	22.8619	0.001734	13187.9	4.668801	-178.322	31.0917	1.192983	0.024278	0.023926	32.0854	13187.9	0.022453	0.026545	1208.71	73952.9
411	2.000000	1.204328	7.36909e+06	-56539.1	1005.82	-29738.8	0.000000	0.000000	7.207313	63.2654	NaN	0.000000	0.001644	0.001663	28.0819	33.5566	0.001767	18990.9	7.573769	175.956	63.3666	1.204001	0.035271	0.034944	63.2654	18990.9	0.032772	0.046685	1355.14	80302.2
411	2.000000	1.215298	7.36909e+06	-56539.1	1005.82	-29738.8	0.000000	0.000000	7.219915	102.954	NaN	0.000000	0.001621	0.001622	28.0809	44.6004	0.001814	24586.6	4.412423	176.878	102.051	1.215022	0.046240	0.045964	102.954	24586.6	0.043100	0.072285	1424.28	83550.5
411	2.000000	1.226291	7.36909e+06	-56539.1	1005.82	-29738.8	0.000000	0.000000	7.232764	148.063	NaN	0.000000	0.001658	0.001662	28.0805	54.4544	0.001771	30742.8	5.890874	173.354	150.17	1.226020	0.057233	0.056962	148.063	30742.8	0.053621	0.103933	1424.6	87124.3
411	2.000000	1.237336	7.36909e+06	-56539.1	1005.82	-29738.8	0.000000	0.000000	7.246329	209.309	NaN	0.000000	0.001647	0.001638	28.0804	64.1691	0.001768	36290.2	7.699201	170.241	212.64	1.236993	0.068279	0.067935	209.309	36290.2	0.063953	0.140364	1491.19	88498.3
411	2.000000	1.248313	7.36909e+06	-56539.1	1005.82	-29738.8	0.000000	0.000000	7.259992	274.614	NaN	0.000000	0.001619	0.001630	28.0819	74.4262	0.001794	41481.1	0.481133	177.242	274.49	1.247985	0.079255	0.078928	274.614	41481.1	0.074290	0.181976	1509.07	88841.6
411	2.000000	1.259253	7.36909e+06	-56539.1	1005.82	-29738.8	0.000000	0.000000	7.273382	334.137	NaN	0.000000	0.001612	0.001633	28.0816	83.8161	0.001639	51127.4	4.310755	171.13	335.228	1.258902	0.090196	0.089845	334.137	51127.4	0.085294	0.231807	1441.44	97020.5
411	2.000000	1.270210	7.36909e+06	-56539.1	1005.82	-29738.8	0.000000	0.000000	7.288123	426.131	NaN	0.000000	0.001589	0.001674	28.0817	94.0106	0.001781	52770.9	7.141787	168.949	424.615	1.269838	0.101152	0.100780	426.131	52770.9	0.095096	0.280904	1517	90967.9
411	2.000000	1.278193	7.36909e+06	-56539.1	1005.82	-29738.8	0.000000	0.000000	7.298495	484.188	NaN	0.000000	0.001600	0.001616	28.0803	103.637	0.001869	55462.8	7.058556	169.075	482.073	1.277738	0.109135	0.108680	484.188	55462.8	0.102588	0.321392	1506.54	89383.5

File: 2025-07-22_16-23-58_1_412.txt
2025-07-22, 16:23:58, 1
Index	Phase	Displacement	Time	Pos X	Pos Y	Pos Z	Rot A	Rot B	Piezo Z	Force A	Force B	Gripper	Voltage A	Voltage B	Temperature	Amplitude force	Amplitude pos	Stiffness	Phase shift	Phase excitation	Force A raw	Displacement raw	HMax	HMax raw	Real Force	Real Stiffness	Contact Depth	Area	Hardness	Reduced Mod.
[#]	[#]	[um]	[s]	[um]	[um]	[um]	[m°]	[m°]	[um]	[uN]	[uN]	[V]	[V]	[V]	[°C]	[uN]	[um]	[N/m]	[°]	[°]	[uN]	[um]	[um]	[um]	[uN]	[N/m]	[um]	[um^2]	[MPa]	[MPa]
412	1.000000	0.002876	7.36909e+06	-56489.1	1005.82	-29739	0.000000	0.000000	6.002788	-0.041932	NaN	0.000000	0.001708	0.001763	28.0815	0.069012	0.000978	70.5812	-159.674	-171.017	-0.057488	0.001619	-1.025654	-1.026911	-0.041932	70.5812	-1.025209	-4.954842E+13	8.462912E-16	NaN
412	1.000000	0.042843	7.36909e+06	-56489.1	1005.82	-29739	0.000000	0.000000	6.042757	0.015725	NaN	0.000000	0.001732	0.001738	28.082	0.120268	0.001989	60.4539	-153.475	-167.576	0.041345	0.041472	-0.985688	-0.987059	0.015725	60.4539	-0.985883	-1.464396E+13	-1.073789E-15	NaN
412	1.000000	0.082845	7.36909e+06	-56489.1	1005.82	-29739	0.000000	0.000000	6.082758	-0.010914	NaN	0.000000	0.001745	0.001750	28.0807	0.047334	0.001969	24.0355	-168.328	-167.709	-0.081311	0.081620	-0.945685	-0.946911	-0.010914	24.0355	-0.945345	-4.161398E+12	2.622644E-15	NaN
412	1.000000	0.122865	7.36909e+06	-56489.1	1005.82	-29739	0.000000	0.000000	6.122776	-0.052482	NaN	0.000000	0.001735	0.001768	28.0805	0.072678	0.001981	36.6848	-35.4235	-167.319	-0.011923	0.121570	-0.905665	-0.906960	-0.052482	36.6848	-0.904593	-1.172509E+12	4.476008E-14	NaN
412	1.000000	0.162881	7.36909e+06	-56489.1	1005.82	-29739	0.000000	0.000000	6.162795	0.003742	NaN	0.000000	0.001741	0.001715	28.0805	0.087161	0.001914	45.5479	26.0802	-168.856	-0.096572	0.161568	-0.865649	-0.866963	0.003742	45.5479	-0.865711	-3.494692E+11	-1.070676E-14	NaN
412	1.000000	0.202888	7.36909e+06	-56489.1	1005.82	-29739	0.000000	0.000000	6.202801	0.003322	NaN	0.000000	0.001765	0.001742	28.0799	0.111301	0.001883	59.1015	18.8321	-168.672	0.047918	0.201565	-0.825643	-0.826965	0.003322	59.1015	-0.825685	-1.002978E+11	-3.312235E-14	NaN
412	1.000000	0.242923	7.36909e+06	-56489.1	1005.82	-29739	0.000000	0.000000	6.242834	-0.040099	NaN	0.000000	0.001708	0.001707	28.0814	0.073702	0.001926	38.2733	79.6095	-164.082	-0.058463	0.241598	-0.785608	-0.786932	-0.040099	38.2733	-0.784822	-2.797365E+10	1.433460E-12	NaN
412	1.000000	0.282932	7.36909e+06	-56489.1	1005.82	-29739	0.000000	0.000000	6.282847	0.043586	NaN	0.000000	0.001774	0.001680	28.0816	0.096282	0.001987	48.4534	42.1264	-167.257	-0.036472	0.281638	-0.745599	-0.746892	0.043586	48.4534	-0.746273	-8.365372E+9	-5.210240E-12	NaN
412	1.000000	0.322971	7.36909e+06	-56489.1	1005.82	-29739	0.000000	0.000000	6.322883	-0.017899	NaN	0.000000	0.001743	0.001724	28.0817	0.083584	0.001993	41.9472	-85.9135	-165.713	-0.029541	0.321678	-0.705560	-0.706853	-0.017899	41.9472	-0.705240	-2.307169E+9	7.758169E-12	NaN
412	1.000000	0.362967	7.36909e+06	-56489.1	1005.82	-29739	0.000000	0.000000	6.362879	-0.036213	NaN	0.000000	0.001795	0.001716	28.0802	0.078096	0.001989	39.2714	83.1047	-167.141	0.010343	0.361618	-0.665563	-0.666912	-0.036213	39.2714	-0.664872	-6.474182E+8	5.593374E-11	NaN
412	1.000000	0.402959	7.36909e+06	-56489.1	1005.82	-29739	0.000000	0.000000	6.402870	-0.046155	NaN	0.000000	0.001797	0.001663	28.0804	0.042941	0.002060	20.8404	29.304	-164.966	0.027676	0.401683	-0.625572	-0.626848	-0.046155	20.8404	-0.623911	-1.775755E+8	2.599200E-10	NaN
412	1.000000	0.442998	7.36909e+06	-56489.1	1005.82	-29739	0.000000	0.000000	6.442913	0.030212	NaN	0.000000	0.001791	0.001690	28.0804	0.115552	0.001925	60.0324	-124.695	-165.719	0.045890	0.441672	-0.585533	-0.586859	0.030212	60.0324	-0.585910	-5.324345E+7	-5.674234E-10	NaN
412	1.000000	0.483004	7.36909e+06	-56489.1	1005.82	-29739	0.000000	0.000000	6.482918	0.016762	NaN	0.000000	0.001680	0.001682	28.0807	0.057848	0.001972	29.3362	127.535	-167.572	0.042414	0.481661	-0.545526	-0.546869	0.016762	29.3362	-0.545955	-1.492501E+7	-1.123070E-9	NaN
412	1.000000	0.523046	7.36909e+06	-56489.1	1005.82	-29739	0.000000	0.000000	6.522958	-0.028814	NaN	0.000000	0.001691	0.001701	28.0818	0.057849	0.001994	29.0116	91.7523	-161.827	-0.089930	0.521728	-0.505484	-0.506803	-0.028814	29.0116	-0.504739	-3.99127e+06	7.219154E-9	NaN
412	1.000000	0.563059	7.36909e+06	-56489.1	1005.82	-29739	0.000000	0.000000	6.562971	-0.028337	NaN	0.000000	0.001663	0.001666	28.0817	0.096783	0.001972	49.0745	94.2898	-166.732	-0.054766	0.561710	-0.465471	-0.466821	-0.028337	49.0745	-0.465038	-1.11119e+06	2.550191E-8	NaN
412	1.000000	0.603051	7.36909e+06	-56489.1	1005.82	-29739	0.000000	0.000000	6.602965	0.024790	NaN	0.000000	0.001660	0.001697	28.0823	0.143126	0.001967	72.7697	123.905	-165.836	0.071156	0.601794	-0.425480	-0.426737	0.024790	72.7697	-0.425735	-310239	-7.990495E-8	NaN
412	1.000000	0.643114	7.36909e+06	-56489.1	1005.82	-29739	0.000000	0.000000	6.643027	-0.005055	NaN	0.000000	0.001668	0.001653	28.0802	0.080060	0.001901	42.1062	-146.081	-165.937	-0.040865	0.641856	-0.385416	-0.386674	-0.005055	42.1062	-0.385326	-82463.1	6.129444E-8	NaN
412	1.000000	0.683081	7.36909e+06	-56489.1	1005.82	-29739	0.000000	0.000000	6.682997	0.067903	NaN	0.000000	0.001675	0.001666	28.0804	0.053308	0.001868	28.535	-144.452	-165.78	0.031757	0.681766	-0.345449	-0.346765	0.067903	28.535	-0.347234	-23272.1	-2.917791E-6	NaN
412	1.000000	0.723127	7.36909e+06	-56489.1	1005.82	-29739	0.000000	0.000000	6.723041	0.018023	NaN	0.000000	0.001702	0.001683	28.0803	0.061384	0.002053	29.904	31.1579	-164.929	0.008199	0.721820	-0.305404	-0.306710	0.018023	29.904	-0.305856	-5749.78	-3.134500E-6	NaN
412	1.000000	0.763136	7.36909e+06	-56489.1	1005.82	-29739	0.000000	0.000000	6.763049	-0.014732	NaN	0.000000	0.001661	0.001717	28.0815	0.093844	0.001967	47.6995	-150.247	-164.76	0.000201	0.761787	-0.265395	-0.266743	-0.014732	47.6995	-0.265163	-1405.64	1.048037E-5	NaN
412	1.000000	0.803160	7.36909e+06	-56489.1	1005.82	-29739	0.000000	0.000000	6.803071	-0.068604	NaN	0.000000	0.001727	0.001705	28.0815	0.018178	0.002050	8.866132	86.3021	-164.246	-0.094856	0.801805	-0.225371	-0.226726	-0.068604	8.866132	-0.219567	-273.375	0.000251	NaN
412	1.000000	0.843159	7.36909e+06	-56489.1	1005.82	-29739	0.000000	0.000000	6.843073	0.018715	NaN	0.000000	0.001713	0.001686	28.0816	0.043630	0.002033	21.4581	35.4068	-167.388	-0.007724	0.841858	-0.185371	-0.186672	0.018715	21.4581	-0.186025	-77.1613	-0.000243	NaN
412	1.000000	0.883192	7.36909e+06	-56489.1	1005.82	-29739	0.000000	0.000000	6.883107	0.037836	NaN	0.000000	0.001654	0.001694	28.0814	0.069685	0.001905	36.5767	104.207	-166.46	-0.005907	0.881845	-0.145338	-0.146686	0.037836	36.5767	-0.146114	-15.3725	-0.002461	NaN
412	1.000000	0.923207	7.36909e+06	-56489.1	1005.82	-29739	0.000000	0.000000	6.923122	0.058228	NaN	0.000000	0.001642	0.001683	28.0802	0.055269	0.002045	27.0243	77.6216	-164.046	0.027860	0.921916	-0.105324	-0.106615	0.058228	27.0243	-0.106940	-2.587482	-0.022504	NaN
412	1.000000	0.963203	7.36909e+06	-56489.1	1005.82	-29739	0.000000	0.000000	6.963117	0.024834	NaN	0.000000	0.001682	0.001725	28.0801	0.122370	0.002061	59.3716	134.076	-165.333	-0.013250	0.961883	-0.065328	-0.066648	0.024834	59.3716	-0.065641	-0.259614	-0.095656	NaN
412	1.000000	1.003238	7.3691e+06	-56489.1	1005.82	-29739	0.000000	0.000000	7.003152	0.013922	NaN	0.000000	0.001684	0.001708	28.08	0.104407	0.001980	52.7388	34.4896	-166.643	0.031413	1.001893	-0.025293	-0.026637	0.013922	52.7388	-0.025491	-0.017377	-0.801156	NaN
412	2.000000	1.039792	7.3691e+06	-56489.1	1005.82	-29739	0.000000	0.000000	7.040090	9.359838	NaN	0.000000	0.001679	0.001732	28.0813	10.2205	0.001738	5879.03	8.090441	-173.421	8.825719	1.039473	0.011261	0.010943	9.359838	5879.03	0.010067	0.009256	1011.19	55829
412	2.000000	1.049711	7.3691e+06	-56489.1	1005.82	-29739	0.000000	0.000000	7.050499	21.2743	NaN	0.000000	0.001677	0.001702	28.0814	19.827	0.001835	10807.7	5.680534	-175.442	20.2866	1.049438	0.021180	0.020907	21.2743	10807.7	0.019704	0.022079	963.549	66453.4
412	2.000000	1.059632	7.3691e+06	-56489.1	1005.82	-29739	0.000000	0.000000	7.061474	46.8656	NaN	0.000000	0.001767	0.001723	28.0813	30.7977	0.001772	17380.8	7.003491	177.622	45.4819	1.059351	0.031102	0.030820	46.8656	17380.8	0.029079	0.038857	1206.1	80557.8
412	2.000000	1.069746	7.3691e+06	-56489.1	1005.82	-29739	0.000000	0.000000	7.072589	71.2235	NaN	0.000000	0.001705	0.001677	28.0815	41.4732	0.001984	20906.4	8.782065	174.214	73.1236	1.069436	0.041215	0.040905	71.2235	20906.4	0.038660	0.060612	1175.07	77584.1
412	2.000000	1.079644	7.3691e+06	-56489.1	1005.82	-29739	0.000000	0.000000	7.084180	112.366	NaN	0.000000	0.001691	0.001677	28.0802	50.6744	0.001711	29608.9	6.917086	173.352	111.393	1.079333	0.051113	0.050803	112.366	29608.9	0.048267	0.087131	1289.62	91645.1
412	2.000000	1.089630	7.3691e+06	-56489.1	1005.82	-29739	0.000000	0.000000	7.095908	154.688	NaN	0.000000	0.001732	0.001668	28.0804	60.5746	0.001782	33988.1	4.656226	174.805	154.134	1.089329	0.061100	0.060798	154.688	33988.1	0.057686	0.117642	1314.91	90535.5
412	2.000000	1.099523	7.3691e+06	-56489.1	1005.82	-29739	0.000000	0.000000	7.108107	210.754	NaN	0.000000	0.001721	0.001666	28.0804	69.309	0.001755	39488.5	1.265703	176.519	205.136	1.099313	0.070992	0.070782	210.754	39488.5	0.066989	0.152056	1386.02	92521.2
412	2.000000	1.109554	7.3691e+06	-56489.1	1005.82	-29739	0.000000	0.000000	7.121118	283.185	NaN	0.000000	0.001746	0.001693	28.0817	79.4879	0.001827	43505.1	6.382212	171.033	279.713	1.109247	0.081024	0.080717	283.185	43505.1	0.076142	0.189966	1490.72	91196
412	2.000000	1.119607	7.3691e+06	-56489.1	1005.82	-29739	0.000000	0.000000	7.134316	359.646	NaN	0.000000	0.001736	0.001724	28.0818	88.826	0.001779	49919.3	2.966934	173.337	360.437	1.119239	0.091076	0.090708	359.646	49919.3	0.085673	0.233621	1539.44	94359.6
412	2.000000	1.129512	7.3691e+06	-56489.1	1005.82	-29739	0.000000	0.000000	7.147549	440.529	NaN	0.000000	0.001755	0.001687	28.0818	99.5338	0.001768	56304.7	6.207181	169.273	435.462	1.129219	0.100981	0.100688	440.529	56304.7	0.095113	0.280995	1567.75	97044.1
412	2.000000	1.136875	7.3691e+06	-56489.1	1005.82	-29739	0.000000	0.000000	7.157592	505.665	NaN	0.000000	0.001705	0.001641	28.0818	106.98	0.001835	58290.1	2.929151	-7.751629	493.687	1.136585	0.108344	0.108054	505.665	58290.1	0.101838	0.317226	1594.02	94554.8