Folder: unikorn_login/remote_trans/data/nanoindenter/0828-1/data/Data_2025-08-06,11h17m57s (part 36)

File: 2025-07-22_16-23-58_1_70.txt
2025-07-22, 16:23:58, 1
Index	Phase	Displacement	Time	Pos X	Pos Y	Pos Z	Rot A	Rot B	Piezo Z	Force A	Force B	Gripper	Voltage A	Voltage B	Temperature	Amplitude force	Amplitude pos	Stiffness	Phase shift	Phase excitation	Force A raw	Displacement raw	HMax	HMax raw	Real Force	Real Stiffness	Contact Depth	Area	Hardness	Reduced Mod.
[#]	[#]	[um]	[s]	[um]	[um]	[um]	[m°]	[m°]	[um]	[uN]	[uN]	[V]	[V]	[V]	[°C]	[uN]	[um]	[N/m]	[°]	[°]	[uN]	[um]	[um]	[um]	[uN]	[N/m]	[um]	[um^2]	[MPa]	[MPa]
70	1.000000	0.003122	7.36573e+06	-42139.1	955.819	-29784.3	0.000000	0.000000	6.002779	0.015043	NaN	0.000000	0.001728	0.001656	28.0942	0.091735	0.001025	89.5127	-175.987	-165.148	0.021326	0.001874	-1.051088	-1.052335	0.015043	89.5127	-1.051214	-1.108483E+14	-1.357114E-16	NaN
70	1.000000	0.043104	7.36573e+06	-42139.1	955.818	-29784.3	0.000000	0.000000	6.042761	0.014117	NaN	0.000000	0.001601	0.001586	28.0954	0.176472	0.001899	92.9308	-83.5792	-166.268	-0.024278	0.041799	-1.011105	-1.012410	0.014117	92.9308	-1.011219	-3.212106E+13	-4.395089E-16	NaN
70	1.000000	0.083119	7.36573e+06	-42139.1	955.818	-29784.3	0.000000	0.000000	6.082775	-0.032054	NaN	0.000000	0.001614	0.001620	28.095	0.048998	0.001874	26.1407	114.188	-164.059	0.011596	0.081775	-0.971090	-0.972434	-0.032054	26.1407	-0.970170	-8.994152E+12	3.563891E-15	NaN
70	1.000000	0.123121	7.36573e+06	-42139.1	955.818	-29784.3	0.000000	0.000000	6.122781	0.069268	NaN	0.000000	0.001543	0.001668	28.0944	0.029644	0.002134	13.8886	-18.729	-165.651	0.034709	0.121787	-0.931088	-0.932423	0.069268	13.8886	-0.934829	-3.001646E+12	-2.307662E-14	NaN
70	1.000000	0.163136	7.36573e+06	-42139.1	955.818	-29784.3	0.000000	0.000000	6.162795	0.059416	NaN	0.000000	0.001603	0.001718	28.0926	0.087906	0.002067	42.5216	-69.1763	-166.484	0.011705	0.161829	-0.891073	-0.892380	0.059416	42.5216	-0.892121	-7.954111E+11	-7.469837E-14	NaN
70	1.000000	0.203176	7.36573e+06	-42139.1	955.819	-29784.3	0.000000	0.000000	6.202831	-0.037117	NaN	0.000000	0.001567	0.001683	28.0922	0.056063	0.002012	27.8657	47.4267	-164.798	0.040661	0.201882	-0.851033	-0.852327	-0.037117	27.8657	-0.850034	-2.143878E+11	1.731317E-13	NaN
70	1.000000	0.243189	7.36573e+06	-42139.1	955.818	-29784.3	0.000000	0.000000	6.242845	-0.017228	NaN	0.000000	0.001598	0.001640	28.0916	0.039745	0.002004	19.834	-17.1989	-167.867	-0.055257	0.241904	-0.811020	-0.812306	-0.017228	19.834	-0.810369	-6.216925E+10	2.771113E-13	NaN
70	1.000000	0.283198	7.36573e+06	-42139.1	955.818	-29784.3	0.000000	0.000000	6.282855	0.006707	NaN	0.000000	0.001564	0.001623	28.0934	0.110261	0.002038	54.1111	124.557	-166.819	0.105678	0.281943	-0.771011	-0.772266	0.006707	54.1111	-0.771104	-1.821043E+10	-3.682823E-13	NaN
70	1.000000	0.323203	7.36573e+06	-42139.1	955.818	-29784.3	0.000000	0.000000	6.322860	0.007493	NaN	0.000000	0.001606	0.001645	28.0936	0.045191	0.002028	22.2792	-63.9616	-165.773	-0.021734	0.321889	-0.731006	-0.732321	0.007493	22.2792	-0.731258	-5.223398E+9	-1.434509E-12	NaN
70	1.000000	0.363234	7.36573e+06	-42139.1	955.818	-29784.3	0.000000	0.000000	6.362889	-0.056950	NaN	0.000000	0.001566	0.001647	28.0937	0.079312	0.001995	39.763	27.4646	-166.171	-0.053422	0.361902	-0.690975	-0.692307	-0.056950	39.763	-0.689901	-1.424163E+9	3.998868E-11	NaN
70	1.000000	0.403237	7.36573e+06	-42139.1	955.818	-29784.3	0.000000	0.000000	6.402894	0.007951	NaN	0.000000	0.001603	0.001656	28.0929	0.161104	0.002043	78.8669	-176.717	-164.7	-0.035309	0.401927	-0.650972	-0.652282	0.007951	78.8669	-0.651048	-4.186022E+8	-1.899441E-11	NaN
70	1.000000	0.443251	7.36573e+06	-42139.1	955.818	-29784.3	0.000000	0.000000	6.442907	-0.018629	NaN	0.000000	0.001567	0.001650	28.0927	0.142591	0.001870	76.2433	53.6917	-167.718	0.030774	0.441968	-0.610958	-0.612241	-0.018629	76.2433	-0.610775	-1.171601E+8	1.590083E-10	NaN
70	1.000000	0.483266	7.36573e+06	-42139.1	955.819	-29784.3	0.000000	0.000000	6.482923	0.006692	NaN	0.000000	0.001585	0.001669	28.0908	0.075638	0.001819	41.5918	49.7164	-172.845	0.072194	0.481962	-0.570943	-0.572247	0.006692	41.5918	-0.571063	-3.321431E+7	-2.014691E-10	NaN
70	1.000000	0.523286	7.36573e+06	-42139.1	955.818	-29784.3	0.000000	0.000000	6.522942	-0.007791	NaN	0.000000	0.001602	0.001639	28.0917	0.053295	0.002001	26.6344	-100.322	-165.015	0.048141	0.521975	-0.530924	-0.532234	-0.007791	26.6344	-0.530704	-9.16971e+06	8.496501E-10	NaN
70	1.000000	0.563308	7.36573e+06	-42139.1	955.818	-29784.3	0.000000	0.000000	6.562962	-0.053411	NaN	0.000000	0.001561	0.001663	28.0914	0.014146	0.002019	7.005352	-142.953	-164.643	0.016447	0.562064	-0.490902	-0.492145	-0.053411	7.005352	-0.485183	-2.12841e+06	2.509426E-8	NaN
70	1.000000	0.603337	7.36573e+06	-42139.1	955.818	-29784.3	0.000000	0.000000	6.602994	-0.005200	NaN	0.000000	0.001529	0.001655	28.0926	0.033448	0.001954	17.1203	-131.849	-165.234	0.029512	0.602005	-0.450872	-0.452204	-0.005200	17.1203	-0.450644	-697294	7.457664E-9	NaN
70	1.000000	0.643383	7.36573e+06	-42139.1	955.819	-29784.3	0.000000	0.000000	6.643037	-0.064593	NaN	0.000000	0.001544	0.001650	28.0915	0.082347	0.001898	43.3928	-174.89	-167.426	-0.024644	0.642036	-0.410826	-0.412173	-0.064593	43.3928	-0.409710	-183771	3.514857E-7	NaN
70	1.000000	0.683338	7.36573e+06	-42139.1	955.818	-29784.3	0.000000	0.000000	6.682992	-0.057082	NaN	0.000000	0.001632	0.001677	28.0901	0.048425	0.002064	23.4593	162.216	-165.52	-0.077002	0.682068	-0.370871	-0.372142	-0.057082	23.4593	-0.369047	-48127.5	1.186064E-6	NaN
70	1.000000	0.723379	7.36573e+06	-42139.1	955.818	-29784.3	0.000000	0.000000	6.723036	-0.009125	NaN	0.000000	0.001579	0.001642	28.0899	0.138760	0.001987	69.8423	62.4167	-165.913	-0.014706	0.722111	-0.330830	-0.332099	-0.009125	69.8423	-0.330732	-13371.1	6.824596E-7	NaN
70	1.000000	0.763384	7.36573e+06	-42139.1	955.818	-29784.3	0.000000	0.000000	6.763041	0.022079	NaN	0.000000	0.001590	0.001657	28.0903	0.091759	0.001995	46.0058	96.288	-165.584	0.010839	0.762084	-0.290826	-0.292125	0.022079	46.0058	-0.291185	-3475.81	-6.352151E-6	NaN
70	1.000000	0.803431	7.36573e+06	-42139.1	955.817	-29784.4	0.000000	0.000000	6.803085	-0.063579	NaN	0.000000	0.001564	0.001661	28.0895	0.072375	0.002090	34.634	-37.9249	-162.41	-0.069190	0.802104	-0.250778	-0.252106	-0.063579	34.634	-0.249401	-804.832	7.899645E-5	NaN
70	1.000000	0.843438	7.36573e+06	-42139.1	955.819	-29784.4	0.000000	0.000000	6.843093	-0.028925	NaN	0.000000	0.001612	0.001659	28.0905	0.023533	0.001952	12.0558	8.008340	-167.202	0.067534	0.842087	-0.210771	-0.212122	-0.028925	12.0558	-0.208972	-184.569	0.000157	NaN
70	1.000000	0.883429	7.36573e+06	-42139.1	955.818	-29784.4	0.000000	0.000000	6.883086	0.003900	NaN	0.000000	0.001606	0.001673	28.0908	0.108832	0.002052	53.0301	-147.284	-165.603	-0.091773	0.882178	-0.170780	-0.172031	0.003900	53.0301	-0.170835	-42.4719	-9.182977E-5	NaN
70	1.000000	0.923493	7.36573e+06	-42139.1	955.818	-29784.4	0.000000	0.000000	6.923150	0.007689	NaN	0.000000	0.001647	0.001655	28.0916	0.125125	0.001840	68.0092	-107.385	-166.235	-0.029786	0.922187	-0.130716	-0.132022	0.007689	68.0092	-0.130801	-7.898566	-0.000973	NaN
70	1.000000	0.963480	7.36573e+06	-42139.1	955.818	-29784.4	0.000000	0.000000	6.963137	0.009088	NaN	0.000000	0.001584	0.001664	28.0888	0.109841	0.002057	53.4051	150.941	-165.184	0.053625	0.962206	-0.090729	-0.092003	0.009088	53.4051	-0.090857	-1.132060	-0.008027	NaN
70	1.000000	1.003509	7.36573e+06	-42139.1	955.819	-29784.4	0.000000	0.000000	7.003164	-0.042897	NaN	0.000000	0.001595	0.001682	28.0895	0.031871	0.002039	15.6325	5.411401	-164.535	-0.007518	1.002162	-0.050701	-0.052048	-0.042897	15.6325	-0.048642	-0.083002	0.516825	NaN
70	1.000000	1.043503	7.36573e+06	-42139.1	955.819	-29784.4	0.000000	0.000000	7.043158	-0.049159	NaN	0.000000	0.001562	0.001669	28.0893	0.162980	0.002047	79.6203	9.050352	-165.459	-0.044133	1.042161	-0.010706	-0.012049	-0.049159	79.6203	-0.010243	-0.006526	7.532553	NaN
70	2.000000	1.067007	7.36573e+06	-42139.1	955.818	-29784.4	0.000000	0.000000	7.067499	20.3026	NaN	0.000000	0.001572	0.001620	28.0888	16.3891	0.001750	9365.04	5.065711	-174.524	19.7834	1.066737	0.012798	0.012527	20.3026	9365.04	0.011172	0.010514	1931.08	83446.2
70	2.000000	1.076961	7.36573e+06	-42139.1	955.818	-29784.4	0.000000	0.000000	7.078383	42.9484	NaN	0.000000	0.001578	0.001693	28.09	26.9961	0.001873	14411.5	6.820304	-178.615	43.1036	1.076657	0.022752	0.022447	42.9484	14411.5	0.020517	0.023361	1838.48	86146.4
70	2.000000	1.086919	7.36573e+06	-42139.1	955.818	-29784.4	0.000000	0.000000	7.089434	69.5346	NaN	0.000000	0.001586	0.001635	28.0898	36.9338	0.001789	20641.9	5.632045	179.098	68.6702	1.086613	0.032710	0.032404	69.5346	20641.9	0.030183	0.041125	1690.81	92997.3
70	2.000000	1.096964	7.36573e+06	-42139.1	955.818	-29784.4	0.000000	0.000000	7.100983	106.158	NaN	0.000000	0.001533	0.001632	28.0894	46.2322	0.001772	26083.3	1.160926	-178.533	107.289	1.096586	0.042754	0.042377	106.158	26083.3	0.039702	0.063261	1678.11	94748
70	2.000000	1.106955	7.36573e+06	-42139.1	955.818	-29784.4	0.000000	0.000000	7.112852	151.858	NaN	0.000000	0.001578	0.001666	28.0889	57.4294	0.001809	31751.4	4.501463	176.265	152.6	1.106701	0.052745	0.052492	151.858	31751.4	0.049158	0.089829	1690.53	96789.5
70	2.000000	1.116868	7.36573e+06	-42139.1	955.819	-29784.4	0.000000	0.000000	7.125059	207.652	NaN	0.000000	0.001557	0.001642	28.0886	66.8161	0.001820	36713.5	6.197680	173.256	204.235	1.116612	0.062658	0.062403	207.652	36713.5	0.058416	0.120190	1727.69	96752.8
70	2.000000	1.126845	7.36573e+06	-42139.1	955.819	-29784.4	0.000000	0.000000	7.137673	271.822	NaN	0.000000	0.001566	0.001657	28.0881	77.1379	0.001825	42270	6.904426	170.843	269.072	1.126646	0.072635	0.072437	271.822	42270	0.067813	0.155303	1750.27	97997.5
70	2.000000	1.136924	7.36574e+06	-42139.1	955.818	-29784.4	0.000000	0.000000	7.150557	340.053	NaN	0.000000	0.001573	0.001664	28.0883	86.5547	0.001841	47016.8	4.541500	173.589	339.886	1.136539	0.082715	0.082330	340.053	47016.8	0.077290	0.195002	1743.85	97276.3
70	2.000000	1.146825	7.36574e+06	-42139.1	955.818	-29784.4	0.000000	0.000000	7.163801	421.388	NaN	0.000000	0.001582	0.001663	28.0898	95.2724	0.001804	52798.4	7.473432	169.709	419.797	1.146542	0.092616	0.092333	421.388	52798.4	0.086630	0.238240	1768.75	98829.5
70	2.000000	1.156841	7.36574e+06	-42139.1	955.819	-29784.4	0.000000	0.000000	7.177345	507.229	NaN	0.000000	0.001533	0.001714	28.0886	104.57	0.001886	55451.9	6.038740	171.041	504.781	1.156431	0.102632	0.102221	507.229	55451.9	0.095772	0.284453	1783.17	94991.4
70	2.000000	1.159850	7.36574e+06	-42139.1	955.818	-29784.4	0.000000	0.000000	7.181509	535.358	NaN	0.000000	0.001543	0.001750	28.1118	106.569	0.001726	61731.2	3.227308	173.257	534.735	1.159546	0.105641	0.105337	535.358	61731.2	0.099136	0.302424	1770.22	102558

File: 2025-07-22_16-23-58_1_71.txt
2025-07-22, 16:23:58, 1
Index	Phase	Displacement	Time	Pos X	Pos Y	Pos Z	Rot A	Rot B	Piezo Z	Force A	Force B	Gripper	Voltage A	Voltage B	Temperature	Amplitude force	Amplitude pos	Stiffness	Phase shift	Phase excitation	Force A raw	Displacement raw	HMax	HMax raw	Real Force	Real Stiffness	Contact Depth	Area	Hardness	Reduced Mod.
[#]	[#]	[um]	[s]	[um]	[um]	[um]	[m°]	[m°]	[um]	[uN]	[uN]	[V]	[V]	[V]	[°C]	[uN]	[um]	[N/m]	[°]	[°]	[uN]	[um]	[um]	[um]	[uN]	[N/m]	[um]	[um^2]	[MPa]	[MPa]
71	1.000000	0.002563	7.36574e+06	-42189.1	955.819	-29784.2	0.000000	0.000000	6.002796	-0.067438	NaN	0.000000	0.001689	0.001681	28.114	0.048220	0.000874	55.1848	157.379	-166.217	-0.142023	0.001346	-1.083657	-1.084873	-0.067438	55.1848	-1.082741	-2.939866E+14	2.293904E-16	NaN
71	1.000000	0.042545	7.36574e+06	-42189.1	955.818	-29784.2	0.000000	0.000000	6.042778	-0.078284	NaN	0.000000	0.001671	0.001645	28.1136	0.041391	0.002212	18.7116	-64.4282	-165.556	-0.087786	0.041233	-1.043675	-1.044987	-0.078284	18.7116	-1.040537	-7.965080E+13	9.828397E-16	NaN
71	1.000000	0.082566	7.36574e+06	-42189.1	955.818	-29784.2	0.000000	0.000000	6.082801	-0.035840	NaN	0.000000	0.001677	0.001731	28.1149	0.000830	0.002006	0.413599	-72.4281	-161.455	-0.064994	0.081213	-1.003654	-1.005006	-0.035840	0.413599	-0.938663	-3.381467E+12	1.059897E-14	NaN
71	1.000000	0.122529	7.36574e+06	-42189.1	955.818	-29784.2	0.000000	0.000000	6.122762	-0.101325	NaN	0.000000	0.001591	0.001697	28.1141	0.074776	0.002115	35.3499	-149.098	-165.72	-0.099380	0.121220	-0.963691	-0.965000	-0.101325	35.3499	-0.961541	-6.880850E+12	1.472566E-14	NaN
71	1.000000	0.162563	7.36574e+06	-42189.1	955.818	-29784.2	0.000000	0.000000	6.162799	-0.022495	NaN	0.000000	0.001633	0.001688	28.1146	0.019566	0.002041	9.584709	-49.7091	-162.991	-0.046327	0.161261	-0.923657	-0.924959	-0.022495	9.584709	-0.921897	-2.008219E+12	1.120130E-14	NaN
71	1.000000	0.202600	7.36574e+06	-42189.1	955.818	-29784.2	0.000000	0.000000	6.202834	-0.057794	NaN	0.000000	0.001592	0.001669	28.1124	0.004744	0.002058	2.304644	144.308	-165.359	-0.040264	0.201292	-0.883620	-0.884928	-0.057794	2.304644	-0.864812	-3.398228E+11	1.700698E-13	NaN
71	1.000000	0.242624	7.36574e+06	-42189.1	955.819	-29784.2	0.000000	0.000000	6.242858	-0.057138	NaN	0.000000	0.001622	0.001680	28.1142	0.099197	0.001908	52.0008	125.049	-163.959	-0.097418	0.241293	-0.843596	-0.844927	-0.057138	52.0008	-0.842772	-1.709390E+11	3.342589E-13	NaN
71	1.000000	0.282606	7.36574e+06	-42189.1	955.818	-29784.2	0.000000	0.000000	6.282841	-0.045730	NaN	0.000000	0.001608	0.001659	28.1136	0.112204	0.002056	54.5806	175.931	-168.323	-0.064202	0.281312	-0.803613	-0.804908	-0.045730	54.5806	-0.802985	-4.936033E+10	9.264497E-13	NaN
71	1.000000	0.322646	7.36574e+06	-42189.1	955.819	-29784.2	0.000000	0.000000	6.322879	-0.092464	NaN	0.000000	0.001557	0.001662	28.116	0.120156	0.001913	62.819	81.5185	-166.19	-0.119329	0.321336	-0.763574	-0.764884	-0.092464	62.819	-0.762470	-1.389636E+10	6.653826E-12	NaN
71	1.000000	0.362675	7.36574e+06	-42189.1	955.818	-29784.2	0.000000	0.000000	6.362908	-0.094892	NaN	0.000000	0.001587	0.001675	28.115	0.058283	0.001993	29.2473	111.952	-164.257	-0.072706	0.361300	-0.723544	-0.724920	-0.094892	29.2473	-0.721111	-3.798616E+9	2.498073E-11	NaN
71	1.000000	0.402699	7.36574e+06	-42189.1	955.818	-29784.2	0.000000	0.000000	6.402936	0.025402	NaN	0.000000	0.001571	0.001657	28.1162	0.106677	0.001974	54.0393	108.727	-168.52	0.005433	0.401322	-0.683521	-0.684898	0.025402	54.0393	-0.683874	-1.178085E+9	-2.156195E-11	NaN
71	1.000000	0.442661	7.36574e+06	-42189.1	955.818	-29784.2	0.000000	0.000000	6.442894	-0.087378	NaN	0.000000	0.001568	0.001600	28.1144	0.032123	0.001956	16.4265	-102.1	-165.018	-0.033046	0.441350	-0.643559	-0.644870	-0.087378	16.4265	-0.639570	-2.913286E+8	2.999284E-10	NaN
71	1.000000	0.482692	7.36574e+06	-42189.1	955.818	-29784.2	0.000000	0.000000	6.482926	-0.061239	NaN	0.000000	0.001644	0.001611	28.1153	0.069209	0.002071	33.4196	-57.4564	-165.782	-0.041458	0.481455	-0.603528	-0.604765	-0.061239	33.4196	-0.602153	-8.914870E+7	6.869278E-10	NaN
71	1.000000	0.522737	7.36574e+06	-42189.1	955.818	-29784.2	0.000000	0.000000	6.522971	-0.060160	NaN	0.000000	0.001624	0.001645	28.1147	0.096574	0.002173	44.4432	126.197	-164.062	-0.010874	0.521384	-0.563483	-0.564836	-0.060160	44.4432	-0.562468	-2.526472E+7	2.381176E-9	NaN
71	1.000000	0.562750	7.36574e+06	-42189.1	955.819	-29784.2	0.000000	0.000000	6.562983	-0.084164	NaN	0.000000	0.001587	0.001659	28.1157	0.050255	0.002160	23.2705	69.6766	-166.852	-0.148842	0.561452	-0.523470	-0.524768	-0.084164	23.2705	-0.520757	-6.67001e+06	1.261828E-8	NaN
71	1.000000	0.602737	7.36574e+06	-42189.1	955.819	-29784.2	0.000000	0.000000	6.602969	-0.131230	NaN	0.000000	0.001580	0.001643	28.1165	0.123638	0.002132	57.9972	-37.8155	-166.877	-0.161983	0.601434	-0.483482	-0.484786	-0.131230	57.9972	-0.481785	-1.90774e+06	6.878834E-8	NaN
71	1.000000	0.642795	7.36574e+06	-42189.1	955.818	-29784.2	0.000000	0.000000	6.643030	-0.037510	NaN	0.000000	0.001600	0.001651	28.1182	0.127724	0.002070	61.6894	-11.4446	-165.376	-0.043976	0.641503	-0.443425	-0.444717	-0.037510	61.6894	-0.442969	-543566	6.900720E-8	NaN
71	1.000000	0.682795	7.36574e+06	-42189.1	955.819	-29784.2	0.000000	0.000000	6.683029	-0.047605	NaN	0.000000	0.001578	0.001666	28.1163	0.161281	0.002116	76.2276	-143.274	-164.352	-0.124470	0.681485	-0.403425	-0.404734	-0.047605	76.2276	-0.402957	-147280	3.232314E-7	NaN
71	1.000000	0.722777	7.36574e+06	-42189.1	955.818	-29784.2	0.000000	0.000000	6.723012	-0.037754	NaN	0.000000	0.001586	0.001657	28.1172	0.101354	0.002022	50.1312	47.9813	-165.98	-0.046258	0.721498	-0.363443	-0.364722	-0.037754	50.1312	-0.362878	-39212.6	9.628029E-7	NaN
71	1.000000	0.762810	7.36574e+06	-42189.1	955.818	-29784.2	0.000000	0.000000	6.763046	-0.019053	NaN	0.000000	0.001632	0.001679	28.1162	0.069231	0.001881	36.8065	-175.011	-166.11	-0.040686	0.761484	-0.323410	-0.324736	-0.019053	36.8065	-0.323022	-10305.7	1.848772E-6	NaN
71	1.000000	0.802833	7.36574e+06	-42189.1	955.819	-29784.2	0.000000	0.000000	6.803067	-0.052191	NaN	0.000000	0.001656	0.001698	28.1175	0.191629	0.002112	90.7398	-130.099	-164.544	0.039821	0.801563	-0.283387	-0.284657	-0.052191	90.7398	-0.282956	-2615.26	1.995652E-5	NaN
71	1.000000	0.842848	7.36574e+06	-42189.1	955.818	-29784.2	0.000000	0.000000	6.843083	-0.050297	NaN	0.000000	0.001653	0.001634	28.1158	0.026966	0.001912	14.1016	-169.268	-166.312	-0.041640	0.841558	-0.243371	-0.244662	-0.050297	14.1016	-0.240696	-589.42	8.533247E-5	NaN
71	1.000000	0.882845	7.36574e+06	-42189.1	955.818	-29784.2	0.000000	0.000000	6.883079	-0.053517	NaN	0.000000	0.001589	0.001683	28.1184	0.064292	0.002066	31.1215	-39.0781	-165.359	-0.066573	0.881589	-0.203375	-0.204631	-0.053517	31.1215	-0.202085	-142.533	0.000375	NaN
71	1.000000	0.922872	7.36574e+06	-42189.1	955.818	-29784.2	0.000000	0.000000	6.923105	-0.099284	NaN	0.000000	0.001583	0.001637	28.1172	0.057703	0.001913	30.1607	-147.947	-166.781	-0.076238	0.921590	-0.163347	-0.164629	-0.099284	30.1607	-0.160878	-28.4171	0.003494	NaN
71	1.000000	0.962917	7.36574e+06	-42189.1	955.818	-29784.2	0.000000	0.000000	6.963152	-0.038765	NaN	0.000000	0.001680	0.001703	28.1192	0.138445	0.001962	70.5466	139.911	-165.736	-0.108605	0.961614	-0.123302	-0.124606	-0.038765	70.5466	-0.122890	-5.521757	0.007020	NaN
71	1.000000	1.002916	7.36574e+06	-42189.1	955.818	-29784.2	0.000000	0.000000	7.003151	-0.032835	NaN	0.000000	0.001640	0.001660	28.1174	0.062306	0.001931	32.2718	23.758	-165.968	-0.034424	1.001621	-0.083304	-0.084599	-0.032835	32.2718	-0.082541	-0.715620	0.045884	NaN
71	1.000000	1.042939	7.36574e+06	-42189.1	955.818	-29784.2	0.000000	0.000000	7.043173	-0.056144	NaN	0.000000	0.001567	0.001691	28.1183	0.042822	0.001905	22.4813	-90.187	-166.542	-0.082840	1.041691	-0.043281	-0.044529	-0.056144	22.4813	-0.041408	-0.049913	1.124840	NaN
71	1.000000	1.082964	7.36574e+06	-42189.1	955.819	-29784.2	0.000000	0.000000	7.083196	-0.115013	NaN	0.000000	0.001577	0.001623	28.1173	0.041241	0.002013	20.4879	7.975072	-167.389	-0.113047	1.081643	-0.003256	-0.004577	-0.115013	20.4879	0.000954	0.000726	-158.319	694.487
71	2.000000	1.101507	7.36574e+06	-42189.1	955.819	-29784.2	0.000000	0.000000	7.102598	20.7884	NaN	0.000000	0.001540	0.001684	28.1194	16.8618	0.001915	8806.01	6.207362	-175.147	20.5721	1.101210	0.015288	0.014990	20.7884	8806.01	0.013517	0.013358	1556.19	69610.4
71	2.000000	1.111465	7.36574e+06	-42189.1	955.819	-29784.2	0.000000	0.000000	7.113544	44.8311	NaN	0.000000	0.001583	0.001729	28.1191	26.1655	0.001713	15278.8	3.507336	-178.63	44.7998	1.111097	0.025245	0.024877	44.8311	15278.8	0.023045	0.027554	1627.03	84095.1
71	2.000000	1.121473	7.36574e+06	-42189.1	955.819	-29784.2	0.000000	0.000000	7.124870	76.8777	NaN	0.000000	0.001559	0.001699	28.1199	36.6599	0.001681	21806.1	4.229237	177.925	78.1025	1.121189	0.035254	0.034969	76.8777	21806.1	0.032610	0.046326	1659.49	92563.1
71	2.000000	1.131454	7.36574e+06	-42189.1	955.817	-29784.2	0.000000	0.000000	7.136443	115.627	NaN	0.000000	0.001515	0.001685	28.1192	45.9358	0.001877	24479.2	7.038341	174.649	117.747	1.131165	0.045234	0.044945	115.627	24479.2	0.041692	0.068473	1688.64	85469.1
71	2.000000	1.141395	7.36574e+06	-42189.1	955.818	-29784.2	0.000000	0.000000	7.148144	158.453	NaN	0.000000	0.001535	0.001665	28.1191	54.7614	0.001865	29360.4	3.924419	176.349	156.667	1.141070	0.055175	0.054851	158.453	29360.4	0.051128	0.095930	1651.75	86607.8
71	2.000000	1.151493	7.36574e+06	-42189.1	955.818	-29784.2	0.000000	0.000000	7.160276	207.937	NaN	0.000000	0.001523	0.001703	28.1182	63.6979	0.001759	36212.6	3.190481	175.375	213.544	1.151197	0.065273	0.064977	207.937	36212.6	0.060967	0.129297	1608.21	92010.6
71	2.000000	1.161358	7.36574e+06	-42189.1	955.818	-29784.2	0.000000	0.000000	7.173059	278.947	NaN	0.000000	0.001618	0.001677	28.1195	73.7095	0.001800	40950	5.298173	172.25	276.854	1.160958	0.075138	0.074738	278.947	40950	0.070029	0.164207	1698.75	92327.5
71	2.000000	1.171423	7.36574e+06	-42189.1	955.818	-29784.2	0.000000	0.000000	7.186067	350.546	NaN	0.000000	0.001558	0.001692	28.1204	83.9943	0.001919	43779.8	5.003382	172.45	352.388	1.171037	0.085203	0.084818	350.546	43779.8	0.079198	0.203503	1722.56	88667
71	2.000000	1.181345	7.36574e+06	-42189.1	955.818	-29784.2	0.000000	0.000000	7.198600	414.081	NaN	0.000000	0.001633	0.001695	28.122	94.3205	0.001808	52166.3	6.135461	169.198	411.987	1.181174	0.095125	0.094955	414.081	52166.3	0.089172	0.250702	1651.68	95188.4
71	2.000000	1.191318	7.36575e+06	-42189.1	955.819	-29784.2	0.000000	0.000000	7.212097	499.827	NaN	0.000000	0.001565	0.001727	28.1218	100.742	0.001667	60431.7	4.682027	170.223	496.759	1.190976	0.105098	0.104756	499.827	60431.7	0.098895	0.301117	1659.91	100617
71	2.000000	1.192832	7.36575e+06	-42189.1	955.818	-29784.2	0.000000	0.000000	7.213973	508.645	NaN	0.000000	0.001574	0.001695	28.1198	102.16	0.001846	55333.9	5.629251	-10.4429	503.706	1.192483	0.106612	0.106263	508.645	55333.9	0.099718	0.305580	1664.52	91453.9