Folder: unikorn_login/remote_trans/data/nanoindenter/0828-1/data/Data_2025-08-06,11h17m57s (part 41)

File: 2025-07-22_16-23-58_1_80.txt
2025-07-22, 16:23:58, 1
Index	Phase	Displacement	Time	Pos X	Pos Y	Pos Z	Rot A	Rot B	Piezo Z	Force A	Force B	Gripper	Voltage A	Voltage B	Temperature	Amplitude force	Amplitude pos	Stiffness	Phase shift	Phase excitation	Force A raw	Displacement raw	HMax	HMax raw	Real Force	Real Stiffness	Contact Depth	Area	Hardness	Reduced Mod.
[#]	[#]	[um]	[s]	[um]	[um]	[um]	[m°]	[m°]	[um]	[uN]	[uN]	[V]	[V]	[V]	[°C]	[uN]	[um]	[N/m]	[°]	[°]	[uN]	[um]	[um]	[um]	[uN]	[N/m]	[um]	[um^2]	[MPa]	[MPa]
80	1.000000	0.002399	7.36582e+06	-42639.1	955.818	-29782.6	0.000000	0.000000	6.002823	-0.060500	NaN	0.000000	0.001717	0.001671	28.0861	0.075816	0.001022	74.1645	173.141	-164.168	-0.099499	0.001173	-1.095886	-1.097112	-0.060500	74.1645	-1.095274	-4.331337E+14	1.396800E-16	NaN
80	1.000000	0.044324	7.36582e+06	-42639.1	955.818	-29782.6	0.000000	0.000000	6.044752	0.048652	NaN	0.000000	0.001639	0.001669	28.1264	0.072837	0.001990	36.6058	-98.9216	13.1464	0.069441	0.042967	-1.053961	-1.055318	0.048652	36.6058	-1.054958	-1.244667E+14	-3.908843E-16	NaN
80	1.000000	0.086346	7.36582e+06	-42639.1	955.818	-29782.6	0.000000	0.000000	6.086775	0.061415	NaN	0.000000	0.001601	0.001621	28.1105	0.042846	0.001879	22.8006	-146.651	-163.059	0.022160	0.085019	-1.011939	-1.013266	0.061415	22.8006	-1.013959	-3.496761E+13	-1.756348E-15	NaN
80	1.000000	0.128351	7.36582e+06	-42639.1	955.818	-29782.6	0.000000	0.000000	6.128776	-0.017468	NaN	0.000000	0.001593	0.001701	28.0815	0.110286	0.002028	54.3786	-12.1466	14.0599	0.097754	0.127012	-0.969934	-0.971273	-0.017468	54.3786	-0.969693	-8.862004E+12	1.971139E-15	NaN
80	1.000000	0.170372	7.36582e+06	-42639.1	955.818	-29782.6	0.000000	0.000000	6.170798	-0.023231	NaN	0.000000	0.001582	0.001732	28.0877	0.125882	0.001957	64.3143	87.865	-165.952	-0.009117	0.169034	-0.927913	-0.929251	-0.023231	64.3143	-0.927642	-2.400869E+12	9.675978E-15	NaN
80	1.000000	0.212411	7.36582e+06	-42639.1	955.818	-29782.6	0.000000	0.000000	6.212839	0.044273	NaN	0.000000	0.001666	0.001680	28.1256	0.085916	0.001893	45.3791	119.427	9.833307	0.004665	0.211014	-0.885874	-0.887271	0.044273	45.3791	-0.886605	-6.699221E+11	-6.608714E-14	NaN
80	1.000000	0.254416	7.36582e+06	-42639.1	955.818	-29782.6	0.000000	0.000000	6.254843	0.012391	NaN	0.000000	0.001651	0.001654	28.1118	0.013839	0.002083	6.644262	87.9124	-164.288	0.044213	0.253144	-0.843869	-0.845141	0.012391	6.644262	-0.845268	-1.847773E+11	-6.705726E-14	NaN
80	1.000000	0.296445	7.36582e+06	-42639.1	955.819	-29782.6	0.000000	0.000000	6.296872	0.019452	NaN	0.000000	0.001612	0.001650	28.0794	0.078279	0.001995	39.23	-169.111	13.6423	0.023561	0.295021	-0.801840	-0.803264	0.019452	39.23	-0.802212	-4.818277E+10	-4.037194E-13	NaN
80	1.000000	0.338463	7.36582e+06	-42639.1	955.818	-29782.6	0.000000	0.000000	6.338890	0.021423	NaN	0.000000	0.001630	0.001621	28.0847	0.020859	0.002035	10.2501	-55.4905	-170.021	0.019409	0.337134	-0.759822	-0.761151	0.021423	10.2501	-0.761390	-1.343401E+10	-1.594663E-12	NaN
80	1.000000	0.380447	7.36582e+06	-42639.1	955.818	-29782.6	0.000000	0.000000	6.380871	-0.035825	NaN	0.000000	0.001617	0.001612	28.1246	0.092392	0.002095	44.0973	-57.4518	14.6584	-0.071445	0.379122	-0.717838	-0.719163	-0.035825	44.0973	-0.717229	-3.362648E+9	1.065377E-11	NaN
80	1.000000	0.422464	7.36582e+06	-42639.1	955.818	-29782.6	0.000000	0.000000	6.422891	0.034986	NaN	0.000000	0.001579	0.001677	28.1133	0.031270	0.001929	16.2142	46.7682	-161.853	0.008359	0.421183	-0.675822	-0.677102	0.034986	16.2142	-0.677440	-9.620306E+8	-3.636731E-11	NaN
80	1.000000	0.464485	7.36582e+06	-42639.1	955.818	-29782.6	0.000000	0.000000	6.464911	0.011020	NaN	0.000000	0.001589	0.001651	28.0809	0.072459	0.002029	35.7033	167.245	14.1761	0.028639	0.463104	-0.633800	-0.635181	0.011020	35.7033	-0.634032	-2.445586E+8	-4.505998E-11	NaN
80	1.000000	0.506492	7.36582e+06	-42639.1	955.818	-29782.6	0.000000	0.000000	6.506922	0.090572	NaN	0.000000	0.001610	0.001649	28.085	0.022568	0.001988	11.352	-84.7252	-163.215	-0.022883	0.505173	-0.591793	-0.593112	0.090572	11.352	-0.597777	-7.759638E+7	-1.167219E-9	NaN
80	1.000000	0.548574	7.36582e+06	-42639.1	955.819	-29782.6	0.000000	0.000000	6.548999	-0.043961	NaN	0.000000	0.001598	0.001628	28.1227	0.070397	0.001993	35.3306	82.231	13.6931	-0.051911	0.547127	-0.549711	-0.551158	-0.043961	35.3306	-0.548777	-1.633133E+7	2.691832E-9	NaN
80	1.000000	0.590551	7.36582e+06	-42639.1	955.82	-29782.6	0.000000	0.000000	6.590975	-0.033907	NaN	0.000000	0.001614	0.001684	28.1121	0.031374	0.001989	15.7729	-145.981	-168.151	-0.012720	0.589267	-0.507735	-0.509018	-0.033907	15.7729	-0.506122	-4.17241e+06	8.126582E-9	NaN
80	1.000000	0.632587	7.36583e+06	-42639.1	955.817	-29782.6	0.000000	0.000000	6.633014	0.013452	NaN	0.000000	0.001579	0.001702	28.0815	0.089136	0.001908	46.7098	-107.639	13.3907	0.029343	0.631209	-0.465698	-0.467076	0.013452	46.7098	-0.465914	-1.14309e+06	-1.176803E-8	NaN
80	1.000000	0.674624	7.36583e+06	-42639.1	955.818	-29782.6	0.000000	0.000000	6.675051	0.015106	NaN	0.000000	0.001676	0.001675	28.0854	0.060523	0.001936	31.2681	176.715	-164.146	-0.007814	0.673245	-0.423661	-0.425040	0.015106	31.2681	-0.424023	-293390	-5.148917E-8	NaN
80	1.000000	0.716581	7.36583e+06	-42639.1	955.818	-29782.6	0.000000	0.000000	6.717004	-0.072420	NaN	0.000000	0.001681	0.001668	28.1244	0.052178	0.001944	26.841	-66.4097	13.2867	0.047479	0.715285	-0.381704	-0.383000	-0.072420	26.841	-0.379681	-68439.8	1.058161E-6	NaN
80	1.000000	0.758639	7.36583e+06	-42639.1	955.819	-29782.6	0.000000	0.000000	6.759066	0.010983	NaN	0.000000	0.001635	0.001642	28.1148	0.035151	0.001882	18.6732	121.516	-166.13	0.050418	0.757332	-0.339646	-0.340953	0.010983	18.6732	-0.340087	-18315.7	-5.996596E-7	NaN
80	1.000000	0.800661	7.36583e+06	-42639.1	955.819	-29782.6	0.000000	0.000000	6.801087	-0.008763	NaN	0.000000	0.001605	0.001673	28.08	0.088776	0.001958	45.3432	80.7106	16.8355	0.030664	0.799283	-0.297624	-0.299002	-0.008763	45.3432	-0.297479	-4315.97	2.030329E-6	NaN
80	1.000000	0.842656	7.36583e+06	-42639.1	955.818	-29782.6	0.000000	0.000000	6.843081	-0.017640	NaN	0.000000	0.001628	0.001680	28.0838	0.067559	0.002067	32.6776	-178.727	-167.356	-0.019688	0.841328	-0.255629	-0.256957	-0.017640	32.6776	-0.255224	-989.852	1.782063E-5	NaN
80	1.000000	0.884669	7.36583e+06	-42639.1	955.818	-29782.6	0.000000	0.000000	6.885094	-0.021275	NaN	0.000000	0.001683	0.001705	28.1225	0.071528	0.001929	37.0778	-134.895	13.9499	0.044444	0.883267	-0.213616	-0.215018	-0.021275	37.0778	-0.213186	-215.923	9.853035E-5	NaN
80	1.000000	0.926707	7.36583e+06	-42639.1	955.818	-29782.6	0.000000	0.000000	6.927135	0.026503	NaN	0.000000	0.001670	0.001690	28.1151	0.075955	0.002017	37.6555	-112.632	-165.65	0.012285	0.925411	-0.171578	-0.172874	0.026503	37.6555	-0.172106	-44.6784	-0.000593	NaN
80	1.000000	0.968702	7.36583e+06	-42639.1	955.818	-29782.6	0.000000	0.000000	6.969128	-0.005654	NaN	0.000000	0.001682	0.001712	28.0827	0.079948	0.002010	39.7676	32.4864	15.4746	0.021928	0.967322	-0.129583	-0.130963	-0.005654	39.7676	-0.129476	-7.444402	0.000760	NaN
80	1.000000	1.010734	7.36583e+06	-42639.1	955.818	-29782.6	0.000000	0.000000	7.011158	-0.062021	NaN	0.000000	0.001624	0.001699	28.0842	0.147223	0.002035	72.3549	-81.3679	-167.242	-0.005799	1.009467	-0.087551	-0.088818	-0.062021	72.3549	-0.086908	-0.913240	0.067913	NaN
80	1.000000	1.052754	7.36583e+06	-42639.1	955.819	-29782.6	0.000000	0.000000	7.053180	-0.002260	NaN	0.000000	0.001620	0.001691	28.1209	0.084883	0.001868	45.4404	-53.2501	15.1197	-0.100778	1.051378	-0.045531	-0.046907	-0.002260	45.4404	-0.045494	-0.066541	0.033962	NaN
80	1.000000	1.094775	7.36583e+06	-42639.1	955.819	-29782.6	0.000000	0.000000	7.095200	-0.013008	NaN	0.000000	0.001633	0.001617	28.1135	0.028883	0.002087	13.8403	-134.053	-167.781	-0.041419	1.093429	-0.003510	-0.004856	-0.013008	13.8403	-0.002805	-0.001990	6.537372	NaN
80	2.000000	1.115750	7.36583e+06	-42639.1	955.818	-29782.6	0.000000	0.000000	7.116920	18.0924	NaN	0.000000	0.001665	0.001687	28.0807	16.7815	0.001951	8601.83	12.5047	-0.721986	18.3577	1.115393	0.017465	0.017108	18.0924	8601.83	0.015888	0.016488	1097.33	61204.7
80	2.000000	1.126188	7.36583e+06	-42639.1	955.818	-29782.6	0.000000	0.000000	7.128468	45.123	NaN	0.000000	0.001664	0.001696	28.0826	27.0886	0.001721	15742.9	6.097548	178.309	43.3718	1.125901	0.027903	0.027616	45.123	15742.9	0.025753	0.032400	1392.7	79907.8
80	2.000000	1.136643	7.36583e+06	-42639.1	955.818	-29782.6	0.000000	0.000000	7.140137	74.6292	NaN	0.000000	0.001584	0.001706	28.1219	36.3209	0.001793	20254.3	2.141691	0.778255	72.3175	1.136342	0.038358	0.038057	74.6292	20254.3	0.035595	0.053139	1404.41	80275.3
80	2.000000	1.147195	7.36583e+06	-42639.1	955.818	-29782.6	0.000000	0.000000	7.152454	117.584	NaN	0.000000	0.001574	0.001693	28.1164	46.1644	0.001721	26831.1	3.568868	177.743	117.089	1.146810	0.048910	0.048525	117.584	26831.1	0.045623	0.079366	1481.55	87015.4
80	2.000000	1.157731	7.36583e+06	-42639.1	955.818	-29782.6	0.000000	0.000000	7.164834	162.465	NaN	0.000000	0.001578	0.001693	28.082	57.0762	0.001758	32463.2	1.058635	-2.417220	163.709	1.157406	0.059446	0.059121	162.465	32463.2	0.055692	0.110816	1466.08	89097.1
80	2.000000	1.168168	7.36583e+06	-42639.1	955.819	-29782.6	0.000000	0.000000	7.177975	228.239	NaN	0.000000	0.001616	0.001645	28.0828	67.9203	0.001708	39776.8	3.502632	173.757	225.906	1.167822	0.069883	0.069537	228.239	39776.8	0.065579	0.146571	1557.19	94924.5
80	2.000000	1.178591	7.36583e+06	-42639.1	955.82	-29782.6	0.000000	0.000000	7.191021	292.06	NaN	0.000000	0.001617	0.001675	28.1206	79.2297	0.001813	43708.6	4.749643	-7.850420	289.753	1.178225	0.080306	0.079940	292.06	43708.6	0.075295	0.186291	1567.76	92521.7
80	2.000000	1.189019	7.36583e+06	-42639.1	955.82	-29782.6	0.000000	0.000000	7.204441	364.84	NaN	0.000000	0.001555	0.001670	28.1162	87.1967	0.001862	46836.3	1.662828	174.539	360.172	1.188835	0.090734	0.090550	364.84	46836.3	0.084892	0.229887	1587.04	89247.9
80	2.000000	1.199569	7.36583e+06	-42639.1	955.82	-29782.6	0.000000	0.000000	7.218630	453.399	NaN	0.000000	0.001580	0.001630	28.0815	97.1473	0.001843	52719.2	5.899684	-10.0362	448.399	1.199245	0.101284	0.100960	453.399	52719.2	0.094834	0.279536	1621.97	91101
80	2.000000	1.206999	7.36583e+06	-42639.1	955.819	-29782.6	0.000000	0.000000	7.228746	518.749	NaN	0.000000	0.001641	0.001648	28.1173	102.522	0.001839	55744.7	4.972138	170.4	512.06	1.206742	0.108714	0.108457	518.749	55744.7	0.101734	0.316651	1638.24	90507.9

File: 2025-07-22_16-23-58_1_100.txt
2025-07-22, 16:23:58, 1
Index	Phase	Displacement	Time	Pos X	Pos Y	Pos Z	Rot A	Rot B	Piezo Z	Force A	Force B	Gripper	Voltage A	Voltage B	Temperature	Amplitude force	Amplitude pos	Stiffness	Phase shift	Phase excitation	Force A raw	Displacement raw	HMax	HMax raw	Real Force	Real Stiffness	Contact Depth	Area	Hardness	Reduced Mod.
[#]	[#]	[um]	[s]	[um]	[um]	[um]	[m°]	[m°]	[um]	[uN]	[uN]	[V]	[V]	[V]	[°C]	[uN]	[um]	[N/m]	[°]	[°]	[uN]	[um]	[um]	[um]	[uN]	[N/m]	[um]	[um^2]	[MPa]	[MPa]
100	1.000000	0.002419	7.36602e+06	-43639.1	955.818	-29778.9	0.000000	0.000000	6.002833	-0.029603	NaN	0.000000	0.001657	0.001603	28.093	0.065779	0.000963	68.3263	-168.496	-164.463	0.030964	0.001115	-1.074832	-1.076136	-0.029603	68.3263	-1.074507	-2.278938E+14	1.298981E-16	NaN
100	1.000000	0.042345	7.36602e+06	-43639.1	955.819	-29778.9	0.000000	0.000000	6.042760	-0.009187	NaN	0.000000	0.001602	0.001666	28.0914	0.024891	0.001802	13.8155	151.599	-166.658	0.047780	0.041059	-1.034906	-1.036192	-0.009187	13.8155	-1.034407	-6.588080E+13	1.394489E-16	NaN
100	1.000000	0.082353	7.36602e+06	-43639.1	955.818	-29778.9	0.000000	0.000000	6.082765	-0.074026	NaN	0.000000	0.001613	0.001659	28.0913	0.112381	0.002026	55.479	81.4165	-164.655	-0.050045	0.081086	-0.994898	-0.996165	-0.074026	55.479	-0.993897	-1.877578E+13	3.942632E-15	NaN
100	1.000000	0.122398	7.36602e+06	-43639.1	955.818	-29778.9	0.000000	0.000000	6.122814	0.018931	NaN	0.000000	0.001559	0.001675	28.0902	0.088988	0.001961	45.3696	177.861	-163.389	-0.042631	0.121061	-0.954853	-0.956191	0.018931	45.3696	-0.955166	-5.645379E+12	-3.353412E-15	NaN
100	1.000000	0.162389	7.36602e+06	-43639.1	955.818	-29778.9	0.000000	0.000000	6.162804	0.011868	NaN	0.000000	0.001593	0.001653	28.0923	0.068878	0.002034	33.8636	-30.6095	-161.84	0.083048	0.161112	-0.914862	-0.916139	0.011868	33.8636	-0.915125	-1.626977E+12	-7.294355E-15	NaN
100	1.000000	0.202411	7.36602e+06	-43639.1	955.818	-29778.9	0.000000	0.000000	6.202824	-0.055542	NaN	0.000000	0.001584	0.001694	28.0917	0.027606	0.002078	13.2829	55.8667	-166.8	-0.090858	0.201093	-0.874840	-0.876158	-0.055542	13.2829	-0.871704	-4.212039E+11	1.318653E-13	NaN
100	1.000000	0.242424	7.36602e+06	-43639.1	955.818	-29778.9	0.000000	0.000000	6.242837	-0.062708	NaN	0.000000	0.001585	0.001680	28.0943	0.039132	0.001951	20.0553	-2.886366	-165.708	-0.083229	0.241134	-0.834827	-0.836117	-0.062708	20.0553	-0.832482	-1.239990E+11	5.057104E-13	NaN
100	1.000000	0.282438	7.36602e+06	-43639.1	955.817	-29778.9	0.000000	0.000000	6.282852	-0.019522	NaN	0.000000	0.001601	0.001658	28.0924	0.071646	0.002073	34.5676	-135.842	-163.918	-0.069074	0.281096	-0.794813	-0.796155	-0.019522	34.5676	-0.794390	-3.773092E+10	5.174004E-13	NaN
100	1.000000	0.322465	7.36602e+06	-43639.1	955.818	-29778.9	0.000000	0.000000	6.322879	-0.014739	NaN	0.000000	0.001566	0.001668	28.0941	0.050739	0.002021	25.1001	107.952	-168.469	-0.058684	0.321159	-0.754786	-0.756092	-0.014739	25.1001	-0.754346	-1.077384E+10	1.368049E-12	NaN
100	1.000000	0.362485	7.36602e+06	-43639.1	955.818	-29778.9	0.000000	0.000000	6.362900	0.007494	NaN	0.000000	0.001576	0.001667	28.0919	0.076542	0.001977	38.7246	9.927810	-159.706	0.076103	0.361098	-0.714766	-0.716153	0.007494	38.7246	-0.714911	-3.126540E+9	-2.396983E-12	NaN
100	1.000000	0.402497	7.36602e+06	-43639.1	955.818	-29778.9	0.000000	0.000000	6.402913	0.036593	NaN	0.000000	0.001529	0.001683	28.0917	0.085210	0.002132	39.9603	95.831	-166.053	0.027030	0.401192	-0.674754	-0.676059	0.036593	39.9603	-0.675441	-9.033253E+8	-4.050909E-11	NaN
100	1.000000	0.442485	7.36602e+06	-43639.1	955.818	-29778.9	0.000000	0.000000	6.442902	0.043915	NaN	0.000000	0.001572	0.001689	28.0929	0.100675	0.001935	52.0174	-137.766	-165.705	-0.004613	0.441172	-0.634766	-0.636079	0.043915	52.0174	-0.635399	-2.553564E+8	-1.719764E-10	NaN
100	1.000000	0.482537	7.36602e+06	-43639.1	955.818	-29778.9	0.000000	0.000000	6.482951	-0.033880	NaN	0.000000	0.001610	0.001665	28.0929	0.034618	0.002029	17.059	-62.4633	-167.205	0.022966	0.481244	-0.594714	-0.596008	-0.033880	17.059	-0.593224	-6.715969E+7	5.044624E-10	NaN
100	1.000000	0.522542	7.36602e+06	-43639.1	955.817	-29778.9	0.000000	0.000000	6.522958	0.030501	NaN	0.000000	0.001559	0.001672	28.0937	0.136663	0.001829	74.703	-114.555	-164.627	0.035072	0.521236	-0.554710	-0.556015	0.030501	74.703	-0.555016	-1.992539E+7	-1.530758E-9	NaN
100	1.000000	0.562570	7.36602e+06	-43639.1	955.819	-29778.9	0.000000	0.000000	6.562983	-0.032767	NaN	0.000000	0.001541	0.001643	28.0953	0.023873	0.002004	11.9139	-145.635	-166.739	-0.028969	0.561220	-0.514681	-0.516031	-0.032767	11.9139	-0.512619	-5.13907e+06	6.375965E-9	NaN
100	1.000000	0.602587	7.36602e+06	-43639.1	955.818	-29778.9	0.000000	0.000000	6.603002	0.007767	NaN	0.000000	0.001559	0.001645	28.0938	0.132111	0.001972	66.9771	99.243	-167.009	0.041527	0.601295	-0.474664	-0.475956	0.007767	66.9771	-0.474751	-1.5206e+06	-5.107704E-9	NaN
100	1.000000	0.642579	7.36602e+06	-43639.1	955.818	-29778.9	0.000000	0.000000	6.642996	0.041386	NaN	0.000000	0.001542	0.001647	28.0941	0.011614	0.001980	5.866010	-22.8105	-166.69	-0.023447	0.641234	-0.434672	-0.436017	0.041386	5.866010	-0.439963	-492998	-8.394801E-8	NaN
100	1.000000	0.682599	7.36602e+06	-43639.1	955.818	-29778.9	0.000000	0.000000	6.683013	-0.020712	NaN	0.000000	0.001567	0.001662	28.0931	0.005074	0.001991	2.548809	-10.2175	-160.877	-0.069006	0.681266	-0.394652	-0.395986	-0.020712	2.548809	-0.388557	-91732.7	2.257862E-7	NaN
100	1.000000	0.722632	7.36602e+06	-43639.1	955.818	-29778.9	0.000000	0.000000	6.723049	0.040953	NaN	0.000000	0.001563	0.001641	28.0949	0.028016	0.001982	14.1324	120.117	-162.076	0.060571	0.721308	-0.354619	-0.355943	0.040953	14.1324	-0.356793	-32022.2	-1.278903E-6	NaN
100	1.000000	0.762631	7.36602e+06	-43639.1	955.819	-29778.9	0.000000	0.000000	6.763049	0.063948	NaN	0.000000	0.001568	0.001678	28.0958	0.062526	0.001897	32.9613	77.9451	-168.828	0.042509	0.761344	-0.314620	-0.315907	0.063948	32.9613	-0.316075	-8143.47	-7.852670E-6	NaN
100	1.000000	0.802639	7.36602e+06	-43639.1	955.819	-29778.9	0.000000	0.000000	6.803055	0.021252	NaN	0.000000	0.001553	0.001682	28.0955	0.034154	0.002004	17.0467	133.505	-167.149	-0.000529	0.801312	-0.274612	-0.275939	0.021252	17.0467	-0.275547	-2021.53	-1.051305E-5	NaN
100	1.000000	0.842658	7.36602e+06	-43639.1	955.817	-29778.9	0.000000	0.000000	6.843073	-0.002228	NaN	0.000000	0.001598	0.001687	28.0957	0.056779	0.001967	28.8625	136.828	-161.945	0.070529	0.841385	-0.234593	-0.235866	-0.002228	28.8625	-0.234535	-472.002	4.720172E-6	NaN
100	1.000000	0.882676	7.36602e+06	-43639.1	955.818	-29778.9	0.000000	0.000000	6.883088	-0.075155	NaN	0.000000	0.001567	0.001667	28.0967	0.010690	0.002043	5.232964	94.7467	-166.852	-0.083088	0.881375	-0.194575	-0.195876	-0.075155	5.232964	-0.183803	-70.7853	0.001062	NaN
100	1.000000	0.922711	7.36602e+06	-43639.1	955.818	-29778.9	0.000000	0.000000	6.923128	0.028572	NaN	0.000000	0.001590	0.001711	28.0947	0.074991	0.001874	40.0183	27.3021	-161.853	-0.006561	0.921389	-0.154540	-0.155862	0.028572	40.0183	-0.155075	-22.3838	-0.001276	NaN
100	1.000000	0.962739	7.36602e+06	-43639.1	955.818	-29778.9	0.000000	0.000000	6.963155	0.022868	NaN	0.000000	0.001626	0.001612	28.0956	0.048141	0.001931	24.9288	-120.454	-166.697	0.084005	0.961361	-0.114512	-0.115890	0.022868	24.9288	-0.115200	-3.856782	-0.005929	NaN
100	1.000000	1.002741	7.36602e+06	-43639.1	955.818	-29778.9	0.000000	0.000000	7.003157	0.018155	NaN	0.000000	0.001615	0.001646	28.0949	0.023517	0.001979	11.8821	-98.5396	-164.521	0.012831	1.001344	-0.074510	-0.075907	0.018155	11.8821	-0.075656	-0.480242	-0.037803	NaN
100	1.000000	1.042755	7.36602e+06	-43639.1	955.818	-29778.9	0.000000	0.000000	7.043170	-0.007922	NaN	0.000000	0.001599	0.001645	28.0974	0.026219	0.001978	13.2549	163.491	-164.697	-0.031401	1.041435	-0.034496	-0.035816	-0.007922	13.2549	-0.034048	-0.030031	0.263801	NaN
100	1.000000	1.082722	7.36602e+06	-43639.1	955.819	-29778.9	0.000000	0.000000	7.083317	4.390055	NaN	0.000000	0.001583	0.001677	28.0966	5.072190	0.001953	2597.63	10.4629	-168.3	2.584297	1.081428	0.005471	0.004177	4.390055	2597.63	0.004203	0.003418	1284.41	40594.5
100	2.000000	1.096227	7.36602e+06	-43639.1	955.818	-29778.9	0.000000	0.000000	7.097482	20.4339	NaN	0.000000	0.001515	0.001634	28.0977	17.6784	0.001779	9935.36	3.738352	-173.801	19.3328	1.095969	0.018976	0.018718	20.4339	9935.36	0.017433	0.018668	1094.58	66436.2
100	2.000000	1.106196	7.36602e+06	-43639.1	955.818	-29778.9	0.000000	0.000000	7.108516	46.3519	NaN	0.000000	0.001541	0.001683	28.0969	27.724	0.001702	16286.7	3.821252	-178.156	45.1956	1.105913	0.028945	0.028662	46.3519	16286.7	0.026811	0.034392	1347.74	80237.4
100	2.000000	1.116147	7.36602e+06	-43639.1	955.818	-29778.9	0.000000	0.000000	7.119520	71.9635	NaN	0.000000	0.001538	0.001620	28.0967	37.759	0.001757	21489.9	2.465927	-179.518	69.8021	1.115969	0.038896	0.038718	71.9635	21489.9	0.036384	0.055019	1307.99	83705.5
100	2.000000	1.126172	7.36602e+06	-43639.1	955.819	-29778.9	0.000000	0.000000	7.131057	108.752	NaN	0.000000	0.001557	0.001646	28.0962	47.5823	0.001762	27006	6.280141	174.658	107.765	1.125938	0.048921	0.048687	108.752	27006	0.045901	0.080165	1356.6	87144.7
100	2.000000	1.136146	7.36602e+06	-43639.1	955.819	-29778.9	0.000000	0.000000	7.142837	152.689	NaN	0.000000	0.001593	0.001676	28.0964	55.9274	0.001772	31562	-3.098582	-176.785	150.582	1.135875	0.058895	0.058624	152.689	31562	0.055267	0.109384	1395.89	87188.8
100	2.000000	1.146058	7.36602e+06	-43639.1	955.819	-29778.9	0.000000	0.000000	7.154772	201.919	NaN	0.000000	0.001559	0.001687	28.0974	65.6883	0.001746	37620.7	2.915778	175.503	197.465	1.145804	0.068807	0.068553	201.919	37620.7	0.064781	0.143509	1407.01	90732
100	2.000000	1.156236	7.36602e+06	-43639.1	955.818	-29778.9	0.000000	0.000000	7.167239	257.602	NaN	0.000000	0.001619	0.001667	28.0987	75.0782	0.001774	42330.9	0.688334	177.291	261.105	1.155901	0.078985	0.078650	257.602	42330.9	0.074420	0.182533	1411.26	90523.1
100	2.000000	1.166071	7.36602e+06	-43639.1	955.819	-29778.9	0.000000	0.000000	7.179908	326.543	NaN	0.000000	0.001572	0.001699	28.0975	84.7906	0.001757	48256.4	2.489267	174.077	323.153	1.165785	0.088820	0.088534	326.543	48256.4	0.083745	0.224450	1454.85	93061.1
100	2.000000	1.176007	7.36602e+06	-43639.1	955.818	-29778.9	0.000000	0.000000	7.193017	403.763	NaN	0.000000	0.001592	0.001686	28.0987	95.6125	0.001824	52427.5	8.259065	168.612	397.116	1.175651	0.098756	0.098400	403.763	52427.5	0.092980	0.269932	1495.8	92194.6
100	2.000000	1.186098	7.36602e+06	-43639.1	955.818	-29778.9	0.000000	0.000000	7.206237	479.854	NaN	0.000000	0.001637	0.001631	28.0973	104.614	0.001873	55845	5.704839	170.137	480.665	1.185913	0.108847	0.108662	479.854	55845	0.102403	0.320362	1497.85	90144.1