Folder: unikorn_login/remote_trans/data/nanoindenter/0828-1/data/Data_2025-08-06,11h17m57s (part 91)

File: 2025-07-22_16-23-58_1_199.txt
2025-07-22, 16:23:58, 1
Index	Phase	Displacement	Time	Pos X	Pos Y	Pos Z	Rot A	Rot B	Piezo Z	Force A	Force B	Gripper	Voltage A	Voltage B	Temperature	Amplitude force	Amplitude pos	Stiffness	Phase shift	Phase excitation	Force A raw	Displacement raw	HMax	HMax raw	Real Force	Real Stiffness	Contact Depth	Area	Hardness	Reduced Mod.
[#]	[#]	[um]	[s]	[um]	[um]	[um]	[m°]	[m°]	[um]	[uN]	[uN]	[V]	[V]	[V]	[°C]	[uN]	[um]	[N/m]	[°]	[°]	[uN]	[um]	[um]	[um]	[uN]	[N/m]	[um]	[um^2]	[MPa]	[MPa]
199	1.000000	0.002619	7.36699e+06	-48589.1	955.819	-29762.3	0.000000	0.000000	6.002810	-0.025833	NaN	0.000000	0.001544	0.001764	28.0783	0.045883	0.000990	46.3442	114.36	-167.806	-0.012719	0.001379	-1.121065	-1.122304	-0.025833	46.3442	-1.120647	-9.487468E+14	2.722823E-17	NaN
199	1.000000	0.044582	7.36699e+06	-48589.1	955.818	-29762.3	0.000000	0.000000	6.044773	-0.013546	NaN	0.000000	0.001581	0.001717	28.0793	0.058761	0.001876	31.324	11.3847	13.5576	-0.028277	0.043187	-1.079102	-1.080497	-0.013546	31.324	-1.078778	-2.600773E+14	5.208387E-17	NaN
199	1.000000	0.086578	7.36699e+06	-48589.1	955.818	-29762.3	0.000000	0.000000	6.086771	0.010254	NaN	0.000000	0.001581	0.001729	28.0793	0.036341	0.002157	16.8467	79.0921	-164.474	0.004327	0.085262	-1.037106	-1.038421	0.010254	16.8467	-1.037562	-7.264147E+13	-1.411657E-16	NaN
199	1.000000	0.128569	7.36699e+06	-48589.1	955.818	-29762.3	0.000000	0.000000	6.128763	0.040304	NaN	0.000000	0.001586	0.001761	28.0797	0.020754	0.001837	11.3004	119.781	13.1301	0.058849	0.127199	-0.995115	-0.996485	0.040304	11.3004	-0.997790	-2.118405E+13	-1.902548E-15	NaN
199	1.000000	0.170598	7.36699e+06	-48589.1	955.818	-29762.3	0.000000	0.000000	6.170793	0.080984	NaN	0.000000	0.001651	0.001720	28.0797	0.069009	0.002108	32.7366	46.3398	-165.044	0.092055	0.169315	-0.953086	-0.954369	0.080984	32.7366	-0.954941	-5.606073E+12	-1.444568E-14	NaN
199	1.000000	0.212619	7.36699e+06	-48589.1	955.818	-29762.3	0.000000	0.000000	6.212812	0.013610	NaN	0.000000	0.001685	0.001794	28.0781	0.044931	0.002007	22.3906	-140.739	16.0749	0.065985	0.211240	-0.911064	-0.912444	0.013610	22.3906	-0.911520	-1.454446E+12	-9.357183E-15	NaN
199	1.000000	0.254633	7.36699e+06	-48589.1	955.819	-29762.3	0.000000	0.000000	6.254829	0.094956	NaN	0.000000	0.001686	0.001753	28.0783	0.039350	0.001977	19.9036	-152.626	-165.542	0.047463	0.253343	-0.869050	-0.870341	0.094956	19.9036	-0.872628	-4.335141E+11	-2.190376E-13	NaN
199	1.000000	0.296656	7.36699e+06	-48589.1	955.818	-29762.3	0.000000	0.000000	6.296849	0.036951	NaN	0.000000	0.001620	0.001779	28.0781	0.073133	0.001949	37.529	45.1153	12.0947	0.007365	0.295342	-0.827028	-0.828342	0.036951	37.529	-0.827767	-1.070312E+11	-3.452352E-13	NaN
199	1.000000	0.338699	7.36699e+06	-48589.1	955.819	-29762.3	0.000000	0.000000	6.338895	0.109175	NaN	0.000000	0.001650	0.001751	28.0794	0.081462	0.001990	40.9419	54.2245	-165.922	0.034041	0.337355	-0.784985	-0.786329	0.109175	40.9419	-0.786985	-2.993151E+10	-3.647484E-12	NaN
199	1.000000	0.380686	7.36699e+06	-48589.1	955.819	-29762.3	0.000000	0.000000	6.380883	0.113188	NaN	0.000000	0.001626	0.001791	28.0795	0.138904	0.002077	66.8913	-149.86	15.9807	0.101935	0.379363	-0.742997	-0.744321	0.113188	66.8913	-0.744267	-7.855265E+9	-1.440918E-11	NaN
199	1.000000	0.422734	7.36699e+06	-48589.1	955.819	-29762.3	0.000000	0.000000	6.422930	0.101556	NaN	0.000000	0.001618	0.001697	28.0797	0.071771	0.001956	36.6995	-15.0041	-163.753	0.151355	0.421383	-0.700949	-0.702301	0.101556	36.6995	-0.703025	-2.151970E+9	-4.719232E-11	NaN
199	1.000000	0.464749	7.36699e+06	-48589.1	955.818	-29762.3	0.000000	0.000000	6.464944	0.067838	NaN	0.000000	0.001657	0.001766	28.0782	0.037527	0.002041	18.3894	140.384	15.5652	0.108453	0.463350	-0.658935	-0.660334	0.067838	18.3894	-0.661702	-5.858372E+8	-1.157968E-10	NaN
199	1.000000	0.506742	7.36699e+06	-48589.1	955.819	-29762.3	0.000000	0.000000	6.506934	0.005997	NaN	0.000000	0.001607	0.001758	28.0782	0.074640	0.001999	37.3301	123.816	-165.439	-0.024237	0.505437	-0.616942	-0.618246	0.005997	37.3301	-0.617062	-1.429699E+8	-4.194708E-11	NaN
199	1.000000	0.548744	7.367e+06	-48589.1	955.818	-29762.3	0.000000	0.000000	6.548937	0.025059	NaN	0.000000	0.001593	0.001719	28.0784	0.033688	0.002003	16.8147	37.387	13.3255	0.030833	0.547433	-0.574939	-0.576251	0.025059	16.8147	-0.576057	-3.893098E+7	-6.436680E-10	NaN
199	1.000000	0.590791	7.367e+06	-48589.1	955.818	-29762.3	0.000000	0.000000	6.590984	0.026093	NaN	0.000000	0.001647	0.001746	28.0794	0.058093	0.002099	27.6789	74.6909	-168.781	0.005186	0.589444	-0.532893	-0.534239	0.026093	27.6789	-0.533600	-1.005903E+7	-2.593942E-9	NaN
199	1.000000	0.632779	7.367e+06	-48589.1	955.818	-29762.3	0.000000	0.000000	6.632975	0.099528	NaN	0.000000	0.001622	0.001718	28.0798	0.053562	0.002043	26.2214	54.2674	16.8464	0.093976	0.631455	-0.490905	-0.492229	0.099528	26.2214	-0.493752	-2.80419e+06	-3.549281E-8	NaN
199	1.000000	0.674825	7.367e+06	-48589.1	955.818	-29762.3	0.000000	0.000000	6.675019	0.033662	NaN	0.000000	0.001693	0.001683	28.0797	0.045802	0.001961	23.3612	-127.415	-162.762	0.021322	0.673547	-0.448858	-0.450136	0.033662	23.3612	-0.449939	-681526	-4.939139E-8	NaN
199	1.000000	0.716807	7.367e+06	-48589.1	955.818	-29762.3	0.000000	0.000000	6.716998	-0.019901	NaN	0.000000	0.001670	0.001711	28.0796	0.057458	0.002023	28.4037	-50.2795	15.7539	0.014868	0.715494	-0.406877	-0.408190	-0.019901	28.4037	-0.406352	-164624	1.208880E-7	NaN
199	1.000000	0.758877	7.367e+06	-48589.1	955.818	-29762.3	0.000000	0.000000	6.759070	0.015378	NaN	0.000000	0.001644	0.001739	28.0785	0.021431	0.001920	11.1648	109.456	-166.894	0.038958	0.757523	-0.364806	-0.366161	0.015378	11.1648	-0.365839	-43267.6	-3.554241E-7	NaN
199	1.000000	0.800900	7.367e+06	-48589.1	955.818	-29762.3	0.000000	0.000000	6.801094	0.037966	NaN	0.000000	0.001667	0.001722	28.0784	0.067511	0.001939	34.8094	-138.811	11.7189	0.063614	0.799490	-0.322783	-0.324194	0.037966	34.8094	-0.323601	-10509.8	-3.612424E-6	NaN
199	1.000000	0.842877	7.367e+06	-48589.1	955.818	-29762.3	0.000000	0.000000	6.843069	0.000678	NaN	0.000000	0.001659	0.001703	28.0785	0.098907	0.002042	48.427	31.5126	-166.803	-0.011567	0.841586	-0.280806	-0.282098	0.000678	48.427	-0.280817	-2428.24	-2.790208E-7	NaN
199	1.000000	0.884910	7.367e+06	-48589.1	955.818	-29762.3	0.000000	0.000000	6.885105	0.067072	NaN	0.000000	0.001652	0.001746	28.0798	0.045779	0.002117	21.6245	82.0624	12.1911	0.060362	0.883545	-0.238774	-0.240139	0.067072	21.6245	-0.241100	-598.027	-0.000112	NaN
199	1.000000	0.926940	7.367e+06	-48589.1	955.818	-29762.3	0.000000	0.000000	6.927135	0.073515	NaN	0.000000	0.001602	0.001731	28.0794	0.033618	0.001811	18.5609	-172.849	-166.034	0.098185	0.925640	-0.196743	-0.198044	0.073515	18.5609	-0.199714	-130.316	-0.000564	NaN
199	1.000000	0.968914	7.367e+06	-48589.1	955.818	-29762.3	0.000000	0.000000	6.969108	0.052448	NaN	0.000000	0.001638	0.001683	28.0793	0.029733	0.001955	15.2105	150.298	11.5025	0.036093	0.967594	-0.154770	-0.156090	0.052448	15.2105	-0.157356	-24.5949	-0.002132	NaN
199	1.000000	1.010958	7.367e+06	-48589.1	955.818	-29762.3	0.000000	0.000000	7.011154	0.091384	NaN	0.000000	0.001567	0.001722	28.078	0.031019	0.002081	14.909	-123.025	-165.693	0.048211	1.009670	-0.112725	-0.114013	0.091384	14.909	-0.117322	-4.263254	-0.021435	NaN
199	1.000000	1.052953	7.367e+06	-48589.1	955.819	-29762.3	0.000000	0.000000	7.053146	0.020983	NaN	0.000000	0.001540	0.001723	28.078	0.025087	0.001951	12.8599	15.2123	12.5407	0.064272	1.051599	-0.070731	-0.072085	0.020983	12.8599	-0.071954	-0.384493	-0.054573	NaN
199	1.000000	1.094973	7.367e+06	-48589.1	955.818	-29762.3	0.000000	0.000000	7.095165	-0.006715	NaN	0.000000	0.001535	0.001769	28.0781	0.082942	0.001925	43.0949	138.619	-164.545	0.051390	1.093669	-0.028710	-0.030014	-0.006715	43.0949	-0.028594	-0.021044	0.319095	NaN
199	2.000000	1.134102	7.367e+06	-48589.1	955.818	-29762.3	0.000000	0.000000	7.134692	9.667694	NaN	0.000000	0.001544	0.001736	28.0794	10.6963	0.001762	6071.02	5.370973	6.919266	9.214852	1.133768	0.010418	0.010084	9.667694	6071.02	0.009224	0.008332	1160.32	60766.2
199	2.000000	1.144489	7.367e+06	-48589.1	955.817	-29762.3	0.000000	0.000000	7.145851	28.4648	NaN	0.000000	0.001579	0.001706	28.0793	22.5537	0.001749	12895.5	5.955309	179.314	26.426	1.144234	0.020805	0.020550	28.4648	12895.5	0.019149	0.021223	1341.21	80873.4
199	2.000000	1.154959	7.367e+06	-48589.1	955.818	-29762.3	0.000000	0.000000	7.157422	55.2361	NaN	0.000000	0.001564	0.001745	28.08	31.797	0.001788	17782.3	4.792844	-0.944304	53.4401	1.154640	0.031275	0.030956	55.2361	17782.3	0.028945	0.038586	1431.51	82707.8
199	2.000000	1.165438	7.367e+06	-48589.1	955.817	-29762.3	0.000000	0.000000	7.169328	89.9387	NaN	0.000000	0.001588	0.001753	28.0796	41.996	0.001887	22259.6	4.682076	178.043	87.2793	1.165091	0.041754	0.041407	89.9387	22259.6	0.038724	0.060772	1479.94	82497.2
199	2.000000	1.175950	7.367e+06	-48589.1	955.818	-29762.3	0.000000	0.000000	7.181449	129.056	NaN	0.000000	0.001511	0.001785	28.0785	51.1449	0.001736	29453	7.968568	-8.678851	127.987	1.175619	0.052267	0.051935	129.056	29453	0.048980	0.089288	1445.4	90054.9
199	2.000000	1.186490	7.367e+06	-48589.1	955.817	-29762.3	0.000000	0.000000	7.194146	181.543	NaN	0.000000	0.001600	0.001797	28.0785	61.2571	0.001703	35971.5	3.994279	173.984	181.278	1.186155	0.062806	0.062471	181.543	35971.5	0.059021	0.122321	1484.15	93968.1
199	2.000000	1.196936	7.367e+06	-48589.1	955.818	-29762.3	0.000000	0.000000	7.206789	234.967	NaN	0.000000	0.001551	0.001773	28.0782	70.6676	0.001807	39100.8	2.092618	-4.609784	234.555	1.196733	0.073253	0.073049	234.967	39100.8	0.068746	0.159023	1477.56	89583.7
199	2.000000	1.207523	7.367e+06	-48589.1	955.818	-29762.3	0.000000	0.000000	7.220241	304.648	NaN	0.000000	0.001567	0.001740	28.0798	80.2161	0.001730	46368.4	3.623066	172.478	308.207	1.207192	0.083839	0.083508	304.648	46368.4	0.078911	0.202216	1506.55	94208.1
199	2.000000	1.217822	7.367e+06	-48589.1	955.819	-29762.3	0.000000	0.000000	7.233432	374.997	NaN	0.000000	0.001652	0.001776	28.0795	89.7297	0.001785	50265	4.808883	-8.719598	367.363	1.217521	0.094138	0.093838	374.997	50265	0.088543	0.247591	1514.58	92293.6
199	2.000000	1.228424	7.367e+06	-48589.1	955.817	-29762.3	0.000000	0.000000	7.247432	457.621	NaN	0.000000	0.001614	0.001749	28.0794	100.404	0.001878	53472.7	6.467942	169.643	457.682	1.227974	0.104741	0.104290	457.621	53472.7	0.098322	0.298027	1535.5	89490.6
199	2.000000	1.231313	7.367e+06	-48589.1	955.817	-29762.3	0.000000	0.000000	7.251229	479.717	NaN	0.000000	0.001616	0.001722	28.0794	103.156	0.001738	59336.4	4.539996	170.166	474.927	1.231121	0.107630	0.107437	479.717	59336.4	0.101566	0.315720	1519.44	96481.4

File: 2025-07-22_16-23-58_1_200.txt
2025-07-22, 16:23:58, 1
Index	Phase	Displacement	Time	Pos X	Pos Y	Pos Z	Rot A	Rot B	Piezo Z	Force A	Force B	Gripper	Voltage A	Voltage B	Temperature	Amplitude force	Amplitude pos	Stiffness	Phase shift	Phase excitation	Force A raw	Displacement raw	HMax	HMax raw	Real Force	Real Stiffness	Contact Depth	Area	Hardness	Reduced Mod.
[#]	[#]	[um]	[s]	[um]	[um]	[um]	[m°]	[m°]	[um]	[uN]	[uN]	[V]	[V]	[V]	[°C]	[uN]	[um]	[N/m]	[°]	[°]	[uN]	[um]	[um]	[um]	[uN]	[N/m]	[um]	[um^2]	[MPa]	[MPa]
200	1.000000	0.002368	7.367e+06	-48639.1	955.818	-29762.1	0.000000	0.000000	6.002818	0.048921	NaN	0.000000	0.001598	0.001662	28.0791	0.124891	0.001011	123.52	-166.1	-167.751	0.011882	0.001086	-0.220764	-0.222046	0.048921	123.52	-0.221061	-288.814	-0.000169	NaN
200	1.000000	0.022325	7.367e+06	-48639.1	955.818	-29762.1	0.000000	0.000000	6.022774	0.030061	NaN	0.000000	0.001614	0.001672	28.079	0.023572	0.001670	14.1185	-116.577	-163.481	0.048231	0.020955	-0.200807	-0.202177	0.030061	14.1185	-0.202404	-144.255	-0.000208	NaN
200	1.000000	0.042288	7.367e+06	-48639.1	955.818	-29762.1	0.000000	0.000000	6.042735	-0.029787	NaN	0.000000	0.001596	0.001672	28.079	0.093246	0.001950	47.8104	149.222	-166.721	0.001542	0.041025	-0.180844	-0.182107	-0.029787	47.8104	-0.180377	-61.9259	0.000481	NaN
200	1.000000	0.062288	7.367e+06	-48639.1	955.818	-29762.1	0.000000	0.000000	6.062739	0.058984	NaN	0.000000	0.001593	0.001713	28.0791	0.084381	0.002013	41.9248	-164.279	-166.621	-0.056138	0.060955	-0.160844	-0.162177	0.058984	41.9248	-0.161899	-29.6246	-0.001991	NaN
200	1.000000	0.082327	7.367e+06	-48639.1	955.819	-29762.1	0.000000	0.000000	6.082775	-0.016532	NaN	0.000000	0.001591	0.001699	28.0789	0.040413	0.001962	20.5974	-52.3696	-165.86	-0.092997	0.081037	-0.140804	-0.142095	-0.016532	20.5974	-0.140202	-11.9335	0.001385	NaN
200	1.000000	0.102291	7.367e+06	-48639.1	955.818	-29762.1	0.000000	0.000000	6.102737	-0.054547	NaN	0.000000	0.001593	0.001680	28.0787	0.060382	0.001949	30.984	-41.7046	-164.841	-0.102705	0.101049	-0.120840	-0.122082	-0.054547	30.984	-0.119520	-4.724803	0.011545	NaN
200	1.000000	0.122337	7.367e+06	-48639.1	955.818	-29762.1	0.000000	0.000000	6.122799	0.309760	NaN	0.000000	0.001565	0.001693	28.0776	0.120419	0.001970	61.1404	0.423647	-166.386	0.260689	0.121063	-0.100794	-0.102068	0.309760	61.1404	-0.104594	-2.303520	-0.134472	NaN
200	1.000000	0.142373	7.367e+06	-48639.1	955.819	-29762.1	0.000000	0.000000	6.142839	0.433506	NaN	0.000000	0.001571	0.001688	28.0777	0.274907	0.001939	141.778	27.502	-169.186	0.460039	0.140999	-0.080758	-0.082133	0.433506	141.778	-0.083052	-0.736596	-0.588526	NaN
200	1.000000	0.162344	7.367e+06	-48639.1	955.817	-29762.1	0.000000	0.000000	6.162834	1.019889	NaN	0.000000	0.001552	0.001722	28.0777	0.333284	0.002087	159.691	18.7981	-164.839	0.991223	0.161039	-0.060788	-0.062092	1.019889	159.691	-0.065578	-0.258565	-3.944419	NaN
200	1.000000	0.182352	7.367e+06	-48639.1	955.817	-29762.1	0.000000	0.000000	6.182864	1.553968	NaN	0.000000	0.001555	0.001692	28.0779	0.625550	0.002084	300.115	29.3951	-166.37	1.558771	0.181028	-0.040780	-0.042103	1.553968	300.115	-0.044663	-0.062762	-24.7597	NaN
200	1.000000	0.202360	7.367e+06	-48639.1	955.818	-29762.1	0.000000	0.000000	6.202900	2.221082	NaN	0.000000	0.001567	0.001684	28.0778	0.765802	0.001872	409.058	26.5272	-169.453	2.205327	0.201049	-0.020771	-0.022083	2.221082	409.058	-0.024843	-0.016712	-132.901	NaN
200	1.000000	0.222383	7.367e+06	-48639.1	955.818	-29762.1	0.000000	0.000000	6.222945	2.760018	NaN	0.000000	0.001576	0.001695	28.078	0.950622	0.001953	486.638	15.9623	-165.37	2.717536	0.221095	-0.000749	-0.002037	2.760018	486.638	-0.005002	-0.003418	-807.446	NaN
200	1.000000	0.242379	7.367e+06	-48639.1	955.818	-29762.1	0.000000	0.000000	6.242975	3.583293	NaN	0.000000	0.001578	0.001684	28.0776	1.060465	0.001974	537.217	19.3027	-167.522	3.573850	0.241139	0.019247	0.018007	3.583293	537.217	0.014245	0.014292	250.726	4105.65
200	1.000000	0.262330	7.367e+06	-48639.1	955.818	-29762.1	0.000000	0.000000	6.262967	4.590795	NaN	0.000000	0.001606	0.001701	28.079	1.360879	0.002025	672.108	19.0793	-167.927	4.384193	0.261095	0.039198	0.037963	4.590795	672.108	0.034076	0.049615	92.5276	2756.79
200	1.000000	0.282414	7.367e+06	-48639.1	955.818	-29762.1	0.000000	0.000000	6.283109	5.989634	NaN	0.000000	0.001605	0.001714	28.0789	1.649625	0.002003	823.424	16.785	-168.806	5.886735	0.281106	0.059282	0.057975	5.989634	823.424	0.053827	0.104608	57.2579	2326.03
200	1.000000	0.302371	7.367e+06	-48639.1	955.818	-29762.1	0.000000	0.000000	6.303132	7.609674	NaN	0.000000	0.001565	0.001715	28.079	1.980948	0.002133	928.661	19.528	-167.074	7.393952	0.301090	0.079239	0.077958	7.609674	928.661	0.073094	0.176899	43.017	2017.28
200	2.000000	0.320065	7.367e+06	-48639.1	955.818	-29762.1	0.000000	0.000000	6.320869	8.658633	NaN	0.000000	0.001571	0.001705	28.0788	2.311006	0.002055	1124.59	8.989704	-165.784	8.765314	0.319753	0.096933	0.096621	8.658633	1124.59	0.091159	0.260653	33.219	2012.5
200	2.000000	0.325025	7.367e+06	-48639.1	955.818	-29762.1	0.000000	0.000000	6.325827	8.588695	NaN	0.000000	0.001579	0.001712	28.079	2.445729	0.001919	1274.39	11.2918	-168.126	8.616690	0.324723	0.101893	0.101591	8.588695	1274.39	0.096839	0.290096	29.6064	2161.75
200	2.000000	0.329981	7.367e+06	-48639.1	955.818	-29762.1	0.000000	0.000000	6.330796	8.892437	NaN	0.000000	0.001609	0.001686	28.0788	2.625263	0.002137	1228.7	15.7354	-169.291	8.984531	0.329675	0.106850	0.106543	8.892437	1228.7	0.101422	0.314925	28.2367	2000.4
200	2.000000	0.334975	7.367e+06	-48639.1	955.818	-29762.1	0.000000	0.000000	6.335793	8.987663	NaN	0.000000	0.001643	0.001705	28.079	2.393036	0.002077	1152.02	14.2019	-170.743	9.028698	0.334667	0.111843	0.111536	8.987663	1152.02	0.105992	0.340632	26.3852	1803.39
200	2.000000	0.339932	7.367e+06	-48639.1	955.818	-29762.1	0.000000	0.000000	6.340752	9.033987	NaN	0.000000	0.001605	0.001678	28.0775	2.459801	0.002003	1227.87	15.0588	-169.791	8.952264	0.339682	0.116800	0.116550	9.033987	1227.87	0.111282	0.371571	24.3129	1840.36
200	2.000000	0.344951	7.367e+06	-48639.1	955.818	-29762.1	0.000000	0.000000	6.345783	9.312849	NaN	0.000000	0.001650	0.001701	28.0774	2.649872	0.002084	1271.69	17.4193	-169.445	9.268066	0.344632	0.121820	0.121500	9.312849	1271.69	0.116327	0.402261	23.1512	1831.89
200	2.000000	0.349944	7.367e+06	-48639.1	955.819	-29762.1	0.000000	0.000000	6.350779	9.397303	NaN	0.000000	0.001670	0.001689	28.0772	2.494420	0.001897	1315.25	11.578	-170.777	9.575164	0.349644	0.126812	0.126513	9.397303	1315.25	0.121454	0.434628	21.6215	1822.73
200	2.000000	0.354925	7.367e+06	-48639.1	955.819	-29762.1	0.000000	0.000000	6.355770	9.635633	NaN	0.000000	0.001628	0.001707	28.0774	2.580022	0.001983	1300.81	14.3671	-166.547	9.552363	0.354614	0.131794	0.131483	9.635633	1300.81	0.126238	0.465914	20.6811	1741.14
200	2.000000	0.359906	7.367e+06	-48639.1	955.818	-29762.1	0.000000	0.000000	6.360747	9.536948	NaN	0.000000	0.001601	0.001713	28.0773	2.492930	0.002144	1162.55	14.6141	-168.054	9.707927	0.359699	0.136775	0.136568	9.536948	1162.55	0.130622	0.495496	19.2473	1508.91
200	2.000000	0.364948	7.367e+06	-48639.1	955.818	-29762.1	0.000000	0.000000	6.365800	9.816254	NaN	0.000000	0.001584	0.001678	28.077	2.491575	0.001957	1272.87	14.8992	-167.435	9.822444	0.364629	0.141816	0.141498	9.816254	1272.87	0.136032	0.533218	18.4095	1592.59
200	2.000000	0.369919	7.367e+06	-48639.1	955.818	-29762.1	0.000000	0.000000	6.370772	9.829655	NaN	0.000000	0.001629	0.001716	28.0774	2.656199	0.002037	1304.08	9.648752	-167.977	9.954461	0.369653	0.146787	0.146522	9.829655	1304.08	0.141134	0.570018	17.2445	1578.1
200	2.000000	0.374907	7.367e+06	-48639.1	955.818	-29762.1	0.000000	0.000000	6.375771	10.1081	NaN	0.000000	0.001602	0.001657	28.0786	2.692877	0.002010	1339.87	15.6356	-170.188	9.957915	0.374565	0.151775	0.151434	10.1081	1339.87	0.146117	0.607121	16.6492	1571.08
200	2.000000	0.379892	7.36701e+06	-48639.1	955.818	-29762.1	0.000000	0.000000	6.380758	10.1687	NaN	0.000000	0.001596	0.001654	28.0788	2.782662	0.002110	1319.07	12.3291	-167.986	10.154	0.379628	0.156760	0.156496	10.1687	1319.07	0.150979	0.644431	15.7793	1501.25
200	2.000000	0.384926	7.36701e+06	-48639.1	955.818	-29762.1	0.000000	0.000000	6.385800	10.3438	NaN	0.000000	0.001599	0.001698	28.0788	2.766065	0.002082	1328.85	18.7579	-170.24	10.3604	0.384594	0.161795	0.161463	10.3438	1328.85	0.155957	0.683776	15.1274	1468.23
200	2.000000	0.389923	7.36701e+06	-48639.1	955.819	-29762.1	0.000000	0.000000	6.390795	10.2987	NaN	0.000000	0.001651	0.001652	28.0788	2.756326	0.001925	1432.12	15.2627	-170.111	10.2905	0.389580	0.166792	0.166449	10.2987	1432.12	0.161399	0.728118	14.1442	1533.39
200	2.000000	0.394910	7.36701e+06	-48639.1	955.817	-29762.1	0.000000	0.000000	6.395787	10.4238	NaN	0.000000	0.001654	0.001695	28.0786	2.860638	0.002035	1405.43	14.2599	-168.942	10.5213	0.394623	0.171778	0.171492	10.4238	1405.43	0.166216	0.768537	13.5631	1464.7
200	2.000000	0.399905	7.36701e+06	-48639.1	955.818	-29762.1	0.000000	0.000000	6.400787	10.5371	NaN	0.000000	0.001633	0.001658	28.0788	3.046669	0.002000	1523.68	15.5994	-172.307	10.5591	0.399601	0.176774	0.176469	10.5371	1523.68	0.171587	0.814903	12.9305	1542.11
200	2.000000	0.404858	7.36701e+06	-48639.1	955.818	-29762.1	0.000000	0.000000	6.405748	10.7481	NaN	0.000000	0.001624	0.001674	28.0773	3.011600	0.002087	1443.22	10.3184	-168.254	10.7113	0.404521	0.181726	0.181390	10.7481	1443.22	0.176141	0.855291	12.5666	1425.77
200	2.000000	0.409888	7.36701e+06	-48639.1	955.818	-29762.1	0.000000	0.000000	6.410785	10.9151	NaN	0.000000	0.001640	0.001693	28.0774	2.918156	0.002019	1445.51	13.1494	-167.078	10.8453	0.409586	0.186757	0.186454	10.9151	1445.51	0.181093	0.900346	12.1232	1391.84
200	2.000000	0.414891	7.36701e+06	-48639.1	955.818	-29762.1	0.000000	0.000000	6.415801	11.2294	NaN	0.000000	0.001669	0.001691	28.0772	2.992967	0.001999	1497.45	15.3311	-167.683	11.2292	0.414563	0.191759	0.191432	11.2294	1497.45	0.186135	0.947430	11.8525	1405.57
200	2.000000	0.417390	7.36701e+06	-48639.1	955.819	-29762.1	0.000000	0.000000	6.418303	11.3027	NaN	0.000000	0.001691	0.001661	28.0775	3.074752	0.001997	1539.54	13.108	12.2746	11.3719	0.417053	0.194258	0.193921	11.3027	1539.54	0.188752	0.972352	11.6241	1426.44