Folder: unikorn_login/remote_trans/data/nanoindenter/0828-1/data/Data_2025-08-06,11h17m57s (part 165)

File: 2025-07-22_16-23-58_1_347.txt
2025-07-22, 16:23:58, 1
Index	Phase	Displacement	Time	Pos X	Pos Y	Pos Z	Rot A	Rot B	Piezo Z	Force A	Force B	Gripper	Voltage A	Voltage B	Temperature	Amplitude force	Amplitude pos	Stiffness	Phase shift	Phase excitation	Force A raw	Displacement raw	HMax	HMax raw	Real Force	Real Stiffness	Contact Depth	Area	Hardness	Reduced Mod.
[#]	[#]	[um]	[s]	[um]	[um]	[um]	[m°]	[m°]	[um]	[uN]	[uN]	[V]	[V]	[V]	[°C]	[uN]	[um]	[N/m]	[°]	[°]	[uN]	[um]	[um]	[um]	[uN]	[N/m]	[um]	[um^2]	[MPa]	[MPa]
347	1.000000	0.002274	7.36845e+06	-55989.1	955.819	-29740.5	0.000000	0.000000	6.002808	-0.085127	NaN	0.000000	0.001667	0.001717	28.0803	0.083788	0.000954	87.8485	-91.3798	-165.308	-0.024536	0.001024	-1.063014	-1.064264	-0.085127	87.8485	-1.062288	-1.561569E+14	5.451404E-16	NaN
347	1.000000	0.042193	7.36845e+06	-55989.1	955.819	-29740.5	0.000000	0.000000	6.042730	-0.011146	NaN	0.000000	0.001617	0.001722	28.0794	0.088114	0.001823	48.3329	1.673749	-168.416	-0.057979	0.040925	-1.023095	-1.024363	-0.011146	48.3329	-1.022922	-4.615990E+13	2.414738E-16	NaN
347	1.000000	0.082192	7.36845e+06	-55989.1	955.819	-29740.5	0.000000	0.000000	6.082729	-0.018562	NaN	0.000000	0.001663	0.001705	28.0792	0.053618	0.002025	26.4803	60.4225	-166.047	0.013811	0.080900	-0.983096	-0.984389	-0.018562	26.4803	-0.982570	-1.321393E+13	1.404741E-15	NaN
347	1.000000	0.122276	7.36845e+06	-55989.1	955.82	-29740.5	0.000000	0.000000	6.122813	-0.020184	NaN	0.000000	0.001624	0.001724	28.0791	0.040534	0.002083	19.4614	167.313	-166.078	0.030226	0.120993	-0.943012	-0.944295	-0.020184	19.4614	-0.942234	-3.778131E+12	5.342209E-15	NaN
347	1.000000	0.162251	7.36845e+06	-55989.1	955.819	-29740.5	0.000000	0.000000	6.162790	0.028326	NaN	0.000000	0.001641	0.001738	28.0803	0.077534	0.001937	40.0299	23.855	-163.882	0.030405	0.160886	-0.903037	-0.904403	0.028326	40.0299	-0.903568	-1.135730E+12	-2.494048E-14	NaN
347	1.000000	0.202252	7.36846e+06	-55989.1	955.82	-29740.5	0.000000	0.000000	6.202789	-0.004951	NaN	0.000000	0.001578	0.001755	28.08	0.070892	0.002082	34.0514	-11.554	-166.127	0.013444	0.200977	-0.863036	-0.864311	-0.004951	34.0514	-0.862927	-3.204360E+11	1.545062E-14	NaN
347	1.000000	0.242289	7.36846e+06	-55989.1	955.819	-29740.5	0.000000	0.000000	6.242827	0.022166	NaN	0.000000	0.001520	0.001714	28.0799	0.059596	0.002106	28.2995	111.903	-163.524	-0.024342	0.240947	-0.822999	-0.824341	0.022166	28.2995	-0.823587	-9.393914E+10	-2.359572E-13	NaN
347	1.000000	0.282306	7.36846e+06	-55989.1	955.819	-29740.5	0.000000	0.000000	6.282843	-0.027708	NaN	0.000000	0.001533	0.001768	28.0799	0.092603	0.002098	44.1409	-61.335	-164.367	-0.044521	0.281002	-0.782982	-0.784286	-0.027708	44.1409	-0.782511	-2.602251E+10	1.064786E-12	NaN
347	1.000000	0.322340	7.36846e+06	-55989.1	955.819	-29740.5	0.000000	0.000000	6.322880	0.067739	NaN	0.000000	0.001594	0.001773	28.0788	0.004530	0.002031	2.230315	-148.954	-165.369	-0.044274	0.321024	-0.742948	-0.744264	0.067739	2.230315	-0.765727	-1.538874E+10	-4.401867E-12	NaN
347	1.000000	0.362328	7.36846e+06	-55989.1	955.818	-29740.5	0.000000	0.000000	6.362866	0.021093	NaN	0.000000	0.001564	0.001812	28.0788	0.049127	0.001966	24.9822	156.659	-168.297	0.027615	0.361026	-0.702960	-0.704263	0.021093	24.9822	-0.703593	-2.190780E+9	-9.627876E-12	NaN
347	1.000000	0.402358	7.36846e+06	-55989.1	955.818	-29740.5	0.000000	0.000000	6.402896	0.007727	NaN	0.000000	0.001567	0.001768	28.0788	0.076875	0.002106	36.5088	102.665	-166.056	-0.014726	0.401066	-0.662930	-0.664222	0.007727	36.5088	-0.663089	-6.120350E+8	-1.262523E-11	NaN
347	1.000000	0.442360	7.36846e+06	-55989.1	955.819	-29740.5	0.000000	0.000000	6.442899	0.029691	NaN	0.000000	0.001590	0.001725	28.0803	0.011693	0.001972	5.928467	18.2038	-165.705	0.038204	0.441059	-0.622928	-0.624229	0.029691	5.928467	-0.626684	-1.938550E+8	-1.531631E-10	NaN
347	1.000000	0.482393	7.36846e+06	-55989.1	955.82	-29740.5	0.000000	0.000000	6.482932	0.044984	NaN	0.000000	0.001602	0.001738	28.0802	0.035482	0.002128	16.6741	-92.8077	-163.428	0.008099	0.481113	-0.582895	-0.584175	0.044984	16.6741	-0.584919	-5.159308E+7	-8.719033E-10	NaN
347	1.000000	0.522402	7.36846e+06	-55989.1	955.82	-29740.5	0.000000	0.000000	6.522940	0.008686	NaN	0.000000	0.001601	0.001735	28.0803	0.062055	0.002002	30.9909	174.844	-168.991	0.051346	0.521133	-0.542886	-0.544155	0.008686	30.9909	-0.543096	-1.362362E+7	-6.375657E-10	NaN
347	1.000000	0.562394	7.36846e+06	-55989.1	955.818	-29740.5	0.000000	0.000000	6.562933	0.036161	NaN	0.000000	0.001626	0.001736	28.0793	0.074227	0.001938	38.3027	11.6955	-166.306	0.037034	0.561085	-0.502894	-0.504203	0.036161	38.3027	-0.503602	-3.8482e+06	-9.396907E-9	NaN
347	1.000000	0.602434	7.36846e+06	-55989.1	955.818	-29740.5	0.000000	0.000000	6.602972	0.007968	NaN	0.000000	0.001586	0.001756	28.08	0.011700	0.001932	6.056466	-89.207	-169.71	0.035312	0.601151	-0.462854	-0.464137	0.007968	6.056466	-0.463841	-1.06898e+06	-7.454277E-9	NaN
347	1.000000	0.642461	7.36846e+06	-55989.1	955.818	-29740.5	0.000000	0.000000	6.642996	-0.050484	NaN	0.000000	0.001603	0.001713	28.0796	0.067090	0.002071	32.3895	88.9206	-167.123	0.013901	0.641173	-0.422827	-0.424115	-0.050484	32.3895	-0.421658	-271600	1.858756E-7	NaN
347	1.000000	0.682518	7.36846e+06	-55989.1	955.818	-29740.5	0.000000	0.000000	6.683057	0.018539	NaN	0.000000	0.001619	0.001737	28.0792	0.075415	0.002079	36.2688	-49.1415	-164.987	-0.112947	0.681159	-0.382770	-0.384129	0.018539	36.2688	-0.383153	-76756.4	-2.415309E-7	NaN
347	1.000000	0.722489	7.36846e+06	-55989.1	955.818	-29740.5	0.000000	0.000000	6.723026	-0.028021	NaN	0.000000	0.001607	0.001737	28.0802	0.053350	0.001941	27.4841	130.976	-167.911	-0.017028	0.721123	-0.342799	-0.344165	-0.028021	27.4841	-0.342034	-19551.9	1.433150E-6	NaN
347	1.000000	0.762533	7.36846e+06	-55989.1	955.819	-29740.5	0.000000	0.000000	6.763073	0.063788	NaN	0.000000	0.001630	0.001736	28.08	0.080741	0.002064	39.1155	-164.229	-164.205	-0.056569	0.761160	-0.302755	-0.304128	0.063788	39.1155	-0.303978	-5392.48	-1.182908E-5	NaN
347	1.000000	0.802561	7.36846e+06	-55989.1	955.819	-29740.5	0.000000	0.000000	6.803099	0.010499	NaN	0.000000	0.001591	0.001771	28.08	0.105283	0.001862	56.5468	101.662	-162.6	0.015491	0.801268	-0.262727	-0.264020	0.010499	56.5468	-0.262867	-1296.58	-8.097316E-6	NaN
347	1.000000	0.842557	7.36846e+06	-55989.1	955.818	-29740.5	0.000000	0.000000	6.843093	-0.047525	NaN	0.000000	0.001598	0.001735	28.0785	0.015637	0.001845	8.475690	-166.338	-161.235	-0.000143	0.841231	-0.222731	-0.224057	-0.047525	8.475690	-0.218526	-263.085	0.000181	NaN
347	1.000000	0.882552	7.36846e+06	-55989.1	955.819	-29740.5	0.000000	0.000000	6.883093	0.072937	NaN	0.000000	0.001602	0.001746	28.0787	0.016534	0.002107	7.848260	-31.279	-167.681	-0.005192	0.881270	-0.182736	-0.184018	0.072937	7.848260	-0.189706	-88.9437	-0.000820	NaN
347	1.000000	0.922567	7.36846e+06	-55989.1	955.818	-29740.5	0.000000	0.000000	6.923104	-0.015782	NaN	0.000000	0.001595	0.001726	28.079	0.153384	0.001869	82.0455	-42.2423	-163.612	-0.017017	0.921251	-0.142721	-0.144037	-0.015782	82.0455	-0.142577	-13.2183	0.001194	NaN
347	1.000000	0.962598	7.36846e+06	-55989.1	955.818	-29740.5	0.000000	0.000000	6.963134	-0.043641	NaN	0.000000	0.001551	0.001756	28.0789	0.029776	0.002063	14.4302	46.9478	-164.716	0.009895	0.961277	-0.102690	-0.104011	-0.043641	14.4302	-0.100422	-1.866851	0.023377	NaN
347	1.000000	1.002596	7.36846e+06	-55989.1	955.819	-29740.5	0.000000	0.000000	7.003134	-0.003631	NaN	0.000000	0.001578	0.001709	28.0803	0.111067	0.001961	56.6389	113.11	-166.408	0.024544	1.001334	-0.062692	-0.063954	-0.003631	56.6389	-0.062644	-0.214137	0.016955	NaN
347	1.000000	1.042631	7.36846e+06	-55989.1	955.82	-29740.5	0.000000	0.000000	7.043169	-0.000799	NaN	0.000000	0.001618	0.001772	28.0804	0.040897	0.001897	21.5549	172.419	-166.608	0.052227	1.041242	-0.022657	-0.024046	-0.000799	21.5549	-0.022629	-0.014653	0.054496	NaN
347	2.000000	1.080182	7.36846e+06	-55989.1	955.818	-29740.5	0.000000	0.000000	7.081074	8.591433	NaN	0.000000	0.001609	0.001675	28.0802	9.706812	0.001589	6107.17	9.297699	-174.75	8.300538	1.079879	0.014894	0.014591	8.591433	6107.17	0.013839	0.013769	623.987	47552
347	2.000000	1.090064	7.36846e+06	-55989.1	955.819	-29740.5	0.000000	0.000000	7.091715	27.0691	NaN	0.000000	0.001609	0.001672	28.0791	21.5147	0.001889	11388	4.120664	-175.249	25.331	1.089737	0.024776	0.024449	27.0691	11388	0.022993	0.027465	985.585	62781.5
347	2.000000	1.100042	7.36846e+06	-55989.1	955.82	-29740.5	0.000000	0.000000	7.102753	52.8387	NaN	0.000000	0.001574	0.001669	28.079	31.2925	0.001809	17295	4.941947	-179.047	50.2824	1.099661	0.034754	0.034373	52.8387	17295	0.032462	0.046002	1148.62	73672.8
347	2.000000	1.110080	7.36846e+06	-55989.1	955.819	-29740.5	0.000000	0.000000	7.113858	78.7692	NaN	0.000000	0.001605	0.001709	28.079	40.6543	0.001780	22841.8	4.238953	179.4	80.0515	1.109762	0.044791	0.044474	78.7692	22841.8	0.042205	0.069851	1127.67	78961.8
347	2.000000	1.120063	7.36846e+06	-55989.1	955.819	-29740.5	0.000000	0.000000	7.125749	125.152	NaN	0.000000	0.001602	0.001677	28.0797	51.5066	0.001741	29581.6	8.116636	173.802	125.951	1.119698	0.054775	0.054410	125.152	29581.6	0.051602	0.097429	1284.55	86586.9
347	2.000000	1.130029	7.36846e+06	-55989.1	955.82	-29740.5	0.000000	0.000000	7.137691	173.181	NaN	0.000000	0.001590	0.001686	28.0803	60.4706	0.001855	32595.8	1.718703	179.296	172.026	1.129659	0.064741	0.064371	173.181	32595.8	0.060756	0.128534	1347.36	83066.6
347	2.000000	1.140098	7.36846e+06	-55989.1	955.819	-29740.5	0.000000	0.000000	7.149802	222.814	NaN	0.000000	0.001580	0.001686	28.0803	70.9334	0.001906	37224.3	7.052354	173.298	225.557	1.139629	0.074809	0.074340	222.814	37224.3	0.070320	0.165393	1347.18	83626.1
347	2.000000	1.149955	7.36846e+06	-55989.1	955.82	-29740.5	0.000000	0.000000	7.162344	288.088	NaN	0.000000	0.001651	0.001704	28.0807	79.6787	0.001750	45536.1	2.543660	175.146	283.557	1.149729	0.084667	0.084441	288.088	45536.1	0.079922	0.206773	1393.26	91491.9
347	2.000000	1.160017	7.36846e+06	-55989.1	955.82	-29740.5	0.000000	0.000000	7.175319	358.887	NaN	0.000000	0.001626	0.001653	28.0793	90.4201	0.001884	48004.4	6.661000	171.17	358.99	1.159666	0.094729	0.094378	358.887	48004.4	0.089122	0.250456	1432.94	87637.3
347	2.000000	1.170183	7.36846e+06	-55989.1	955.82	-29740.5	0.000000	0.000000	7.188109	422.669	NaN	0.000000	0.001677	0.001652	28.079	99.907	0.001802	55447.5	9.186772	167.519	433.918	1.169717	0.104894	0.104429	422.669	55447.5	0.099177	0.302645	1396.58	92084.8
347	2.000000	1.177749	7.36846e+06	-55989.1	955.821	-29740.5	0.000000	0.000000	7.198766	497.786	NaN	0.000000	0.001677	0.001635	28.0787	106.201	0.001729	61436.2	7.994929	167.943	487.338	1.177391	0.112461	0.112103	497.786	61436.2	0.106384	0.342883	1451.76	95857.2

File: 2025-07-22_16-23-58_1_348.txt
2025-07-22, 16:23:58, 1
Index	Phase	Displacement	Time	Pos X	Pos Y	Pos Z	Rot A	Rot B	Piezo Z	Force A	Force B	Gripper	Voltage A	Voltage B	Temperature	Amplitude force	Amplitude pos	Stiffness	Phase shift	Phase excitation	Force A raw	Displacement raw	HMax	HMax raw	Real Force	Real Stiffness	Contact Depth	Area	Hardness	Reduced Mod.
[#]	[#]	[um]	[s]	[um]	[um]	[um]	[m°]	[m°]	[um]	[uN]	[uN]	[V]	[V]	[V]	[°C]	[uN]	[um]	[N/m]	[°]	[°]	[uN]	[um]	[um]	[um]	[uN]	[N/m]	[um]	[um^2]	[MPa]	[MPa]
348	1.000000	0.002302	7.36846e+06	-56039.1	955.819	-29740.3	0.000000	0.000000	6.002794	-0.037519	NaN	0.000000	0.001557	0.001647	28.0815	0.086676	0.001004	86.3252	-6.504447	-163.63	-0.029067	0.001093	-1.111464	-1.112673	-0.037519	86.3252	-1.111138	-7.072277E+14	5.305032E-17	NaN
348	1.000000	0.044286	7.36846e+06	-56039.1	955.818	-29740.3	0.000000	0.000000	6.044778	-0.026691	NaN	0.000000	0.001550	0.001651	28.0803	0.046494	0.002043	22.7553	-17.6938	14.4854	0.035903	0.042929	-1.069480	-1.070837	-0.026691	22.7553	-1.068600	-1.898381E+14	1.405987E-16	NaN
348	1.000000	0.086245	7.36846e+06	-56039.1	955.819	-29740.3	0.000000	0.000000	6.086736	-0.042546	NaN	0.000000	0.001502	0.001660	28.0801	0.080123	0.001910	41.9593	-155.169	-166.298	-0.082458	0.084989	-1.027521	-1.028777	-0.042546	41.9593	-1.026761	-5.198851E+13	8.183651E-16	NaN
348	1.000000	0.128272	7.36846e+06	-56039.1	955.818	-29740.3	0.000000	0.000000	6.128767	0.050918	NaN	0.000000	0.001534	0.001647	28.0799	0.070581	0.001995	35.3747	145.899	16.154	0.012878	0.126920	-0.985494	-0.986846	0.050918	35.3747	-0.986574	-1.496112E+13	-3.403362E-15	NaN
348	1.000000	0.170276	7.36846e+06	-56039.1	955.818	-29740.3	0.000000	0.000000	6.170767	-0.044874	NaN	0.000000	0.001510	0.001685	28.0813	0.034193	0.002007	17.0408	140.956	-164.086	-0.071921	0.169037	-0.943490	-0.944729	-0.044874	17.0408	-0.941515	-3.694696E+12	1.214560E-14	NaN
348	1.000000	0.212338	7.36846e+06	-56039.1	955.818	-29740.3	0.000000	0.000000	6.212826	-0.128781	NaN	0.000000	0.001514	0.001698	28.0814	0.138289	0.002157	64.104	-62.7062	14.0724	-0.069083	0.211004	-0.901428	-0.902762	-0.128781	64.104	-0.899922	-1.013929E+12	1.270116E-13	NaN
348	1.000000	0.254330	7.36846e+06	-56039.1	955.818	-29740.3	0.000000	0.000000	6.254821	-0.058400	NaN	0.000000	0.001553	0.001690	28.0813	0.201251	0.001909	105.405	63.1287	-163.567	0.029963	0.253017	-0.859436	-0.860749	-0.058400	105.405	-0.859020	-2.836987E+11	2.058533E-13	NaN
348	1.000000	0.296353	7.36847e+06	-56039.1	955.819	-29740.3	0.000000	0.000000	6.296846	-0.005866	NaN	0.000000	0.001520	0.001692	28.08	0.076893	0.001985	38.736	-50.4002	13.7469	0.033656	0.294940	-0.817413	-0.818826	-0.005866	38.736	-0.817299	-7.719448E+10	7.598954E-14	NaN
348	1.000000	0.338384	7.36847e+06	-56039.1	955.819	-29740.3	0.000000	0.000000	6.338874	-0.080872	NaN	0.000000	0.001578	0.001663	28.0803	0.056692	0.002078	27.2832	67.2542	-166.199	-0.015759	0.337072	-0.775382	-0.776694	-0.080872	27.2832	-0.773159	-1.941993E+10	4.164394E-12	NaN
348	1.000000	0.380404	7.36847e+06	-56039.1	955.818	-29740.3	0.000000	0.000000	6.380896	-0.043507	NaN	0.000000	0.001528	0.001712	28.0801	0.065981	0.001969	33.503	-63.9508	14.4606	-0.065180	0.379007	-0.733362	-0.734759	-0.043507	33.503	-0.732388	-5.411917E+9	8.039080E-12	NaN
348	1.000000	0.422407	7.36847e+06	-56039.1	955.818	-29740.3	0.000000	0.000000	6.422902	0.049695	NaN	0.000000	0.001563	0.001679	28.0815	0.021060	0.002004	10.5089	70.182	-167.729	-0.019484	0.421114	-0.691359	-0.692652	0.049695	10.5089	-0.694906	-1.667043E+9	-2.981027E-11	NaN
348	1.000000	0.464428	7.36847e+06	-56039.1	955.818	-29740.3	0.000000	0.000000	6.464919	-0.040527	NaN	0.000000	0.001524	0.001707	28.0815	0.019214	0.001950	9.853051	-155.161	12.8155	0.002736	0.463034	-0.649338	-0.650732	-0.040527	9.853051	-0.646253	-3.598020E+8	1.126382E-10	NaN
348	1.000000	0.506453	7.36847e+06	-56039.1	955.818	-29740.3	0.000000	0.000000	6.506945	-0.023345	NaN	0.000000	0.001635	0.001783	28.0815	0.102214	0.001988	51.4134	-4.418414	-165.403	-0.065629	0.505165	-0.607313	-0.608601	-0.023345	51.4134	-0.606973	-1.038618E+8	2.247724E-10	NaN
348	1.000000	0.548480	7.36847e+06	-56039.1	955.819	-29740.3	0.000000	0.000000	6.548972	-0.032930	NaN	0.000000	0.001571	0.001736	28.0815	0.079286	0.001973	40.1941	-123.938	15.2329	-0.013178	0.547146	-0.565286	-0.566621	-0.032930	40.1941	-0.564672	-2.710115E+7	1.215089E-9	NaN
348	1.000000	0.590464	7.36847e+06	-56039.1	955.819	-29740.3	0.000000	0.000000	6.590954	-0.086438	NaN	0.000000	0.001580	0.001706	28.08	0.070610	0.002008	35.1681	59.4987	-162.815	-0.103524	0.589199	-0.523302	-0.524567	-0.086438	35.1681	-0.521458	-6.82148e+06	1.267147E-8	NaN
348	1.000000	0.632498	7.36847e+06	-56039.1	955.817	-29740.3	0.000000	0.000000	6.632990	-0.042692	NaN	0.000000	0.001581	0.001766	28.08	0.058709	0.001955	30.0363	-32.1976	15.5599	-0.122205	0.631124	-0.481268	-0.482643	-0.042692	30.0363	-0.480202	-1.81281e+06	2.355039E-8	NaN
348	1.000000	0.674502	7.36847e+06	-56039.1	955.818	-29740.3	0.000000	0.000000	6.674993	-0.039408	NaN	0.000000	0.001540	0.001755	28.0803	0.043627	0.001955	22.3173	0.202432	-161.871	0.055379	0.673185	-0.439264	-0.440581	-0.039408	22.3173	-0.437940	-461619	8.536859E-8	NaN
348	1.000000	0.716550	7.36847e+06	-56039.1	955.819	-29740.3	0.000000	0.000000	6.717041	-0.047518	NaN	0.000000	0.001579	0.001691	28.0811	0.050706	0.002034	24.9252	-90.7011	16.3661	-0.065148	0.715206	-0.397217	-0.398560	-0.047518	24.9252	-0.395787	-116378	4.083079E-7	NaN
348	1.000000	0.758539	7.36847e+06	-56039.1	955.819	-29740.3	0.000000	0.000000	6.759029	-0.069694	NaN	0.000000	0.001526	0.001724	28.081	0.090380	0.002140	42.2344	50.9651	-163.557	-0.040010	0.757241	-0.355227	-0.356526	-0.069694	42.2344	-0.353989	-29164.6	2.389694E-6	NaN
348	1.000000	0.800577	7.36847e+06	-56039.1	955.818	-29740.3	0.000000	0.000000	6.801066	-0.100404	NaN	0.000000	0.001517	0.001729	28.081	0.099671	0.001909	52.215	-111.341	13.8114	-0.088905	0.799270	-0.313189	-0.314496	-0.100404	52.215	-0.311747	-7028.97	1.428436E-5	NaN
348	1.000000	0.842590	7.36847e+06	-56039.1	955.819	-29740.3	0.000000	0.000000	6.843084	0.013181	NaN	0.000000	0.001555	0.001733	28.0797	0.058823	0.002053	28.6489	-96.6372	-165.113	0.047329	0.841295	-0.271176	-0.272471	0.013181	28.6489	-0.271521	-1756.53	-7.504252E-6	NaN
348	1.000000	0.884623	7.36847e+06	-56039.1	955.819	-29740.3	0.000000	0.000000	6.885113	-0.053876	NaN	0.000000	0.001560	0.001703	28.08	0.051187	0.001861	27.5004	-53.8659	18.0691	-0.133111	0.883252	-0.229143	-0.230514	-0.053876	27.5004	-0.227674	-367.91	0.000146	NaN
348	1.000000	0.926647	7.36847e+06	-56039.1	955.819	-29740.3	0.000000	0.000000	6.927138	-0.057400	NaN	0.000000	0.001584	0.001704	28.0798	0.012171	0.002122	5.736669	-44.7917	-167.758	-0.067545	0.925353	-0.187119	-0.188413	-0.057400	5.736669	-0.179615	-60.1048	0.000955	NaN
348	1.000000	0.968654	7.36847e+06	-56039.1	955.818	-29740.3	0.000000	0.000000	6.969145	-0.062141	NaN	0.000000	0.001543	0.001716	28.081	0.027056	0.002000	13.531	-11.9866	12.7493	-0.109373	0.967324	-0.145112	-0.146442	-0.062141	13.531	-0.141667	-12.7117	0.004888	NaN
348	1.000000	1.010645	7.36847e+06	-56039.1	955.818	-29740.3	0.000000	0.000000	7.011136	-0.063285	NaN	0.000000	0.001571	0.001725	28.0813	0.100533	0.002031	49.5046	-59.6404	-164.727	-0.031615	1.009323	-0.103121	-0.104443	-0.063285	49.5046	-0.102162	-2.039030	0.031037	NaN
348	1.000000	1.052679	7.36847e+06	-56039.1	955.817	-29740.3	0.000000	0.000000	7.053173	0.030214	NaN	0.000000	0.001534	0.001685	28.0812	0.063702	0.002058	30.9527	-105.98	17.1985	0.018996	1.051373	-0.061087	-0.062393	0.030214	30.9527	-0.061819	-0.202943	-0.148878	NaN
348	1.000000	1.094696	7.36847e+06	-56039.1	955.818	-29740.3	0.000000	0.000000	7.095186	-0.084611	NaN	0.000000	0.001560	0.001824	28.0814	0.013037	0.002114	6.168405	-90.4646	-166.424	-0.033143	1.093420	-0.019070	-0.020346	-0.084611	6.168405	-0.008782	-0.005687	14.8777	NaN
348	2.000000	1.125703	7.36847e+06	-56039.1	955.818	-29740.3	0.000000	0.000000	7.126802	14.724	NaN	0.000000	0.001467	0.001781	28.0804	14.0116	0.001863	7519.63	12.6747	2.306507	14.3103	1.125353	0.011937	0.011587	14.724	7519.63	0.010469	0.009707	1516.84	69731
348	2.000000	1.136153	7.36847e+06	-56039.1	955.817	-29740.3	0.000000	0.000000	7.137995	32.7902	NaN	0.000000	0.001540	0.001772	28.0807	23.9494	0.001788	13395.4	5.729069	-177.281	32.6347	1.135853	0.022387	0.022087	32.7902	13395.4	0.020551	0.023415	1400.37	79979.3
348	2.000000	1.146613	7.36847e+06	-56039.1	955.818	-29740.3	0.000000	0.000000	7.149603	60.7049	NaN	0.000000	0.001552	0.001770	28.0803	34.8604	0.001794	19434.3	2.948499	2.258100	57.9304	1.146256	0.032847	0.032490	60.7049	19434.3	0.030504	0.041795	1452.44	86852
348	2.000000	1.157131	7.36847e+06	-56039.1	955.818	-29740.3	0.000000	0.000000	7.161503	94.2999	NaN	0.000000	0.001527	0.001824	28.0812	43.8889	0.001987	22083.7	2.035567	-177.19	93.9413	1.156793	0.043365	0.043027	94.2999	22083.7	0.040162	0.064448	1463.2	79477.2
348	2.000000	1.167595	7.36847e+06	-56039.1	955.819	-29740.3	0.000000	0.000000	7.173726	137.061	NaN	0.000000	0.001521	0.001796	28.0811	53.0954	0.001811	29323	6.487697	-4.704491	135.507	1.167234	0.053829	0.053468	137.061	29323	0.050323	0.093414	1467.24	87654.7
348	2.000000	1.178006	7.36847e+06	-56039.1	955.818	-29740.3	0.000000	0.000000	7.186284	189.232	NaN	0.000000	0.001552	0.001809	28.0813	61.5878	0.001765	34901	3.270666	176.998	181.818	1.177712	0.064240	0.063946	189.232	34901	0.060174	0.126432	1496.71	89677.1
348	2.000000	1.188558	7.36847e+06	-56039.1	955.818	-29740.3	0.000000	0.000000	7.199698	258.784	NaN	0.000000	0.001560	0.001852	28.0799	74.109	0.001778	41687.9	3.889175	-5.050530	254.78	1.188162	0.074792	0.074396	258.784	41687.9	0.070136	0.164643	1571.79	93866.7
348	2.000000	1.199009	7.36847e+06	-56039.1	955.818	-29740.3	0.000000	0.000000	7.213760	346.576	NaN	0.000000	0.001556	0.001837	28.0797	84.5501	0.001788	47296.5	6.259535	171.725	343.515	1.198738	0.085243	0.084972	346.576	47296.5	0.079747	0.205983	1682.54	95210.8
348	2.000000	1.209487	7.36847e+06	-56039.1	955.818	-29740.3	0.000000	0.000000	7.228352	446.574	NaN	0.000000	0.001580	0.001837	28.0802	92.9537	0.001843	50425.2	3.149800	-5.568484	440.244	1.209166	0.095721	0.095400	446.574	50425.2	0.089079	0.250243	1784.56	92095.8
348	2.000000	1.219982	7.36847e+06	-56039.1	955.818	-29740.3	0.000000	0.000000	7.243410	557.485	NaN	0.000000	0.001519	0.001776	28.0811	101.861	0.001847	55160.3	3.165249	174.331	553.547	1.219628	0.106216	0.105862	557.485	55160.3	0.098636	0.299716	1860.04	92054.6
348	2.000000	1.220565	7.36847e+06	-56039.1	955.818	-29740.3	0.000000	0.000000	7.244095	559.957	NaN	0.000000	0.001540	0.001788	28.0811	102.8	0.001812	56719.2	5.351555	-8.408906	558.191	1.220191	0.106799	0.106425	559.957	56719.2	0.099395	0.303824	1843.03	94013.8