Folder: unikorn_login/remote_trans/data/nanoindenter/0828-1/data/Data_2025-08-06,11h17m57s (part 187)

File: 2025-07-22_16-23-58_1_391.txt
2025-07-22, 16:23:58, 1
Index	Phase	Displacement	Time	Pos X	Pos Y	Pos Z	Rot A	Rot B	Piezo Z	Force A	Force B	Gripper	Voltage A	Voltage B	Temperature	Amplitude force	Amplitude pos	Stiffness	Phase shift	Phase excitation	Force A raw	Displacement raw	HMax	HMax raw	Real Force	Real Stiffness	Contact Depth	Area	Hardness	Reduced Mod.
[#]	[#]	[um]	[s]	[um]	[um]	[um]	[m°]	[m°]	[um]	[uN]	[uN]	[V]	[V]	[V]	[°C]	[uN]	[um]	[N/m]	[°]	[°]	[uN]	[um]	[um]	[um]	[uN]	[N/m]	[um]	[um^2]	[MPa]	[MPa]
391	1.000000	0.002513	7.36889e+06	-57539.1	1005.82	-29736.9	0.000000	0.000000	6.002793	-0.012055	NaN	0.000000	0.001651	0.001642	28.0807	0.040014	0.000949	42.1468	-93.507	-166.648	0.002470	0.001218	-1.053070	-1.054365	-0.012055	42.1468	-1.052856	-1.166280E+14	1.033608E-16	NaN
391	1.000000	0.042478	7.36889e+06	-57539.1	1005.82	-29736.9	0.000000	0.000000	6.042760	0.007860	NaN	0.000000	0.001635	0.001654	28.0814	0.104106	0.001914	54.3974	-122.446	-169.178	-0.069967	0.041198	-1.013105	-1.014385	0.007860	54.3974	-1.013213	-3.416854E+13	-2.300487E-16	NaN
391	1.000000	0.082458	7.36889e+06	-57539.1	1005.82	-29736.9	0.000000	0.000000	6.082740	0.028427	NaN	0.000000	0.001612	0.001648	28.0813	0.183595	0.001939	94.6702	-154.222	-167.089	-0.041987	0.081158	-0.973125	-0.974425	0.028427	94.6702	-0.973350	-9.926909E+12	-2.863668E-15	NaN
391	1.000000	0.122529	7.36889e+06	-57539.1	1005.82	-29736.9	0.000000	0.000000	6.122807	-0.064569	NaN	0.000000	0.001658	0.001657	28.0814	0.048368	0.002067	23.3952	72.2313	-164.081	-0.032458	0.121161	-0.933054	-0.934422	-0.064569	23.3952	-0.930984	-2.663672E+12	2.424072E-14	NaN
391	1.000000	0.162522	7.36889e+06	-57539.1	1005.82	-29736.9	0.000000	0.000000	6.162804	0.009262	NaN	0.000000	0.001630	0.001649	28.0798	0.043583	0.001965	22.1842	109.577	-167.189	0.047828	0.161155	-0.893061	-0.894428	0.009262	22.1842	-0.893374	-8.270250E+11	-1.119932E-14	NaN
391	1.000000	0.202524	7.36889e+06	-57539.1	1005.82	-29736.9	0.000000	0.000000	6.202805	-0.015153	NaN	0.000000	0.001655	0.001626	28.0799	0.053600	0.001935	27.7001	118.442	-166.367	0.035941	0.201240	-0.853059	-0.854343	-0.015153	27.7001	-0.852649	-2.325965E+11	6.514909E-14	NaN
391	1.000000	0.242553	7.36889e+06	-57539.1	1005.82	-29736.9	0.000000	0.000000	6.242833	-0.026937	NaN	0.000000	0.001656	0.001630	28.0798	0.069106	0.002026	34.1135	145.887	-163.733	0.039883	0.241190	-0.813030	-0.814393	-0.026937	34.1135	-0.812437	-6.631906E+10	4.061769E-13	NaN
391	1.000000	0.282557	7.36889e+06	-57539.1	1005.82	-29737	0.000000	0.000000	6.282838	-0.011796	NaN	0.000000	0.001670	0.001640	28.08	0.056905	0.002116	26.889	-51.5529	-168.865	0.051783	0.281240	-0.773026	-0.774343	-0.011796	26.889	-0.772696	-1.914104E+10	6.162926E-13	NaN
391	1.000000	0.322568	7.36889e+06	-57539.1	1005.82	-29737	0.000000	0.000000	6.322848	-0.043462	NaN	0.000000	0.001660	0.001659	28.0812	0.064371	0.001979	32.5227	132.76	-164.778	-0.011085	0.321321	-0.733015	-0.734262	-0.043462	32.5227	-0.732012	-5.348524E+9	8.126041E-12	NaN
391	1.000000	0.362604	7.36889e+06	-57539.1	1005.82	-29737	0.000000	0.000000	6.362882	-0.068354	NaN	0.000000	0.001618	0.001667	28.0809	0.006483	0.001946	3.330996	177.355	-164.894	-0.042295	0.361282	-0.692979	-0.694301	-0.068354	3.330996	-0.677589	-9.665513E+8	7.071936E-11	NaN
391	1.000000	0.402621	7.36889e+06	-57539.1	1005.82	-29737	0.000000	0.000000	6.402901	-0.026665	NaN	0.000000	0.001608	0.001648	28.0809	0.100062	0.002015	49.6579	52.728	-166.918	0.030908	0.401337	-0.652962	-0.654246	-0.026665	49.6579	-0.652559	-4.390523E+8	6.073302E-11	NaN
391	1.000000	0.442629	7.36889e+06	-57539.1	1005.82	-29737	0.000000	0.000000	6.442910	0.006950	NaN	0.000000	0.001619	0.001627	28.0795	0.090932	0.002046	44.4535	-35.3885	-163.969	-0.013728	0.441372	-0.612954	-0.614211	0.006950	44.4535	-0.613071	-1.259988E+8	-5.515536E-11	NaN
391	1.000000	0.482675	7.36889e+06	-57539.1	1005.82	-29737	0.000000	0.000000	6.482955	-0.035393	NaN	0.000000	0.001638	0.001649	28.0793	0.041510	0.001862	22.2928	-116.339	-168.472	0.020831	0.481352	-0.572908	-0.574231	-0.035393	22.2928	-0.571717	-3.391213E+7	1.043656E-9	NaN
391	1.000000	0.522658	7.36889e+06	-57539.1	1005.82	-29737	0.000000	0.000000	6.522940	0.006237	NaN	0.000000	0.001597	0.001641	28.0795	0.019119	0.002047	9.339150	-47.2988	-167.077	-0.028936	0.521372	-0.532925	-0.534211	0.006237	9.339150	-0.533425	-1.000312E+7	-6.234592E-10	NaN
391	1.000000	0.562667	7.36889e+06	-57539.1	1005.82	-29737	0.000000	0.000000	6.562945	-0.083330	NaN	0.000000	0.001571	0.001648	28.0796	0.120220	0.001941	61.9492	177.603	-165.096	-0.048569	0.561373	-0.492916	-0.494210	-0.083330	61.9492	-0.491907	-2.64265e+06	3.153268E-8	NaN
391	1.000000	0.602687	7.36889e+06	-57539.1	1005.82	-29737	0.000000	0.000000	6.602967	-0.029058	NaN	0.000000	0.001621	0.001679	28.0811	0.028847	0.002100	13.74	-18.8018	-163.276	-0.079567	0.601466	-0.452896	-0.454117	-0.029058	13.74	-0.451310	-712495	4.078339E-8	NaN
391	1.000000	0.642726	7.36889e+06	-57539.1	1005.82	-29737	0.000000	0.000000	6.643003	-0.089210	NaN	0.000000	0.001613	0.001643	28.0812	0.059869	0.002071	28.9146	6.503062	-166.386	0.043495	0.641410	-0.412857	-0.414173	-0.089210	28.9146	-0.410543	-188853	4.723782E-7	NaN
391	1.000000	0.682733	7.36889e+06	-57539.1	1005.82	-29737	0.000000	0.000000	6.683013	-0.035170	NaN	0.000000	0.001642	0.001606	28.0812	0.138111	0.001976	69.9093	-111.174	-166.583	0.017870	0.681442	-0.372850	-0.374141	-0.035170	69.9093	-0.372473	-53916.9	6.523029E-7	NaN
391	1.000000	0.722739	7.36889e+06	-57539.1	1005.82	-29737	0.000000	0.000000	6.723018	-0.054761	NaN	0.000000	0.001615	0.001579	28.0798	0.036443	0.001961	18.5853	-11.3519	-165.009	-0.045568	0.721428	-0.332844	-0.334155	-0.054761	18.5853	-0.330635	-13327.3	4.108943E-6	NaN
391	1.000000	0.762769	7.36889e+06	-57539.1	1005.82	-29737	0.000000	0.000000	6.763050	0.003151	NaN	0.000000	0.001608	0.001582	28.0798	0.044306	0.002080	21.2979	130.25	-167.255	0.001725	0.761526	-0.292814	-0.294057	0.003151	21.2979	-0.292925	-3690.49	-8.538022E-7	NaN
391	1.000000	0.802799	7.36889e+06	-57539.1	1005.82	-29737	0.000000	0.000000	6.803080	-0.017279	NaN	0.000000	0.001657	0.001588	28.0798	0.066052	0.002004	32.9625	84.7542	-166.506	-0.087860	0.801451	-0.252784	-0.254132	-0.017279	32.9625	-0.252390	-895.148	1.930277E-5	NaN
391	1.000000	0.842796	7.36889e+06	-57539.1	1005.82	-29737	0.000000	0.000000	6.843076	-0.018624	NaN	0.000000	0.001697	0.001616	28.0815	0.048459	0.002012	24.0793	51.2552	-166.008	0.012811	0.841494	-0.212787	-0.214089	-0.018624	24.0793	-0.212207	-208.213	8.944866E-5	NaN
391	1.000000	0.882810	7.36889e+06	-57539.1	1005.82	-29737	0.000000	0.000000	6.883091	0.005506	NaN	0.000000	0.001641	0.001615	28.0811	0.067422	0.002071	32.5584	-104.717	-167.151	-0.045641	0.881480	-0.172773	-0.174103	0.005506	32.5584	-0.172900	-46.1125	-0.000119	NaN
391	1.000000	0.922850	7.36889e+06	-57539.1	1005.82	-29737	0.000000	0.000000	6.923129	-0.043203	NaN	0.000000	0.001655	0.001585	28.0815	0.065551	0.001906	34.4006	146.722	-164.846	-0.010083	0.921502	-0.132733	-0.134081	-0.043203	34.4006	-0.131791	-8.254532	0.005234	NaN
391	1.000000	0.962856	7.36889e+06	-57539.1	1005.82	-29737	0.000000	0.000000	6.963138	0.015898	NaN	0.000000	0.001592	0.001566	28.0812	0.011736	0.002038	5.760053	161.032	-166.258	-0.034994	0.961529	-0.092726	-0.094054	0.015898	5.760053	-0.094797	-1.395647	-0.011391	NaN
391	1.000000	1.002889	7.36889e+06	-57539.1	1005.82	-29737	0.000000	0.000000	7.003171	0.015543	NaN	0.000000	0.001564	0.001575	28.0796	0.037576	0.001928	19.4889	122.313	-167.614	0.057684	1.001541	-0.052694	-0.054042	0.015543	19.4889	-0.053292	-0.114584	-0.135644	NaN
391	1.000000	1.042885	7.36889e+06	-57539.1	1005.82	-29737	0.000000	0.000000	7.043167	0.009038	NaN	0.000000	0.001685	0.001551	28.0797	0.138700	0.001997	69.4523	-44.2045	-166.103	0.045273	1.041583	-0.012698	-0.014000	0.009038	69.4523	-0.012796	-0.007985	-1.131986	NaN
391	2.000000	1.069481	7.36889e+06	-57539.1	1005.82	-29737	0.000000	0.000000	7.070308	13.2583	NaN	0.000000	0.001587	0.001578	28.0799	13.5253	0.001740	7774.61	4.468072	-173.205	13.0222	1.069147	0.013898	0.013564	13.2583	7774.61	0.012619	0.012240	1083.21	64204.3
391	2.000000	1.079387	7.36889e+06	-57539.1	1005.82	-29737	0.000000	0.000000	7.080900	29.9146	NaN	0.000000	0.001608	0.001582	28.0814	24.0441	0.001860	12927.7	11.0869	176.557	30.1969	1.079084	0.023804	0.023501	29.9146	12927.7	0.022069	0.025898	1155.08	73394
391	2.000000	1.089373	7.36889e+06	-57539.1	1005.82	-29737	0.000000	0.000000	7.092055	58.3489	NaN	0.000000	0.001655	0.001580	28.0817	35.5821	0.001689	21062.9	5.431037	177.637	58.1181	1.089058	0.033790	0.033475	58.3489	21062.9	0.031712	0.044367	1315.14	91361
391	2.000000	1.099339	7.36889e+06	-57539.1	1005.82	-29737	0.000000	0.000000	7.103552	95.5597	NaN	0.000000	0.001639	0.001600	28.0812	45.0358	0.001663	27082.5	4.792659	175.375	94.796	1.099132	0.043756	0.043549	95.5597	27082.5	0.041110	0.066928	1427.8	95644.1
391	2.000000	1.109381	7.36889e+06	-57539.1	1005.82	-29737	0.000000	0.000000	7.114968	128.955	NaN	0.000000	0.001608	0.001600	28.0817	55.7074	0.001854	30051	3.808784	175.387	130.527	1.109178	0.053798	0.053595	128.955	30051	0.050580	0.094214	1368.75	89448.9
391	2.000000	1.119282	7.36889e+06	-57539.1	1005.82	-29737	0.000000	0.000000	7.127074	182.551	NaN	0.000000	0.001642	0.001595	28.0801	66.0683	0.001781	37099.4	4.105593	173.462	179.668	1.119066	0.063699	0.063483	182.551	37099.4	0.060009	0.125839	1450.67	95550.5
391	2.000000	1.129276	7.36889e+06	-57539.1	1005.82	-29737	0.000000	0.000000	7.139439	240.17	NaN	0.000000	0.001696	0.001611	28.0799	75.9208	0.001747	43460.7	3.385324	173.344	236.948	1.129031	0.073693	0.073448	240.17	43460.7	0.069549	0.162256	1480.19	98575.5
391	2.000000	1.139212	7.36889e+06	-57539.1	1005.82	-29737	0.000000	0.000000	7.152396	313.603	NaN	0.000000	0.001665	0.001650	28.0799	86.657	0.001859	46621.3	3.132499	173.139	309.141	1.138943	0.083629	0.083360	313.603	46621.3	0.078584	0.200749	1562.16	95067.3
391	2.000000	1.149268	7.36889e+06	-57539.1	1005.82	-29737	0.000000	0.000000	7.165433	386.043	NaN	0.000000	0.001597	0.001658	28.0811	95.229	0.001770	53810.7	0.627892	174.967	383.142	1.149090	0.093685	0.093507	386.043	53810.7	0.088304	0.246417	1566.63	99039
391	2.000000	1.159284	7.36889e+06	-57539.1	1005.82	-29737	0.000000	0.000000	7.178755	466.388	NaN	0.000000	0.001592	0.001651	28.0813	104.716	0.001820	57538.9	6.540496	168.134	466.1	1.159095	0.103701	0.103512	466.388	57538.9	0.097622	0.294273	1584.88	96908.1
391	2.000000	1.163233	7.36889e+06	-57539.1	1005.82	-29737	0.000000	0.000000	7.184511	510.295	NaN	0.000000	0.001592	0.001606	28.0814	107.153	0.001737	61690.1	4.251545	170.435	507.531	1.162775	0.107650	0.107192	510.295	61690.1	0.101447	0.315060	1619.67	100413

File: 2025-07-22_16-23-58_1_392.txt
2025-07-22, 16:23:58, 1
Index	Phase	Displacement	Time	Pos X	Pos Y	Pos Z	Rot A	Rot B	Piezo Z	Force A	Force B	Gripper	Voltage A	Voltage B	Temperature	Amplitude force	Amplitude pos	Stiffness	Phase shift	Phase excitation	Force A raw	Displacement raw	HMax	HMax raw	Real Force	Real Stiffness	Contact Depth	Area	Hardness	Reduced Mod.
[#]	[#]	[um]	[s]	[um]	[um]	[um]	[m°]	[m°]	[um]	[uN]	[uN]	[V]	[V]	[V]	[°C]	[uN]	[um]	[N/m]	[°]	[°]	[uN]	[um]	[um]	[um]	[uN]	[N/m]	[um]	[um^2]	[MPa]	[MPa]
392	1.000000	0.002555	7.3689e+06	-57489.1	1005.82	-29737	0.000000	0.000000	6.002815	0.033833	NaN	0.000000	0.001676	0.001577	28.0807	0.109878	0.000957	114.857	137.859	-166.703	0.029081	0.001234	-1.080091	-1.081411	0.033833	114.857	-1.080311	-2.727109E+14	-1.240618E-16	NaN
392	1.000000	0.042465	7.3689e+06	-57489.1	1005.82	-29737	0.000000	0.000000	6.042723	-0.027538	NaN	0.000000	0.001666	0.001620	28.0815	0.088114	0.002005	43.9418	100.817	-163.411	-0.024841	0.041212	-1.040180	-1.041434	-0.027538	43.9418	-1.039710	-7.763774E+13	3.547019E-16	NaN
392	1.000000	0.082486	7.3689e+06	-57489.1	1005.82	-29737	0.000000	0.000000	6.082743	-0.062777	NaN	0.000000	0.001651	0.001598	28.0817	0.034834	0.001943	17.9318	33.849	-164.95	-0.019021	0.081196	-1.000159	-1.001449	-0.062777	17.9318	-0.997533	-2.101642E+13	2.987049E-15	NaN
392	1.000000	0.122527	7.3689e+06	-57489.1	1005.82	-29737	0.000000	0.000000	6.122786	0.007808	NaN	0.000000	0.001697	0.001567	28.0818	0.041374	0.002010	20.5793	98.6529	-168.039	-0.087612	0.121283	-0.960118	-0.961363	0.007808	20.5793	-0.960403	-6.642022E+12	-1.175545E-15	NaN
392	1.000000	0.162535	7.3689e+06	-57489.1	1005.82	-29737	0.000000	0.000000	6.162795	0.029130	NaN	0.000000	0.001695	0.001553	28.0802	0.082209	0.002095	39.2434	-57.0487	-168.369	0.006856	0.161198	-0.920111	-0.921447	0.029130	39.2434	-0.920667	-1.932930E+12	-1.507020E-14	NaN
392	1.000000	0.202573	7.3689e+06	-57489.1	1005.82	-29737	0.000000	0.000000	6.202828	-0.096424	NaN	0.000000	0.001632	0.001606	28.0803	0.029642	0.002083	14.2271	-25.3909	-166.253	-0.061471	0.201236	-0.880072	-0.881409	-0.096424	14.2271	-0.874989	-4.665852E+11	2.066582E-13	NaN
392	1.000000	0.242548	7.3689e+06	-57489.1	1005.82	-29737	0.000000	0.000000	6.242808	0.009944	NaN	0.000000	0.001630	0.001585	28.0801	0.061085	0.001926	31.722	172.103	-163.604	-0.096826	0.241270	-0.840097	-0.841375	0.009944	31.722	-0.840332	-1.584132E+11	-6.277062E-14	NaN
392	1.000000	0.282595	7.3689e+06	-57489.1	1005.82	-29737	0.000000	0.000000	6.282856	0.033390	NaN	0.000000	0.001576	0.001614	28.0809	0.084401	0.002038	41.4224	152.613	-164.444	-0.008337	0.281290	-0.800050	-0.801356	0.033390	41.4224	-0.800655	-4.589328E+10	-7.275678E-13	NaN
392	1.000000	0.322598	7.3689e+06	-57489.1	1005.82	-29737	0.000000	0.000000	6.322857	-0.007785	NaN	0.000000	0.001568	0.001573	28.0815	0.027189	0.002091	13.0052	-34.3574	-162.716	-0.047612	0.321227	-0.760047	-0.761418	-0.007785	13.0052	-0.759598	-1.270092E+10	6.129317E-13	NaN
392	1.000000	0.362642	7.3689e+06	-57489.1	1005.82	-29737	0.000000	0.000000	6.362900	-0.024397	NaN	0.000000	0.001612	0.001628	28.0812	0.057438	0.002140	26.837	-44.0473	-167.555	0.048998	0.361373	-0.720003	-0.721272	-0.024397	26.837	-0.719321	-3.591003E+9	6.793823E-12	NaN
392	1.000000	0.402656	7.3689e+06	-57489.1	1005.82	-29737	0.000000	0.000000	6.402913	-0.047734	NaN	0.000000	0.001584	0.001679	28.0814	0.051340	0.002001	25.6536	-2.096442	-168.312	0.039008	0.401354	-0.679989	-0.681292	-0.047734	25.6536	-0.678594	-9.976383E+8	4.784696E-11	NaN
392	1.000000	0.442642	7.3689e+06	-57489.1	1005.82	-29737	0.000000	0.000000	6.442901	-0.002791	NaN	0.000000	0.001603	0.001646	28.08	0.125230	0.002045	61.2478	-170.791	-166.724	-0.023349	0.441344	-0.640003	-0.641301	-0.002791	61.2478	-0.639969	-2.950294E+8	9.459499E-12	NaN
392	1.000000	0.482660	7.3689e+06	-57489.1	1005.82	-29737	0.000000	0.000000	6.482918	-0.025956	NaN	0.000000	0.001573	0.001635	28.0801	0.090432	0.002067	43.7462	-26.9346	-165.298	-0.012692	0.481360	-0.599986	-0.601286	-0.025956	43.7462	-0.599541	-8.206020E+7	3.163026E-10	NaN
392	1.000000	0.522692	7.3689e+06	-57489.1	1005.82	-29737	0.000000	0.000000	6.522951	0.017868	NaN	0.000000	0.001587	0.001620	28.0801	0.081749	0.001949	41.9356	53.2123	-167.391	-0.076977	0.521403	-0.559954	-0.561242	0.017868	41.9356	-0.560273	-2.355906E+7	-7.584423E-10	NaN
392	1.000000	0.562726	7.3689e+06	-57489.1	1005.82	-29737	0.000000	0.000000	6.562983	-0.059497	NaN	0.000000	0.001594	0.001579	28.0816	0.035697	0.001949	18.3187	36.7711	-164.003	-0.083691	0.561397	-0.519919	-0.521248	-0.059497	18.3187	-0.517483	-6.00605e+06	9.906120E-9	NaN
392	1.000000	0.602730	7.3689e+06	-57489.1	1005.82	-29737	0.000000	0.000000	6.602992	0.064774	NaN	0.000000	0.001619	0.001634	28.0815	0.033495	0.002166	15.4663	-90.9024	-165.766	0.081929	0.601419	-0.479915	-0.481226	0.064774	15.4663	-0.483056	-1.98744e+06	-3.259167E-8	NaN
392	1.000000	0.642756	7.3689e+06	-57489.1	1005.82	-29737	0.000000	0.000000	6.643015	-0.001053	NaN	0.000000	0.001597	0.001642	28.0818	0.043376	0.001944	22.315	147.389	-169.524	0.018309	0.641440	-0.439889	-0.441206	-0.001053	22.315	-0.439854	-491251	2.144215E-9	NaN
392	1.000000	0.682751	7.3689e+06	-57489.1	1005.82	-29737	0.000000	0.000000	6.683008	-0.043303	NaN	0.000000	0.001588	0.001666	28.0816	0.039398	0.001995	19.7534	125.389	-168.039	-0.053798	0.681466	-0.399895	-0.401180	-0.043303	19.7534	-0.398251	-126194	3.431449E-7	NaN
392	1.000000	0.722802	7.3689e+06	-57489.1	1005.82	-29737	0.000000	0.000000	6.723059	-0.056845	NaN	0.000000	0.001641	0.001702	28.0801	0.095518	0.002058	46.4104	105.305	-162.199	-0.055674	0.721461	-0.359843	-0.361185	-0.056845	46.4104	-0.358924	-34379	1.653471E-6	NaN
392	1.000000	0.762783	7.3689e+06	-57489.1	1005.82	-29737	0.000000	0.000000	6.763044	0.032531	NaN	0.000000	0.001638	0.001644	28.0802	0.113426	0.002017	56.2377	55.8151	-163.396	0.053553	0.761482	-0.319862	-0.321163	0.032531	56.2377	-0.320296	-9397.04	-3.461836E-6	NaN
392	1.000000	0.802809	7.3689e+06	-57489.1	1005.82	-29737	0.000000	0.000000	6.803066	-0.047618	NaN	0.000000	0.001565	0.001679	28.0801	0.090608	0.001969	46.007	152.482	-167.802	-0.025012	0.801506	-0.279837	-0.281140	-0.047618	46.007	-0.279060	-2284.48	2.084395E-5	NaN
392	1.000000	0.842811	7.3689e+06	-57489.1	1005.82	-29737	0.000000	0.000000	6.843071	0.046926	NaN	0.000000	0.001632	0.001669	28.082	0.081156	0.001990	40.7785	85.3706	-167.595	0.028912	0.841478	-0.239835	-0.241167	0.046926	40.7785	-0.240698	-589.451	-7.961044E-5	NaN
392	1.000000	0.882869	7.3689e+06	-57489.1	1005.82	-29737	0.000000	0.000000	6.883128	-0.000201	NaN	0.000000	0.001573	0.001642	28.0816	0.062016	0.002045	30.3306	-65.9071	-166.647	-0.013547	0.881551	-0.199777	-0.201094	-0.000201	30.3306	-0.199772	-130.601	1.536963E-6	NaN
392	1.000000	0.922866	7.3689e+06	-57489.1	1005.82	-29737	0.000000	0.000000	6.923124	-0.019554	NaN	0.000000	0.001560	0.001626	28.0816	0.124229	0.001880	66.0779	-43.2066	-166.485	-0.051218	0.921515	-0.159780	-0.161130	-0.019554	66.0779	-0.159558	-26.9229	0.000726	NaN
392	1.000000	0.962873	7.3689e+06	-57489.1	1005.82	-29737	0.000000	0.000000	6.963131	-0.015937	NaN	0.000000	0.001624	0.001636	28.0816	0.040482	0.002038	19.8626	158.216	-164.328	0.016035	0.961588	-0.119773	-0.121057	-0.015937	19.8626	-0.119171	-4.648571	0.003428	NaN
392	1.000000	1.002874	7.3689e+06	-57489.1	1005.82	-29737	0.000000	0.000000	7.003136	0.063565	NaN	0.000000	0.001705	0.001650	28.0804	0.042617	0.002047	20.8208	36.9689	-167.405	0.022972	1.001634	-0.079771	-0.081011	0.063565	20.8208	-0.082061	-0.696419	-0.091274	NaN
392	1.000000	1.042893	7.3689e+06	-57489.1	1005.82	-29737	0.000000	0.000000	7.043150	-0.048979	NaN	0.000000	0.001689	0.001656	28.0802	0.154210	0.001932	79.8182	-42.9784	-167.299	-0.050933	1.041577	-0.039752	-0.041069	-0.048979	79.8182	-0.039292	-0.043040	1.137986	NaN
392	1.000000	1.082934	7.3689e+06	-57489.1	1005.82	-29737	0.000000	0.000000	7.083222	0.714566	NaN	0.000000	0.001703	0.001660	28.08	0.847864	0.001991	425.887	9.743741	-164.578	0.907439	1.081579	0.000289	-0.001067	0.714566	425.887	-0.000970	-0.000711	-1004.57	NaN
392	2.000000	1.099487	7.3689e+06	-57489.1	1005.82	-29737	0.000000	0.000000	7.100652	22.0183	NaN	0.000000	0.001623	0.001658	28.0813	17.4738	0.001723	10142.6	5.364881	-176.765	21.594	1.099194	0.016842	0.016549	22.0183	10142.6	0.015214	0.015572	1413.98	74259.7
392	2.000000	1.109460	7.3689e+06	-57489.1	1005.82	-29737	0.000000	0.000000	7.111428	41.5404	NaN	0.000000	0.001691	0.001697	28.0815	26.9044	0.001814	14832.8	4.233808	-177.964	41.0931	1.109160	0.026815	0.026515	41.5404	14832.8	0.024714	0.030498	1362.09	77600.3
392	2.000000	1.119382	7.3689e+06	-57489.1	1005.82	-29737	0.000000	0.000000	7.122967	80.8474	NaN	0.000000	0.001674	0.001621	28.0824	37.3696	0.001842	20292.6	4.568515	178.642	77.0665	1.119083	0.036736	0.036438	80.8474	20292.6	0.033748	0.048872	1654.29	83865.6
392	2.000000	1.129354	7.3689e+06	-57489.1	1005.82	-29737	0.000000	0.000000	7.134940	129.478	NaN	0.000000	0.001710	0.001654	28.0807	48.1015	0.001867	25764.7	6.609349	173.593	126.001	1.129087	0.046708	0.046441	129.478	25764.7	0.042939	0.071845	1802.19	87821.3
392	2.000000	1.139448	7.3689e+06	-57489.1	1005.82	-29737	0.000000	0.000000	7.147651	193.081	NaN	0.000000	0.001699	0.001619	28.0805	57.262	0.001843	31070.8	2.758205	176.449	193.555	1.139088	0.056803	0.056442	193.081	31070.8	0.052142	0.099149	1947.39	90153.2
392	2.000000	1.149401	7.3689e+06	-57489.1	1005.82	-29737	0.000000	0.000000	7.160392	260.854	NaN	0.000000	0.001621	0.001662	28.0803	67.3771	0.001886	35719.5	4.396193	173.467	259.638	1.149153	0.066755	0.066508	260.854	35719.5	0.061278	0.130431	1999.93	90362.4
392	2.000000	1.159380	7.3689e+06	-57489.1	1005.82	-29737	0.000000	0.000000	7.173037	325.626	NaN	0.000000	0.001651	0.001661	28.0801	76.0921	0.001775	42860.5	2.317307	174.119	323.807	1.159073	0.076735	0.076427	325.626	42860.5	0.071037	0.168332	1934.42	95443.5
392	2.000000	1.169335	7.3689e+06	-57489.1	1005.82	-29737	0.000000	0.000000	7.186131	401.931	NaN	0.000000	0.001639	0.001677	28.0813	85.4919	0.001755	48700.3	1.676892	173.744	398.667	1.169124	0.086690	0.086479	401.931	48700.3	0.080500	0.209402	1919.42	97233.1
392	2.000000	1.179435	7.3689e+06	-57489.1	1005.82	-29737	0.000000	0.000000	7.199341	477.517	NaN	0.000000	0.001636	0.001669	28.0814	95.4605	0.001854	51502.6	5.297476	170.187	479.643	1.179073	0.096790	0.096428	477.517	51502.6	0.089836	0.254010	1879.91	93363.4
392	2.000000	1.189476	7.3689e+06	-57489.1	1005.82	-29737	0.000000	0.000000	7.212586	555.362	NaN	0.000000	0.001604	0.001641	28.0814	105.039	0.001780	59000	11.776	163.731	560.438	1.189033	0.106831	0.106388	555.362	59000	0.099771	0.305872	1815.67	97466.5
392	2.000000	1.190261	7.3689e+06	-57489.1	1005.82	-29737	0.000000	0.000000	7.213190	550.975	NaN	0.000000	0.001638	0.001627	28.0817	103.556	0.001635	63317.7	2.180993	171.589	542.989	1.190059	0.107616	0.107413	550.975	63317.7	0.101090	0.313092	1759.78	103386