Folder: unikorn_login/remote_trans/data/nanoindenter/0828-1/data/Data_2025-08-06,11h17m57s (part 144)

File: 2025-07-22_16-23-58_1_305.txt
2025-07-22, 16:23:58, 1
Index	Phase	Displacement	Time	Pos X	Pos Y	Pos Z	Rot A	Rot B	Piezo Z	Force A	Force B	Gripper	Voltage A	Voltage B	Temperature	Amplitude force	Amplitude pos	Stiffness	Phase shift	Phase excitation	Force A raw	Displacement raw	HMax	HMax raw	Real Force	Real Stiffness	Contact Depth	Area	Hardness	Reduced Mod.
[#]	[#]	[um]	[s]	[um]	[um]	[um]	[m°]	[m°]	[um]	[uN]	[uN]	[V]	[V]	[V]	[°C]	[uN]	[um]	[N/m]	[°]	[°]	[uN]	[um]	[um]	[um]	[uN]	[N/m]	[um]	[um^2]	[MPa]	[MPa]
305	1.000000	0.002561	7.36805e+06	-53889.1	955.817	-29745.4	0.000000	0.000000	6.002820	0.013241	NaN	0.000000	0.001602	0.001699	28.0785	0.077498	0.000948	81.7433	-41.0257	-174.917	0.089635	0.001267	-0.965546	-0.966840	0.013241	81.7433	-0.965667	-7.821116E+12	-1.693044E-15	NaN
305	1.000000	0.040477	7.36805e+06	-53889.1	955.819	-29745.4	0.000000	0.000000	6.040739	0.074086	NaN	0.000000	0.001658	0.001684	28.0787	0.019969	0.001962	10.176	112.139	13.0318	-0.013025	0.039110	-0.927630	-0.928996	0.074086	10.176	-0.933090	-2.843808E+12	-2.605159E-14	NaN
305	1.000000	0.078484	7.36805e+06	-53889.1	955.818	-29745.4	0.000000	0.000000	6.078744	0.022668	NaN	0.000000	0.001642	0.001689	28.0778	0.017719	0.002092	8.468547	-162.6	-164.508	0.036633	0.077196	-0.889623	-0.890910	0.022668	8.468547	-0.891630	-7.833420E+11	-2.893708E-14	NaN
305	1.000000	0.116523	7.36805e+06	-53889.1	955.819	-29745.4	0.000000	0.000000	6.116785	0.083630	NaN	0.000000	0.001664	0.001681	28.0778	0.083891	0.002071	40.5096	163.156	10.5936	0.045757	0.115197	-0.851584	-0.852909	0.083630	40.5096	-0.853132	-2.361289E+11	-3.541690E-13	NaN
305	1.000000	0.154552	7.36805e+06	-53889.1	955.818	-29745.4	0.000000	0.000000	6.154812	0.043617	NaN	0.000000	0.001602	0.001682	28.0773	0.044028	0.001965	22.4061	139.371	-166.583	-0.022615	0.153178	-0.813555	-0.814928	0.043617	22.4061	-0.815015	-7.187897E+10	-6.068079E-13	NaN
305	1.000000	0.192528	7.36805e+06	-53889.1	955.819	-29745.4	0.000000	0.000000	6.192787	0.017594	NaN	0.000000	0.001622	0.001684	28.0774	0.117223	0.001897	61.7811	75.2875	13.342	0.019059	0.191238	-0.775579	-0.776869	0.017594	61.7811	-0.775792	-2.108864E+10	-8.342737E-13	NaN
305	1.000000	0.230551	7.36805e+06	-53889.1	955.819	-29745.4	0.000000	0.000000	6.230812	0.051389	NaN	0.000000	0.001630	0.001716	28.0787	0.033785	0.001970	17.1518	-36.0776	-169.074	-0.015624	0.229276	-0.737556	-0.738831	0.051389	17.1518	-0.739803	-6.829220E+9	-7.524806E-12	NaN
305	1.000000	0.268601	7.36805e+06	-53889.1	955.819	-29745.4	0.000000	0.000000	6.268861	0.016905	NaN	0.000000	0.001630	0.001732	28.0787	0.072785	0.002028	35.888	70.01	13.3825	0.100573	0.267195	-0.699506	-0.700912	0.016905	35.888	-0.699859	-1.948074E+9	-8.678045E-12	NaN
305	1.000000	0.306608	7.36805e+06	-53889.1	955.819	-29745.4	0.000000	0.000000	6.306868	0.032179	NaN	0.000000	0.001626	0.001728	28.079	0.076024	0.001944	39.1096	-33.539	-165.719	0.065245	0.305302	-0.661498	-0.662805	0.032179	39.1096	-0.662116	-5.935318E+8	-5.421576E-11	NaN
305	1.000000	0.344592	7.36805e+06	-53889.1	955.819	-29745.4	0.000000	0.000000	6.344853	0.051125	NaN	0.000000	0.001636	0.001686	28.0789	0.210386	0.001893	111.146	173.7	10.7143	-0.009350	0.343206	-0.623514	-0.624901	0.051125	111.146	-0.623859	-1.772853E+8	-2.883750E-10	NaN
305	1.000000	0.382628	7.36805e+06	-53889.1	955.818	-29745.4	0.000000	0.000000	6.382888	0.010922	NaN	0.000000	0.001631	0.001687	28.0775	0.006340	0.002048	3.096058	153.389	-164.684	-0.007102	0.381286	-0.585478	-0.586821	0.010922	3.096058	-0.588124	-5.712215E+7	-1.912086E-10	NaN
305	1.000000	0.420640	7.36805e+06	-53889.1	955.818	-29745.4	0.000000	0.000000	6.420901	0.043592	NaN	0.000000	0.001608	0.001672	28.0777	0.030266	0.002037	14.8549	2.851409	14.2534	-0.023683	0.419297	-0.547466	-0.548810	0.043592	14.8549	-0.549667	-1.680144E+7	-2.594534E-9	NaN
305	1.000000	0.458652	7.36805e+06	-53889.1	955.819	-29745.4	0.000000	0.000000	6.458914	0.077620	NaN	0.000000	0.001598	0.001690	28.0777	0.032762	0.001970	16.6334	4.808998	-168.53	0.043182	0.457391	-0.509454	-0.510716	0.077620	16.6334	-0.512954	-5.19464e+06	-1.494236E-8	NaN
305	1.000000	0.496695	7.36805e+06	-53889.1	955.819	-29745.4	0.000000	0.000000	6.496957	0.053474	NaN	0.000000	0.001657	0.001704	28.079	0.002734	0.001942	1.407411	51.5717	10.3724	0.047957	0.495298	-0.471411	-0.472808	0.053474	1.407411	-0.499907	-3.41759e+06	-1.564662E-8	NaN
305	1.000000	0.534667	7.36805e+06	-53889.1	955.818	-29745.4	0.000000	0.000000	6.534925	-0.008313	NaN	0.000000	0.001708	0.001709	28.0791	0.025176	0.002013	12.5042	100.39	-166.366	-0.091759	0.533367	-0.433440	-0.434739	-0.008313	12.5042	-0.432941	-392338	2.118812E-8	NaN
305	1.000000	0.572738	7.36805e+06	-53889.1	955.819	-29745.4	0.000000	0.000000	6.572999	0.045412	NaN	0.000000	0.001662	0.001680	28.0791	0.020209	0.002039	9.909520	-29.4262	12.9811	-0.002634	0.571369	-0.395368	-0.396738	0.045412	9.909520	-0.398805	-128515	-3.533579E-7	NaN
305	1.000000	0.610728	7.36805e+06	-53889.1	955.818	-29745.4	0.000000	0.000000	6.610987	0.004760	NaN	0.000000	0.001646	0.001705	28.0793	0.091197	0.001970	46.288	-162.415	-170.871	0.044609	0.609390	-0.357379	-0.358717	0.004760	46.288	-0.357456	-32738.1	-1.454037E-7	NaN
305	1.000000	0.648718	7.36805e+06	-53889.1	955.819	-29745.4	0.000000	0.000000	6.648979	0.054082	NaN	0.000000	0.001641	0.001711	28.0778	0.099804	0.001871	53.331	-7.688591	15.5543	0.053748	0.647362	-0.319388	-0.320745	0.054082	53.331	-0.320149	-9350.39	-5.783952E-6	NaN
305	1.000000	0.686754	7.36805e+06	-53889.1	955.817	-29745.4	0.000000	0.000000	6.687017	0.086659	NaN	0.000000	0.001671	0.001703	28.0778	0.051011	0.001980	25.7596	-95.5364	-164.665	0.030160	0.685363	-0.281352	-0.282743	0.086659	25.7596	-0.283875	-2699.94	-3.209677E-5	NaN
305	1.000000	0.724797	7.36805e+06	-53889.1	955.819	-29745.4	0.000000	0.000000	6.725055	-0.007290	NaN	0.000000	0.001597	0.001683	28.0776	0.075688	0.001844	41.0393	-67.6071	12.0822	-0.087220	0.723399	-0.243310	-0.244708	-0.007290	41.0393	-0.243177	-644.305	1.131492E-5	NaN
305	1.000000	0.762815	7.36805e+06	-53889.1	955.818	-29745.4	0.000000	0.000000	6.763073	-0.014444	NaN	0.000000	0.001618	0.001693	28.0792	0.072871	0.001913	38.1012	99.4168	-165.287	-0.000320	0.761475	-0.205292	-0.206632	-0.014444	38.1012	-0.205007	-159.103	9.078592E-5	NaN
305	1.000000	0.800796	7.36805e+06	-53889.1	955.82	-29745.4	0.000000	0.000000	6.801055	0.011877	NaN	0.000000	0.001653	0.001681	28.0788	0.124963	0.001832	68.1938	137.998	11.3177	-0.062034	0.799444	-0.167311	-0.168663	0.011877	68.1938	-0.167441	-37.073	-0.000320	NaN
305	1.000000	0.838799	7.36805e+06	-53889.1	955.819	-29745.4	0.000000	0.000000	6.839058	-0.001555	NaN	0.000000	0.001612	0.001661	28.079	0.120125	0.001929	62.2652	-167.743	-164.811	-0.063308	0.837628	-0.129308	-0.130479	-0.001555	62.2652	-0.129289	-7.382201	0.000211	NaN
305	1.000000	0.876840	7.36805e+06	-53889.1	955.818	-29745.4	0.000000	0.000000	6.877099	0.005338	NaN	0.000000	0.001641	0.001653	28.0789	0.128566	0.001943	66.174	171.423	14.733	0.009451	0.875517	-0.091267	-0.092589	0.005338	66.174	-0.091327	-1.161006	-0.004598	NaN
305	1.000000	0.914850	7.36805e+06	-53889.1	955.818	-29745.4	0.000000	0.000000	6.915110	0.021140	NaN	0.000000	0.001604	0.001680	28.0779	0.028230	0.001964	14.3714	-163.108	-167.31	0.137181	0.913569	-0.053256	-0.054538	0.021140	14.3714	-0.054359	-0.123275	-0.171484	NaN
305	1.000000	0.952869	7.36805e+06	-53889.1	955.819	-29745.4	0.000000	0.000000	6.953126	-0.047548	NaN	0.000000	0.001588	0.001681	28.0778	0.048870	0.001889	25.8667	-142.571	12.4717	0.031432	0.951489	-0.015237	-0.016617	-0.047548	25.8667	-0.013859	-0.008601	5.528399	NaN
305	2.000000	0.982488	7.36805e+06	-53889.1	955.818	-29745.4	0.000000	0.000000	6.983198	10.9732	NaN	0.000000	0.001629	0.001717	28.0786	10.7744	0.001765	6103.22	8.208902	-173.944	10.7186	0.982230	0.014381	0.014124	10.9732	6103.22	0.013033	0.012751	860.57	49380.8
305	2.000000	0.991949	7.36805e+06	-53889.1	955.818	-29745.4	0.000000	0.000000	6.993289	26.2977	NaN	0.000000	0.001626	0.001660	28.0789	20.5739	0.001938	10617.5	8.367185	1.930272	26.1596	0.991567	0.023842	0.023461	26.2977	10617.5	0.021984	0.025757	1020.99	60443.3
305	2.000000	1.001393	7.36805e+06	-53889.1	955.818	-29745.4	0.000000	0.000000	7.003546	46.0479	NaN	0.000000	0.001633	0.001657	28.0798	28.1518	0.001800	15638.4	8.329112	177.415	44.2282	1.001097	0.033286	0.032990	46.0479	15638.4	0.031078	0.043008	1070.69	68895.7
305	2.000000	1.010872	7.36805e+06	-53889.1	955.818	-29745.4	0.000000	0.000000	7.014287	76.7233	NaN	0.000000	0.001628	0.001720	28.0793	35.144	0.001747	20116.7	5.436883	-1.390726	74.0251	1.010498	0.042766	0.042392	76.7233	20116.7	0.039905	0.063783	1202.88	72773.9
305	2.000000	1.020364	7.36805e+06	-53889.1	955.818	-29745.4	0.000000	0.000000	7.025453	117.428	NaN	0.000000	0.001705	0.001722	28.0791	44.5494	0.001758	25344.4	5.316808	176.299	115.671	1.020019	0.052258	0.051913	117.428	25344.4	0.048783	0.088688	1324.06	77754
305	2.000000	1.029855	7.36805e+06	-53889.1	955.819	-29745.4	0.000000	0.000000	7.036558	156.661	NaN	0.000000	0.001606	0.001720	28.078	53.6923	0.001783	30114.3	5.001518	-5.231858	154.773	1.029497	0.061748	0.061391	156.661	30114.3	0.057847	0.118200	1325.38	80027.1
305	2.000000	1.039334	7.36805e+06	-53889.1	955.819	-29745.4	0.000000	0.000000	7.047832	200.3	NaN	0.000000	0.001615	0.001704	28.0777	62.3019	0.001821	34221	3.619447	176.057	199.038	1.039011	0.071227	0.070904	200.3	34221	0.066837	0.151461	1322.45	80336.9
305	2.000000	1.048837	7.36805e+06	-53889.1	955.819	-29745.4	0.000000	0.000000	7.059480	252.452	NaN	0.000000	0.001676	0.001751	28.078	71.9649	0.001702	42293.8	3.342694	-6.199711	250.072	1.048466	0.080730	0.080360	252.452	42293.8	0.076253	0.190452	1325.54	88543.6
305	2.000000	1.058308	7.36805e+06	-53889.1	955.818	-29745.4	0.000000	0.000000	7.071660	318.322	NaN	0.000000	0.001674	0.001701	28.0779	81.5751	0.001923	42414.4	8.048031	170.454	316.795	1.057961	0.090201	0.089854	318.322	42414.4	0.084572	0.228365	1393.92	81090.8
305	2.000000	1.067827	7.36805e+06	-53889.1	955.819	-29745.4	0.000000	0.000000	7.084074	388.697	NaN	0.000000	0.001657	0.001693	28.0792	88.4008	0.001901	46514.2	7.713224	-10.0252	384.878	1.067343	0.099720	0.099236	388.697	46514.2	0.093453	0.272367	1427.11	81429.5
305	2.000000	1.077289	7.36806e+06	-53889.1	955.819	-29745.4	0.000000	0.000000	7.096158	452.425	NaN	0.000000	0.001652	0.001712	28.0788	95.8038	0.001696	56485	3.592202	172.246	451.438	1.077011	0.109183	0.108904	452.425	56485	0.103176	0.324677	1393.46	90569.2
305	2.000000	1.078397	7.36806e+06	-53889.1	955.818	-29745.4	0.000000	0.000000	7.097431	456.453	NaN	0.000000	0.001666	0.001740	28.0788	97.6689	0.001754	55686.3	3.522296	172.224	460.162	1.078021	0.110290	0.109914	456.453	55686.3	0.104142	0.330113	1382.72	88550.3

File: 2025-07-22_16-23-58_1_306.txt
2025-07-22, 16:23:58, 1
Index	Phase	Displacement	Time	Pos X	Pos Y	Pos Z	Rot A	Rot B	Piezo Z	Force A	Force B	Gripper	Voltage A	Voltage B	Temperature	Amplitude force	Amplitude pos	Stiffness	Phase shift	Phase excitation	Force A raw	Displacement raw	HMax	HMax raw	Real Force	Real Stiffness	Contact Depth	Area	Hardness	Reduced Mod.
[#]	[#]	[um]	[s]	[um]	[um]	[um]	[m°]	[m°]	[um]	[uN]	[uN]	[V]	[V]	[V]	[°C]	[uN]	[um]	[N/m]	[°]	[°]	[uN]	[um]	[um]	[um]	[uN]	[N/m]	[um]	[um^2]	[MPa]	[MPa]
306	1.000000	0.002268	7.36806e+06	-53939.1	955.819	-29745.1	0.000000	0.000000	6.002828	0.006612	NaN	0.000000	0.001562	0.001773	28.0797	0.170703	0.000882	193.47	54.0734	-157.831	-0.093866	0.001000	-1.039171	-1.040439	0.006612	193.47	-1.039197	-7.641310E+13	-8.652644E-17	NaN
306	1.000000	0.042185	7.36806e+06	-53939.1	955.819	-29745.2	0.000000	0.000000	6.042745	-0.010121	NaN	0.000000	0.001591	0.001735	28.0801	0.099121	0.001936	51.1917	166.53	-164.917	-0.025926	0.040864	-0.999254	-1.000575	-0.010121	51.1917	-0.999105	-2.206600E+13	4.586860E-16	NaN
306	1.000000	0.082201	7.36806e+06	-53939.1	955.819	-29745.2	0.000000	0.000000	6.082760	-0.023991	NaN	0.000000	0.001612	0.001716	28.0814	0.071336	0.001862	38.3151	-98.3162	-163.308	0.007076	0.080888	-0.959238	-0.960551	-0.023991	38.3151	-0.958768	-6.313415E+12	3.799992E-15	NaN
306	1.000000	0.122216	7.36806e+06	-53939.1	955.819	-29745.2	0.000000	0.000000	6.122774	-0.054635	NaN	0.000000	0.001623	0.001774	28.0813	0.083894	0.001999	41.9777	37.7598	-164.089	-0.070511	0.120933	-0.919223	-0.920506	-0.054635	41.9777	-0.918247	-1.792817E+12	3.047454E-14	NaN
306	1.000000	0.162217	7.36806e+06	-53939.1	955.82	-29745.2	0.000000	0.000000	6.162777	-0.024141	NaN	0.000000	0.001643	0.001691	28.081	0.027930	0.001994	14.0047	-50.3205	-164.161	-0.033932	0.160958	-0.879222	-0.880481	-0.024141	14.0047	-0.877929	-5.113237E+11	4.721200E-14	NaN
306	1.000000	0.202237	7.36806e+06	-53939.1	955.818	-29745.2	0.000000	0.000000	6.202798	0.026038	NaN	0.000000	0.001652	0.001731	28.0798	0.095911	0.001988	48.2437	90.816	-166.014	0.103618	0.200959	-0.839202	-0.840480	0.026038	48.2437	-0.839607	-1.548703E+11	-1.681264E-13	NaN
306	1.000000	0.242281	7.36806e+06	-53939.1	955.818	-29745.2	0.000000	0.000000	6.242841	-0.008068	NaN	0.000000	0.001612	0.001696	28.0797	0.126196	0.002018	62.5328	-157.884	-163.192	0.039112	0.240955	-0.799158	-0.800484	-0.008068	62.5328	-0.799061	-4.366380E+10	1.847823E-13	NaN
306	1.000000	0.282290	7.36806e+06	-53939.1	955.818	-29745.2	0.000000	0.000000	6.282850	-0.009512	NaN	0.000000	0.001590	0.001641	28.0796	0.134509	0.002005	67.0864	-64.7852	-167.062	-0.017509	0.280978	-0.759149	-0.760461	-0.009512	67.0864	-0.759042	-1.248168E+10	7.620538E-13	NaN
306	1.000000	0.322297	7.36806e+06	-53939.1	955.819	-29745.2	0.000000	0.000000	6.322855	-0.050534	NaN	0.000000	0.001635	0.001640	28.0802	0.089898	0.001967	45.6922	-168.036	-167.616	-0.126922	0.320995	-0.719142	-0.720444	-0.050534	45.6922	-0.718313	-3.479067E+9	1.452504E-11	NaN
306	1.000000	0.362312	7.36806e+06	-53939.1	955.819	-29745.2	0.000000	0.000000	6.362868	-0.098670	NaN	0.000000	0.001609	0.001605	28.0814	0.118849	0.001854	64.1114	-147.941	-163.846	-0.121907	0.361046	-0.679127	-0.680393	-0.098670	64.1114	-0.677972	-9.783021E+8	1.008588E-10	NaN
306	1.000000	0.402330	7.36806e+06	-53939.1	955.819	-29745.2	0.000000	0.000000	6.402888	-0.052424	NaN	0.000000	0.001644	0.001622	28.0814	0.055762	0.001946	28.6537	67.6172	-165.513	-0.011095	0.400994	-0.639109	-0.640445	-0.052424	28.6537	-0.637736	-2.749345E+8	1.906796E-10	NaN
306	1.000000	0.442348	7.36806e+06	-53939.1	955.819	-29745.2	0.000000	0.000000	6.442906	-0.040000	NaN	0.000000	0.001571	0.001651	28.0814	0.081511	0.002050	39.7651	42.1356	-162.649	-0.076855	0.441055	-0.599091	-0.600384	-0.040000	39.7651	-0.598337	-7.898605E+7	5.064247E-10	NaN
306	1.000000	0.482381	7.36806e+06	-53939.1	955.819	-29745.2	0.000000	0.000000	6.482939	-0.048844	NaN	0.000000	0.001598	0.001620	28.0802	0.056828	0.002110	26.9348	-50.9494	-166.621	-0.102349	0.481111	-0.559058	-0.560328	-0.048844	26.9348	-0.557698	-2.170316E+7	2.250531E-9	NaN
306	1.000000	0.522379	7.36806e+06	-53939.1	955.819	-29745.2	0.000000	0.000000	6.522937	-0.045045	NaN	0.000000	0.001603	0.001613	28.08	0.152393	0.001911	79.7297	-18.921	-165.398	0.015809	0.521044	-0.519060	-0.520395	-0.045045	79.7297	-0.518636	-6.23203e+06	7.227976E-9	NaN
306	1.000000	0.562397	7.36806e+06	-53939.1	955.818	-29745.2	0.000000	0.000000	6.562957	-0.008280	NaN	0.000000	0.001585	0.001604	28.0802	0.068619	0.001884	36.4263	153.855	-162.883	0.013313	0.561094	-0.479042	-0.480345	-0.008280	36.4263	-0.478871	-1.73669e+06	4.767853E-9	NaN
306	1.000000	0.602426	7.36806e+06	-53939.1	955.819	-29745.2	0.000000	0.000000	6.602984	-0.051097	NaN	0.000000	0.001522	0.001655	28.0814	0.055120	0.001784	30.8985	58.8608	-167.853	-0.012496	0.601104	-0.439013	-0.440335	-0.051097	30.8985	-0.437773	-459111	1.112959E-7	NaN
306	1.000000	0.642448	7.36806e+06	-53939.1	955.819	-29745.2	0.000000	0.000000	6.643009	0.018358	NaN	0.000000	0.001583	0.001651	28.081	0.025866	0.001926	13.4319	-45.6597	-164.903	-0.049959	0.641149	-0.398991	-0.400290	0.018358	13.4319	-0.400016	-133726	-1.372800E-7	NaN
306	1.000000	0.682463	7.36806e+06	-53939.1	955.818	-29745.2	0.000000	0.000000	6.683019	-0.081160	NaN	0.000000	0.001636	0.001657	28.0808	0.069587	0.002003	34.7493	-131.613	-162.747	-0.114137	0.681135	-0.358976	-0.360304	-0.081160	34.7493	-0.357225	-32486.6	2.498268E-6	NaN
306	1.000000	0.722485	7.36806e+06	-53939.1	955.818	-29745.2	0.000000	0.000000	6.723044	-0.039453	NaN	0.000000	0.001692	0.001640	28.0809	0.071895	0.001869	38.474	134.022	-166.806	-0.023169	0.721096	-0.318954	-0.320343	-0.039453	38.474	-0.318185	-8747.98	4.509959E-6	NaN
306	1.000000	0.762505	7.36806e+06	-53939.1	955.819	-29745.2	0.000000	0.000000	6.763063	-0.033747	NaN	0.000000	0.001719	0.001606	28.0799	0.087934	0.002019	43.553	14.9318	-166.459	-0.055456	0.761213	-0.278934	-0.280226	-0.033747	43.553	-0.278353	-2229.01	1.513971E-5	NaN
306	1.000000	0.802536	7.36806e+06	-53939.1	955.818	-29745.2	0.000000	0.000000	6.803092	-0.100444	NaN	0.000000	0.001610	0.001604	28.0796	0.123562	0.001959	63.0672	88.216	-165.264	-0.063160	0.801248	-0.238903	-0.240191	-0.100444	63.0672	-0.237708	-529.316	0.000190	NaN
306	1.000000	0.842550	7.36806e+06	-53939.1	955.819	-29745.2	0.000000	0.000000	6.843109	-0.023044	NaN	0.000000	0.001607	0.001625	28.0797	0.123551	0.002087	59.2102	-114.554	-163.648	0.037394	0.841230	-0.198889	-0.200209	-0.023044	59.2102	-0.198597	-124.918	0.000184	NaN
306	1.000000	0.882523	7.36806e+06	-53939.1	955.819	-29745.2	0.000000	0.000000	6.883080	-0.056230	NaN	0.000000	0.001592	0.001656	28.0813	0.073371	0.002064	35.5439	74.1043	-166.814	-0.018272	0.881213	-0.158916	-0.160226	-0.056230	35.5439	-0.157730	-24.9765	0.002251	NaN
306	1.000000	0.922561	7.36806e+06	-53939.1	955.818	-29745.2	0.000000	0.000000	6.923122	0.007898	NaN	0.000000	0.001622	0.001652	28.0815	0.126991	0.001890	67.1755	4.292428	-162.89	0.023070	0.921201	-0.118878	-0.120238	0.007898	67.1755	-0.118966	-4.604315	-0.001715	NaN
306	1.000000	0.962565	7.36806e+06	-53939.1	955.817	-29745.2	0.000000	0.000000	6.963125	-0.000855	NaN	0.000000	0.001606	0.001689	28.0816	0.059824	0.002039	29.3362	83.7144	-165.173	-0.013589	0.961296	-0.078874	-0.080143	-0.000855	29.3362	-0.078852	-0.579259	0.001476	NaN
306	1.000000	1.002571	7.36806e+06	-53939.1	955.82	-29745.2	0.000000	0.000000	7.003129	-0.061209	NaN	0.000000	0.001600	0.001655	28.0813	0.030804	0.002093	14.721	20.701	-166.401	0.020256	1.001269	-0.038868	-0.040170	-0.061209	14.721	-0.035749	-0.033699	1.816324	NaN
306	1.000000	1.042606	7.36806e+06	-53939.1	955.817	-29745.2	0.000000	0.000000	7.043177	0.270978	NaN	0.000000	0.001562	0.001648	28.0799	0.718993	0.001992	361.005	9.492899	-163.721	-0.059797	1.041309	0.001167	-0.000130	0.270978	361.005	0.000604	0.000457	593.498	15435.8
306	2.000000	1.059151	7.36806e+06	-53939.1	955.819	-29745.2	0.000000	0.000000	7.060557	20.5543	NaN	0.000000	0.001600	0.001649	28.0799	17.9516	0.001834	9790.36	7.815118	-175.739	20.5011	1.058848	0.017712	0.017409	20.5543	9790.36	0.016138	0.016833	1221.08	68943.6
306	2.000000	1.069080	7.36806e+06	-53939.1	955.818	-29745.2	0.000000	0.000000	7.071477	44.672	NaN	0.000000	0.001639	0.001577	28.0802	28.2219	0.001823	15478.1	5.744507	-179.402	42.9371	1.068793	0.027641	0.027354	44.672	15478.1	0.025476	0.031887	1400.93	79192
306	2.000000	1.079057	7.36806e+06	-53939.1	955.818	-29745.2	0.000000	0.000000	7.083038	83.171	NaN	0.000000	0.001688	0.001580	28.0815	37.751	0.001823	20706.8	6.501406	178.413	81.1977	1.078723	0.037618	0.037284	83.171	20706.8	0.034605	0.050831	1636.23	83911.5
306	2.000000	1.089047	7.36806e+06	-53939.1	955.818	-29745.2	0.000000	0.000000	7.094665	122.951	NaN	0.000000	0.001613	0.001581	28.0814	48.6104	0.001906	25503.2	2.480216	-178.59	121.47	1.088725	0.047608	0.047286	122.951	25503.2	0.043993	0.074753	1644.76	85222.5
306	2.000000	1.099057	7.36806e+06	-53939.1	955.818	-29745.2	0.000000	0.000000	7.106524	167.901	NaN	0.000000	0.001619	0.001588	28.0815	60.0509	0.001925	31190.9	8.095859	173.149	167.653	1.098765	0.057619	0.057326	167.901	31190.9	0.053581	0.103803	1617.49	88449.5
306	2.000000	1.109043	7.36806e+06	-53939.1	955.819	-29745.2	0.000000	0.000000	7.118694	221.022	NaN	0.000000	0.001599	0.001565	28.08	67.932	0.001911	35552.2	5.126734	175.275	220.229	1.108736	0.067604	0.067297	221.022	35552.2	0.062941	0.136567	1618.42	87895.7
306	2.000000	1.119095	7.36806e+06	-53939.1	955.816	-29745.2	0.000000	0.000000	7.130865	272.52	NaN	0.000000	0.001605	0.001593	28.0801	76.9692	0.001823	42210	3.104030	175.07	272.837	1.118906	0.077656	0.077467	272.52	42210	0.072814	0.175723	1550.85	91997.3
306	2.000000	1.128982	7.36806e+06	-53939.1	955.818	-29745.2	0.000000	0.000000	7.144192	356.171	NaN	0.000000	0.001646	0.001567	28.0801	86.2544	0.001834	47041.2	2.544657	175.849	354.313	1.128703	0.087543	0.087264	356.171	47041.2	0.081864	0.215671	1651.46	92545.7
306	2.000000	1.138999	7.36806e+06	-53939.1	955.818	-29745.2	0.000000	0.000000	7.157372	433.054	NaN	0.000000	0.001611	0.001583	28.0801	96.1432	0.001749	54958.7	1.717370	175.791	431.252	1.138603	0.097560	0.097164	433.054	54958.7	0.091651	0.263146	1645.68	97883.9
306	2.000000	1.148904	7.36806e+06	-53939.1	955.819	-29745.2	0.000000	0.000000	7.170703	516.339	NaN	0.000000	0.001666	0.001677	28.0813	106.992	0.001829	58484.8	8.414987	167.595	511.531	1.148682	0.107465	0.107243	516.339	58484.8	0.100844	0.311739	1656.32	95701.8
306	2.000000	1.149939	7.36806e+06	-53939.1	955.819	-29745.2	0.000000	0.000000	7.172290	529.791	NaN	0.000000	0.001641	0.001674	28.0816	107.725	0.001837	58648.7	8.672393	167.578	525.777	1.149666	0.108500	0.108227	529.791	58648.7	0.101725	0.316598	1673.39	95230.8