Folder: unikorn_login/remote_trans/data/nanoindenter/0828-1/data/Data_2025-08-06,11h17m57s (part 28)

File: 2025-07-22_16-23-58_1_54.txt
2025-07-22, 16:23:58, 1
Index	Phase	Displacement	Time	Pos X	Pos Y	Pos Z	Rot A	Rot B	Piezo Z	Force A	Force B	Gripper	Voltage A	Voltage B	Temperature	Amplitude force	Amplitude pos	Stiffness	Phase shift	Phase excitation	Force A raw	Displacement raw	HMax	HMax raw	Real Force	Real Stiffness	Contact Depth	Area	Hardness	Reduced Mod.
[#]	[#]	[um]	[s]	[um]	[um]	[um]	[m°]	[m°]	[um]	[uN]	[uN]	[V]	[V]	[V]	[°C]	[uN]	[um]	[N/m]	[°]	[°]	[uN]	[um]	[um]	[um]	[uN]	[N/m]	[um]	[um^2]	[MPa]	[MPa]
54	1.000000	0.002409	7.36557e+06	-41339.1	955.818	-29787.2	0.000000	0.000000	6.002787	-0.080306	NaN	0.000000	0.001624	0.001716	28.126	0.083549	0.000952	87.7266	-99.7704	-157.93	-0.068594	0.001169	-1.076559	-1.077799	-0.080306	87.7266	-1.075873	-2.377297E+14	3.378032E-16	NaN
54	1.000000	0.042357	7.36557e+06	-41339.1	955.818	-29787.2	0.000000	0.000000	6.042739	0.002602	NaN	0.000000	0.001594	0.001720	28.1266	0.100006	0.002001	49.9773	108.649	-164.383	-0.005641	0.041064	-1.036611	-1.037904	0.002602	49.9773	-1.036650	-7.061922E+13	-3.685232E-17	NaN
54	1.000000	0.082358	7.36557e+06	-41339.1	955.819	-29787.2	0.000000	0.000000	6.082736	-0.076806	NaN	0.000000	0.001562	0.001688	28.1253	0.110228	0.002075	53.11	3.328641	-166.603	-0.134443	0.081121	-0.996610	-0.997847	-0.076806	53.11	-0.995526	-1.974797E+13	3.889334E-15	NaN
54	1.000000	0.122414	7.36557e+06	-41339.1	955.82	-29787.2	0.000000	0.000000	6.122796	0.001295	NaN	0.000000	0.001617	0.001673	28.1251	0.048613	0.001991	24.4209	157.728	-164.532	-0.025142	0.121066	-0.956554	-0.957902	0.001295	24.4209	-0.956594	-5.901221E+12	-2.195174E-16	NaN
54	1.000000	0.162409	7.36557e+06	-41339.1	955.819	-29787.2	0.000000	0.000000	6.162791	0.011021	NaN	0.000000	0.001593	0.001735	28.1238	0.031178	0.002065	15.0959	30.9921	-163.632	0.033117	0.161049	-0.916559	-0.917919	0.011021	15.0959	-0.917106	-1.730353E+12	-6.369277E-15	NaN
54	1.000000	0.202432	7.36557e+06	-41339.1	955.818	-29787.2	0.000000	0.000000	6.202812	-0.059332	NaN	0.000000	0.001641	0.001716	28.1261	0.075573	0.001971	38.3345	69.2907	-164.827	-0.090590	0.201151	-0.876536	-0.877817	-0.059332	38.3345	-0.875375	-4.722315E+11	1.256422E-13	NaN
54	1.000000	0.242430	7.36557e+06	-41339.1	955.818	-29787.2	0.000000	0.000000	6.242809	-0.049298	NaN	0.000000	0.001625	0.001694	28.1252	0.115695	0.001953	59.2377	167.448	-165.89	-0.065208	0.241127	-0.836538	-0.837841	-0.049298	59.2377	-0.835914	-1.380172E+11	3.571855E-13	NaN
54	1.000000	0.282472	7.36557e+06	-41339.1	955.818	-29787.2	0.000000	0.000000	6.282851	-0.064129	NaN	0.000000	0.001626	0.001744	28.1251	0.145848	0.001978	73.7472	-93.2914	-164.633	0.004683	0.281174	-0.796497	-0.797795	-0.064129	73.7472	-0.795844	-3.948628E+10	1.624096E-12	NaN
54	1.000000	0.322454	7.36557e+06	-41339.1	955.818	-29787.2	0.000000	0.000000	6.322834	-0.041962	NaN	0.000000	0.001602	0.001740	28.1244	0.112324	0.002032	55.2749	91.1972	-164.37	0.064623	0.321192	-0.756514	-0.757776	-0.041962	55.2749	-0.755945	-1.132739E+10	3.704441E-12	NaN
54	1.000000	0.362505	7.36557e+06	-41339.1	955.82	-29787.2	0.000000	0.000000	6.362889	0.039517	NaN	0.000000	0.001606	0.001775	28.125	0.067680	0.002005	33.7547	-132.473	-163.803	0.014816	0.361146	-0.716463	-0.717822	0.039517	33.7547	-0.717341	-3.374447E+9	-1.171068E-11	NaN
54	1.000000	0.402542	7.36557e+06	-41339.1	955.818	-29787.2	0.000000	0.000000	6.402922	-0.029458	NaN	0.000000	0.001584	0.001735	28.1225	0.106850	0.002051	52.1024	-63.7887	-166.046	-0.059067	0.401185	-0.676426	-0.677783	-0.029458	52.1024	-0.676002	-9.194347E+8	3.203911E-11	NaN
54	1.000000	0.442523	7.36557e+06	-41339.1	955.818	-29787.2	0.000000	0.000000	6.442904	-0.001519	NaN	0.000000	0.001620	0.001719	28.1236	0.092958	0.002077	44.7534	59.5287	-165.365	0.006924	0.441245	-0.636445	-0.637723	-0.001519	44.7534	-0.636420	-2.637297E+8	5.761469E-12	NaN
54	1.000000	0.482573	7.36557e+06	-41339.1	955.819	-29787.2	0.000000	0.000000	6.482955	0.004513	NaN	0.000000	0.001593	0.001689	28.1223	0.035198	0.001978	17.797	-45.6064	-167.948	0.012500	0.481261	-0.596395	-0.597707	0.004513	17.797	-0.596586	-7.471847E+7	-6.040448E-11	NaN
54	1.000000	0.522559	7.36557e+06	-41339.1	955.819	-29787.2	0.000000	0.000000	6.522942	0.036896	NaN	0.000000	0.001603	0.001759	28.1246	0.081221	0.002025	40.1122	85.5941	-165.758	-0.018763	0.521279	-0.556409	-0.557689	0.036896	40.1122	-0.557099	-2.129291E+7	-1.732800E-9	NaN
54	1.000000	0.562560	7.36557e+06	-41339.1	955.819	-29787.2	0.000000	0.000000	6.562941	-0.020015	NaN	0.000000	0.001590	0.001760	28.1233	0.094393	0.001970	47.9038	-69.2446	-165.106	-0.028780	0.561321	-0.516408	-0.517647	-0.020015	47.9038	-0.516095	-5.74476e+06	3.484128E-9	NaN
54	1.000000	0.602619	7.36557e+06	-41339.1	955.818	-29787.2	0.000000	0.000000	6.602998	-0.060068	NaN	0.000000	0.001593	0.001773	28.1241	0.027612	0.002011	13.7287	-81.9332	-164.42	-0.054436	0.601285	-0.476349	-0.477683	-0.060068	13.7287	-0.473067	-1.44018e+06	4.170866E-8	NaN
54	1.000000	0.642606	7.36557e+06	-41339.1	955.819	-29787.2	0.000000	0.000000	6.642985	-0.084438	NaN	0.000000	0.001576	0.001733	28.1218	0.081708	0.002057	39.7146	150.607	-163.939	-0.036156	0.641298	-0.436362	-0.437670	-0.084438	39.7146	-0.434767	-416355	2.028032E-7	NaN
54	1.000000	0.682627	7.36557e+06	-41339.1	955.819	-29787.2	0.000000	0.000000	6.683006	-0.066018	NaN	0.000000	0.001595	0.001745	28.123	0.080353	0.002126	37.7905	-37.7598	-162.75	0.010022	0.681346	-0.396341	-0.397622	-0.066018	37.7905	-0.395031	-113521	5.815499E-7	NaN
54	1.000000	0.722665	7.36558e+06	-41339.1	955.818	-29787.2	0.000000	0.000000	6.723044	-0.067112	NaN	0.000000	0.001595	0.001767	28.1212	0.121636	0.001949	62.4218	-148.695	-165.714	-0.108245	0.721323	-0.356303	-0.357645	-0.067112	62.4218	-0.355497	-30668.4	2.188312E-6	NaN
54	1.000000	0.762675	7.36558e+06	-41339.1	955.818	-29787.2	0.000000	0.000000	6.763056	-0.006133	NaN	0.000000	0.001593	0.001760	28.1226	0.041414	0.002010	20.6084	-10.8776	-165.465	0.008884	0.761371	-0.316294	-0.317597	-0.006133	20.6084	-0.316070	-8142.14	7.532266E-7	NaN
54	1.000000	0.802682	7.36558e+06	-41339.1	955.818	-29787.2	0.000000	0.000000	6.803061	-0.063431	NaN	0.000000	0.001630	0.001696	28.1223	0.087603	0.002007	43.6468	31.7686	-165.614	-0.082461	0.801373	-0.276286	-0.277595	-0.063431	43.6468	-0.275196	-1996.96	3.176366E-5	NaN
54	1.000000	0.842690	7.36558e+06	-41339.1	955.818	-29787.2	0.000000	0.000000	6.843071	-0.006372	NaN	0.000000	0.001561	0.001752	28.123	0.048392	0.001999	24.2119	-2.375162	-163.121	-0.045501	0.841423	-0.236278	-0.237545	-0.006372	24.2119	-0.236081	-499.122	1.276698E-5	NaN
54	1.000000	0.882723	7.36558e+06	-41339.1	955.818	-29787.2	0.000000	0.000000	6.883107	0.041921	NaN	0.000000	0.001560	0.001741	28.1224	0.062407	0.001964	31.7807	86.7028	-166.575	-0.040339	0.881446	-0.196245	-0.197522	0.041921	31.7807	-0.197234	-118.617	-0.000353	NaN
54	1.000000	0.922752	7.36558e+06	-41339.1	955.818	-29787.2	0.000000	0.000000	6.923133	-0.026563	NaN	0.000000	0.001601	0.001736	28.1219	0.056046	0.002045	27.4013	-86.6093	-163.82	-0.071885	0.921399	-0.156216	-0.157569	-0.026563	27.4013	-0.155489	-22.7703	0.001167	NaN
54	1.000000	0.962755	7.36558e+06	-41339.1	955.818	-29787.2	0.000000	0.000000	6.963137	-0.004017	NaN	0.000000	0.001565	0.001769	28.1207	0.089453	0.002042	43.8062	-124.984	-165.671	-0.010379	0.961465	-0.116213	-0.117503	-0.004017	43.8062	-0.116144	-4.033017	0.000996	NaN
54	1.000000	1.002763	7.36558e+06	-41339.1	955.818	-29787.2	0.000000	0.000000	7.003145	0.020254	NaN	0.000000	0.001543	0.001745	28.121	0.055021	0.001975	27.8638	-89.453	-164.419	0.013740	1.001471	-0.076205	-0.077497	0.020254	27.8638	-0.076750	-0.512308	-0.039536	NaN
54	1.000000	1.042781	7.36558e+06	-41339.1	955.818	-29787.2	0.000000	0.000000	7.043161	-0.052306	NaN	0.000000	0.001565	0.001711	28.1197	0.069970	0.002002	34.9574	123.534	-164.325	0.002326	1.041464	-0.036187	-0.037504	-0.052306	34.9574	-0.035065	-0.032165	1.626181	NaN
54	1.000000	1.082763	7.36558e+06	-41339.1	955.818	-29787.2	0.000000	0.000000	7.083292	3.586703	NaN	0.000000	0.001544	0.001702	28.1218	4.215795	0.001885	2236.81	5.404335	-165.77	1.689726	1.081458	0.003795	0.002490	3.586703	2236.81	0.002592	0.002040	1758.53	45251.2
54	2.000000	1.096286	7.36558e+06	-41339.1	955.818	-29787.2	0.000000	0.000000	7.097526	20.875	NaN	0.000000	0.001567	0.001726	28.1206	17.5272	0.001819	9634.33	4.794373	-173.965	21.9113	1.096037	0.017318	0.017068	20.875	9634.33	0.015693	0.016221	1286.92	69112.5
54	2.000000	1.106252	7.36558e+06	-41339.1	955.818	-29787.2	0.000000	0.000000	7.108418	43.4177	NaN	0.000000	0.001541	0.001739	28.1214	28.1174	0.001676	16780.5	1.678118	-175.493	42.5277	1.105950	0.027284	0.026982	43.4177	16780.5	0.025344	0.031644	1372.08	86185.5
54	2.000000	1.116208	7.36558e+06	-41339.1	955.818	-29787.2	0.000000	0.000000	7.119670	74.9559	NaN	0.000000	0.001555	0.001718	28.1194	39.1285	0.001859	21046	7.424114	177.124	73.8715	1.115949	0.037240	0.036981	74.9559	21046	0.034569	0.050747	1477.04	85356.6
54	2.000000	1.126180	7.36558e+06	-41339.1	955.819	-29787.2	0.000000	0.000000	7.131155	111.766	NaN	0.000000	0.001604	0.001744	28.1201	47.3353	0.001839	25734.9	4.348713	178.999	109.621	1.125893	0.047212	0.046924	111.766	25734.9	0.043955	0.074647	1497.26	86057.7
54	2.000000	1.136244	7.36558e+06	-41339.1	955.819	-29787.2	0.000000	0.000000	7.143443	165.89	NaN	0.000000	0.001601	0.001720	28.1188	57.4462	0.001846	31115.5	5.973597	176.584	165.635	1.135783	0.057276	0.056815	165.89	31115.5	0.053277	0.102811	1613.54	88660.4
54	2.000000	1.146193	7.36558e+06	-41339.1	955.819	-29787.2	0.000000	0.000000	7.155616	220.007	NaN	0.000000	0.001617	0.001672	28.1212	67.7616	0.001824	37146.7	7.858581	172.837	220.522	1.145755	0.067225	0.066787	220.007	37146.7	0.062783	0.135975	1617.99	92037.2
54	2.000000	1.156147	7.36558e+06	-41339.1	955.818	-29787.2	0.000000	0.000000	7.168381	288.379	NaN	0.000000	0.001601	0.001724	28.1201	77.9622	0.001840	42374.3	4.309242	174.214	285.243	1.155824	0.077179	0.076856	288.379	42374.3	0.072075	0.172632	1670.49	93178.3
54	2.000000	1.166153	7.36558e+06	-41339.1	955.818	-29787.2	0.000000	0.000000	7.181423	362.252	NaN	0.000000	0.001564	0.001729	28.1212	87.4522	0.001754	49855.8	3.767690	173.943	361.667	1.165825	0.087185	0.086857	362.252	49855.8	0.081736	0.215077	1684.29	98218.2
54	2.000000	1.176114	7.36558e+06	-41339.1	955.817	-29787.2	0.000000	0.000000	7.194969	449.508	NaN	0.000000	0.001610	0.001760	28.1193	98.16	0.001798	54608.6	4.133631	172.699	446.662	1.175844	0.097146	0.096876	449.508	54608.6	0.090972	0.259712	1730.79	97901.2
54	2.000000	1.186121	7.36558e+06	-41339.1	955.819	-29787.2	0.000000	0.000000	7.209309	554.952	NaN	0.000000	0.001675	0.001737	28.1193	107.957	0.001914	56405.3	7.802123	170.161	554.013	1.185789	0.107152	0.106821	554.952	56405.3	0.099774	0.305884	1814.26	93178.2

File: 2025-07-22_16-23-58_1_55.txt
2025-07-22, 16:23:58, 1
Index	Phase	Displacement	Time	Pos X	Pos Y	Pos Z	Rot A	Rot B	Piezo Z	Force A	Force B	Gripper	Voltage A	Voltage B	Temperature	Amplitude force	Amplitude pos	Stiffness	Phase shift	Phase excitation	Force A raw	Displacement raw	HMax	HMax raw	Real Force	Real Stiffness	Contact Depth	Area	Hardness	Reduced Mod.
[#]	[#]	[um]	[s]	[um]	[um]	[um]	[m°]	[m°]	[um]	[uN]	[uN]	[V]	[V]	[V]	[°C]	[uN]	[um]	[N/m]	[°]	[°]	[uN]	[um]	[um]	[um]	[uN]	[N/m]	[um]	[um^2]	[MPa]	[MPa]
55	1.000000	0.002474	7.36558e+06	-41389.1	955.817	-29787	0.000000	0.000000	6.002836	0.057738	NaN	0.000000	0.001595	0.001685	28.0821	0.109049	0.000947	115.136	-98.284	-163.96	0.029534	0.001186	-1.109337	-1.110625	0.057738	115.136	-1.109713	-6.767674E+14	-8.531382E-17	NaN
55	1.000000	0.044396	7.36558e+06	-41389.1	955.817	-29787	0.000000	0.000000	6.044756	0.022551	NaN	0.000000	0.001555	0.001695	28.1165	0.074622	0.001896	39.3654	83.3563	16.6836	0.059898	0.043034	-1.067415	-1.068777	0.022551	39.3654	-1.067845	-1.854545E+14	-1.215964E-16	NaN
55	1.000000	0.086430	7.36558e+06	-41389.1	955.819	-29787	0.000000	0.000000	6.086793	0.087306	NaN	0.000000	0.001592	0.001715	28.1252	0.106593	0.001956	54.5056	105.43	-162.303	0.054972	0.085069	-1.025381	-1.026742	0.087306	54.5056	-1.026582	-5.170191E+13	-1.688649E-15	NaN
55	1.000000	0.128435	7.36558e+06	-41389.1	955.819	-29787	0.000000	0.000000	6.128795	0.016707	NaN	0.000000	0.001599	0.001735	28.0864	0.126210	0.002005	62.9439	-28.0366	15.5629	0.002098	0.127088	-0.983376	-0.984723	0.016707	62.9439	-0.983575	-1.363232E+13	-1.225570E-15	NaN
55	1.000000	0.170451	7.36558e+06	-41389.1	955.818	-29787	0.000000	0.000000	6.170808	-0.036398	NaN	0.000000	0.001544	0.001745	28.0799	0.009380	0.001951	4.808878	-113.879	-165.04	-0.133565	0.169195	-0.941360	-0.942616	-0.036398	4.808878	-0.935684	-3.082474E+12	1.180813E-14	NaN
55	1.000000	0.212488	7.36558e+06	-41389.1	955.818	-29787	0.000000	0.000000	6.212846	-0.034805	NaN	0.000000	0.001571	0.001756	28.114	0.054693	0.002023	27.0318	97.1441	14.0157	-0.030052	0.211031	-0.899323	-0.900780	-0.034805	27.0318	-0.898357	-9.657607E+11	3.603886E-14	NaN
55	1.000000	0.254470	7.36558e+06	-41389.1	955.818	-29787	0.000000	0.000000	6.254824	-0.120913	NaN	0.000000	0.001662	0.001744	28.1269	0.064434	0.002038	31.6237	53.9534	-168.265	-0.064596	0.253108	-0.857341	-0.858703	-0.120913	31.6237	-0.854474	-2.462148E+11	4.910856E-13	NaN
55	1.000000	0.296511	7.36558e+06	-41389.1	955.818	-29787	0.000000	0.000000	6.296870	-0.017034	NaN	0.000000	0.001546	0.001727	28.0891	0.028982	0.001954	14.8342	76.7861	18.2059	-0.069330	0.295133	-0.815300	-0.816678	-0.017034	14.8342	-0.814439	-7.059701E+10	2.412880E-13	NaN
55	1.000000	0.338510	7.36558e+06	-41389.1	955.818	-29787	0.000000	0.000000	6.338867	-0.064446	NaN	0.000000	0.001550	0.001727	28.0826	0.115677	0.001925	60.1065	119.757	-163.091	-0.086790	0.337227	-0.773301	-0.774584	-0.064446	60.1065	-0.772497	-1.902181E+10	3.388011E-12	NaN
55	1.000000	0.380499	7.36558e+06	-41389.1	955.818	-29787	0.000000	0.000000	6.380856	-0.048990	NaN	0.000000	0.001623	0.001759	28.1132	0.059733	0.002053	29.1023	64.4838	16.2908	-0.058982	0.379185	-0.731312	-0.732626	-0.048990	29.1023	-0.730050	-5.029067E+9	9.741292E-12	NaN
55	1.000000	0.422556	7.36558e+06	-41389.1	955.818	-29787	0.000000	0.000000	6.422916	0.029169	NaN	0.000000	0.001590	0.001724	28.1252	0.096067	0.002079	46.2125	-10.7618	-165.761	0.072057	0.421294	-0.689255	-0.690517	0.029169	46.2125	-0.689729	-1.416478E+9	-2.059269E-11	NaN
55	1.000000	0.464580	7.36558e+06	-41389.1	955.818	-29787	0.000000	0.000000	6.464938	-0.024805	NaN	0.000000	0.001591	0.001713	28.0888	0.110112	0.001994	55.2132	-171.771	18.1795	0.007852	0.463233	-0.647231	-0.648578	-0.024805	55.2132	-0.646894	-3.671560E+8	6.755942E-11	NaN
55	1.000000	0.506582	7.36558e+06	-41389.1	955.819	-29787	0.000000	0.000000	6.506942	0.003847	NaN	0.000000	0.001591	0.001725	28.0815	0.121942	0.002056	59.3246	-23.63	-164.987	-0.013924	0.505189	-0.605229	-0.606622	0.003847	59.3246	-0.605277	-9.842880E+7	-3.907966E-11	NaN
55	1.000000	0.548595	7.36558e+06	-41389.1	955.818	-29787	0.000000	0.000000	6.548953	-0.047215	NaN	0.000000	0.001572	0.001754	28.1129	0.097367	0.002053	47.4155	-51.2553	12.3193	-0.078618	0.547233	-0.563216	-0.564578	-0.047215	47.4155	-0.562469	-2.526556E+7	1.868761E-9	NaN
55	1.000000	0.590636	7.36558e+06	-41389.1	955.818	-29787	0.000000	0.000000	6.590994	-0.031450	NaN	0.000000	0.001588	0.001679	28.1267	0.084665	0.002022	41.8623	-172.702	-162.654	-0.073551	0.589309	-0.521175	-0.522502	-0.031450	41.8623	-0.520612	-6.63908e+06	4.737033E-9	NaN
55	1.000000	0.632653	7.36558e+06	-41389.1	955.818	-29787	0.000000	0.000000	6.633011	-0.027987	NaN	0.000000	0.001532	0.001741	28.0891	0.061376	0.002115	29.0155	44.0102	17.9117	-0.089701	0.631308	-0.479158	-0.480503	-0.027987	29.0155	-0.478435	-1.71244e+06	1.634366E-8	NaN
55	1.000000	0.674683	7.36558e+06	-41389.1	955.819	-29787	0.000000	0.000000	6.675043	0.026821	NaN	0.000000	0.001535	0.001730	28.0798	0.107187	0.001988	53.9074	-97.1457	-166.139	-0.009037	0.673364	-0.437128	-0.438447	0.026821	53.9074	-0.437502	-455084	-5.893677E-8	NaN
55	1.000000	0.716684	7.36558e+06	-41389.1	955.819	-29787	0.000000	0.000000	6.717041	-0.068357	NaN	0.000000	0.001543	0.001723	28.1104	0.039607	0.002106	18.8091	128.208	16.5075	0.006063	0.715321	-0.395127	-0.396490	-0.068357	18.8091	-0.392401	-104113	6.565657E-7	NaN
55	1.000000	0.758689	7.36558e+06	-41389.1	955.819	-29787	0.000000	0.000000	6.759052	0.079017	NaN	0.000000	0.001578	0.001730	28.1257	0.020741	0.002087	9.935813	-95.3184	-164.691	0.035473	0.757358	-0.353122	-0.354453	0.079017	9.935813	-0.359086	-34564.8	-2.286059E-6	NaN
55	1.000000	0.800725	7.36558e+06	-41389.1	955.818	-29787	0.000000	0.000000	6.801082	-0.046300	NaN	0.000000	0.001603	0.001730	28.0887	0.096371	0.001956	49.2589	105.058	13.3496	-0.021304	0.799428	-0.311086	-0.312383	-0.046300	49.2589	-0.310381	-6709.65	6.900513E-6	NaN
55	1.000000	0.842717	7.36559e+06	-41389.1	955.819	-29787	0.000000	0.000000	6.843077	0.029913	NaN	0.000000	0.001569	0.001700	28.0812	0.057306	0.002007	28.5545	108.371	-161.871	0.001821	0.841434	-0.269095	-0.270377	0.029913	28.5545	-0.269880	-1658.53	-1.803553E-5	NaN
55	1.000000	0.884736	7.36559e+06	-41389.1	955.818	-29787	0.000000	0.000000	6.885094	-0.033129	NaN	0.000000	0.001581	0.001706	28.1101	0.090615	0.001971	45.9842	82.3423	18.7798	-0.042503	0.883441	-0.227075	-0.228370	-0.033129	45.9842	-0.226535	-352.932	9.386740E-5	NaN
55	1.000000	0.926749	7.36559e+06	-41389.1	955.818	-29787	0.000000	0.000000	6.927105	-0.079263	NaN	0.000000	0.001580	0.001736	28.128	0.087192	0.002021	43.1436	122.033	-162.75	-0.034206	0.925413	-0.185062	-0.186398	-0.079263	43.1436	-0.183685	-70.4586	0.001125	NaN
55	1.000000	0.968800	7.36559e+06	-41389.1	955.818	-29787	0.000000	0.000000	6.969158	-0.037965	NaN	0.000000	0.001523	0.001738	28.0869	0.034117	0.001970	17.3212	-76.2218	14.3666	-0.039565	0.967452	-0.143011	-0.144359	-0.037965	17.3212	-0.141367	-12.5483	0.003026	NaN
55	1.000000	1.010807	7.36559e+06	-41389.1	955.82	-29787	0.000000	0.000000	7.011165	-0.029445	NaN	0.000000	0.001555	0.001727	28.0806	0.054804	0.002038	26.8912	129.678	-166.217	-0.002258	1.009499	-0.101004	-0.102313	-0.029445	26.8912	-0.100183	-1.844272	0.015966	NaN
55	1.000000	1.052802	7.36559e+06	-41389.1	955.818	-29787	0.000000	0.000000	7.053161	0.008723	NaN	0.000000	0.001572	0.001775	28.108	0.121582	0.001947	62.4482	-101.635	11.9957	0.075966	1.051473	-0.059009	-0.060339	0.008723	62.4482	-0.059114	-0.169831	-0.051365	NaN
55	1.000000	1.094806	7.36559e+06	-41389.1	955.819	-29787	0.000000	0.000000	7.095163	-0.055307	NaN	0.000000	0.001578	0.001767	28.1291	0.086015	0.001992	43.1891	1.165592	-163.192	-0.014608	1.093512	-0.017005	-0.018299	-0.055307	43.1891	-0.016044	-0.009910	5.580780	NaN
55	2.000000	1.126936	7.36559e+06	-41389.1	955.819	-29787	0.000000	0.000000	7.127767	11.4697	NaN	0.000000	0.001529	0.001722	28.0885	11.751	0.001917	6128.8	7.952216	7.412097	10.0336	1.126613	0.015125	0.014802	11.4697	6128.8	0.013722	0.013618	842.217	47982.7
55	2.000000	1.137384	7.36559e+06	-41389.1	955.819	-29787	0.000000	0.000000	7.139074	32.3715	NaN	0.000000	0.001617	0.001745	28.0821	22.3217	0.001721	12972.6	6.207505	-176.651	31.8813	1.137059	0.025573	0.025248	32.3715	12972.6	0.023702	0.028696	1128.08	69966
55	2.000000	1.147849	7.36559e+06	-41389.1	955.819	-29787	0.000000	0.000000	7.150552	57.0317	NaN	0.000000	0.001587	0.001695	28.1068	33.1078	0.001730	19133.4	7.212578	-2.508823	54.8	1.147597	0.036038	0.035786	57.0317	19133.4	0.033802	0.048993	1164.07	78976.3
55	2.000000	1.158334	7.36559e+06	-41389.1	955.819	-29787	0.000000	0.000000	7.162734	98.3328	NaN	0.000000	0.001539	0.001731	28.1279	40.9558	0.001770	23141.1	4.100524	-179.651	96.9463	1.157967	0.046523	0.046156	98.3328	23141.1	0.043336	0.072933	1348.26	78287.9
55	2.000000	1.168804	7.36559e+06	-41389.1	955.819	-29787	0.000000	0.000000	7.174986	141.673	NaN	0.000000	0.001546	0.001705	28.0882	51.1617	0.001741	29384.4	0.113286	1.321999	137.952	1.168542	0.056993	0.056731	141.673	29384.4	0.053377	0.103137	1373.64	83595.5
55	2.000000	1.179278	7.36559e+06	-41389.1	955.819	-29787	0.000000	0.000000	7.187743	197.229	NaN	0.000000	0.001568	0.001719	28.082	61.6964	0.001815	33989.9	6.154613	174.49	192.648	1.178932	0.067467	0.067121	197.229	33989.9	0.063115	0.137215	1437.37	83834.5
55	2.000000	1.189817	7.36559e+06	-41389.1	955.819	-29787	0.000000	0.000000	7.201088	265.51	NaN	0.000000	0.001590	0.001718	28.1073	73.2306	0.001936	37828.3	6.153260	-6.307083	261.976	1.189392	0.078006	0.077581	265.51	37828.3	0.072742	0.175421	1513.56	82518.1
55	2.000000	1.200202	7.36559e+06	-41389.1	955.819	-29787	0.000000	0.000000	7.214780	345.985	NaN	0.000000	0.001585	0.001745	28.13	82.0259	0.001750	46860.4	-0.413236	178.238	339.136	1.199952	0.088390	0.088141	345.985	46860.4	0.082853	0.220266	1570.76	91223.2
55	2.000000	1.210760	7.36559e+06	-41389.1	955.819	-29787	0.000000	0.000000	7.228578	424.803	NaN	0.000000	0.001613	0.001727	28.0897	92.3655	0.001768	52232.8	6.757205	-9.459750	422.008	1.210423	0.098949	0.098612	424.803	52232.8	0.092850	0.269265	1577.64	91965.8
55	2.000000	1.221210	7.36559e+06	-41389.1	955.821	-29787	0.000000	0.000000	7.242612	512.032	NaN	0.000000	0.001579	0.001733	28.0805	101.518	0.001800	56390.2	5.755713	171.215	507.173	1.220873	0.109399	0.109062	512.032	56390.2	0.102588	0.321396	1593.15	90877.5
55	2.000000	1.222279	7.36559e+06	-41389.1	955.82	-29787	0.000000	0.000000	7.244135	523.069	NaN	0.000000	0.001562	0.001777	28.1289	102.202	0.001995	51240.1	6.666930	170.703	521.432	1.221924	0.110468	0.110113	523.069	51240.1	0.102812	0.322643	1621.2	82418