Folder: unikorn_login/remote_trans/data/nanoindenter/0828-1/data/Data_2025-08-06,11h17m57s (part 35)

File: 2025-07-22_16-23-58_1_68.txt
2025-07-22, 16:23:58, 1
Index	Phase	Displacement	Time	Pos X	Pos Y	Pos Z	Rot A	Rot B	Piezo Z	Force A	Force B	Gripper	Voltage A	Voltage B	Temperature	Amplitude force	Amplitude pos	Stiffness	Phase shift	Phase excitation	Force A raw	Displacement raw	HMax	HMax raw	Real Force	Real Stiffness	Contact Depth	Area	Hardness	Reduced Mod.
[#]	[#]	[um]	[s]	[um]	[um]	[um]	[m°]	[m°]	[um]	[uN]	[uN]	[V]	[V]	[V]	[°C]	[uN]	[um]	[N/m]	[°]	[°]	[uN]	[um]	[um]	[um]	[uN]	[N/m]	[um]	[um^2]	[MPa]	[MPa]
68	1.000000	0.002016	7.36571e+06	-42039.1	955.819	-29784.7	0.000000	0.000000	6.002810	-0.008813	NaN	0.000000	0.001551	0.001711	28.1132	0.018404	0.000943	19.5136	162.183	-155.26	-0.036180	0.000770	-1.055996	-1.057243	-0.008813	19.5136	-1.055657	-1.271919E+14	6.929219E-17	NaN
68	1.000000	0.041954	7.36571e+06	-42039.1	955.818	-29784.7	0.000000	0.000000	6.042749	0.014688	NaN	0.000000	0.001556	0.001718	28.1124	0.054400	0.001933	28.1497	1.007849	-163.09	0.007982	0.040660	-1.016059	-1.017352	0.014688	28.1497	-1.016450	-3.777313E+13	-3.888428E-16	NaN
68	1.000000	0.081992	7.36571e+06	-42039.1	955.818	-29784.7	0.000000	0.000000	6.082788	0.027253	NaN	0.000000	0.001584	0.001695	28.1149	0.030870	0.001968	15.6892	0.809139	-164.649	0.022938	0.080632	-0.976020	-0.977380	0.027253	15.6892	-0.977323	-1.122898E+13	-2.427036E-15	NaN
68	1.000000	0.121996	7.36571e+06	-42039.1	955.818	-29784.7	0.000000	0.000000	6.122789	-0.024792	NaN	0.000000	0.001551	0.001745	28.1121	0.081572	0.001966	41.4976	-84.228	-167.063	-0.086587	0.120631	-0.936016	-0.937381	-0.024792	41.4976	-0.935568	-3.071446E+12	8.071647E-15	NaN
68	1.000000	0.161991	7.36571e+06	-42039.1	955.819	-29784.7	0.000000	0.000000	6.162783	-0.049388	NaN	0.000000	0.001567	0.001746	28.1133	0.011324	0.001925	5.882705	120.684	-164.104	-0.069670	0.160734	-0.896022	-0.897279	-0.049388	5.882705	-0.889725	-7.382481E+11	6.689836E-14	NaN
68	1.000000	0.201987	7.36571e+06	-42039.1	955.819	-29784.7	0.000000	0.000000	6.202781	-0.017579	NaN	0.000000	0.001586	0.001709	28.1107	0.103998	0.002087	49.8211	-142.79	-167.502	-0.008511	0.200743	-0.856025	-0.857269	-0.017579	49.8211	-0.855760	-2.562904E+11	6.858857E-14	NaN
68	1.000000	0.242052	7.36571e+06	-42039.1	955.818	-29784.7	0.000000	0.000000	6.242847	0.014686	NaN	0.000000	0.001531	0.001712	28.1114	0.043021	0.002043	21.0536	-166.538	-163.981	0.040865	0.240745	-0.815961	-0.817268	0.014686	21.0536	-0.816484	-7.525324E+10	-1.951484E-13	NaN
68	1.000000	0.282088	7.36571e+06	-42039.1	955.818	-29784.7	0.000000	0.000000	6.282883	0.022000	NaN	0.000000	0.001569	0.001704	28.1099	0.115645	0.001966	58.833	89.5803	-165.93	0.046936	0.280822	-0.775924	-0.777191	0.022000	58.833	-0.776205	-2.136264E+10	-1.029829E-12	NaN
68	1.000000	0.322066	7.36571e+06	-42039.1	955.819	-29784.7	0.000000	0.000000	6.322859	-0.019210	NaN	0.000000	0.001528	0.001762	28.1103	0.083874	0.001833	45.7572	-136.006	-165.57	0.002437	0.320782	-0.735947	-0.737231	-0.019210	45.7572	-0.735632	-5.991712E+9	3.206074E-12	NaN
68	1.000000	0.362074	7.36571e+06	-42039.1	955.818	-29784.7	0.000000	0.000000	6.362870	0.026093	NaN	0.000000	0.001594	0.001725	28.1107	0.097372	0.001903	51.1748	-137.218	-161.55	0.085322	0.360785	-0.695938	-0.697228	0.026093	51.1748	-0.696320	-1.742912E+9	-1.497096E-11	NaN
68	1.000000	0.402106	7.36571e+06	-42039.1	955.818	-29784.7	0.000000	0.000000	6.402900	-0.006317	NaN	0.000000	0.001561	0.001663	28.1116	0.120863	0.002127	56.8326	99.3527	-165.849	-0.003497	0.400781	-0.655907	-0.657231	-0.006317	56.8326	-0.655823	-4.866877E+8	1.298058E-11	NaN
68	1.000000	0.442128	7.36571e+06	-42039.1	955.818	-29784.7	0.000000	0.000000	6.442924	0.032694	NaN	0.000000	0.001576	0.001712	28.1103	0.128881	0.002169	59.4114	-179.178	-163.974	-0.029448	0.440796	-0.615884	-0.617216	0.032694	59.4114	-0.616297	-1.395471E+8	-2.342845E-10	NaN
68	1.000000	0.482152	7.36571e+06	-42039.1	955.818	-29784.7	0.000000	0.000000	6.482945	-0.017830	NaN	0.000000	0.001563	0.001723	28.1101	0.077944	0.002130	36.587	99.2153	-164.541	-0.081929	0.480845	-0.575861	-0.577167	-0.017830	36.587	-0.575495	-3.824162E+7	4.662502E-10	NaN
68	1.000000	0.522138	7.36571e+06	-42039.1	955.818	-29784.7	0.000000	0.000000	6.522930	-0.047150	NaN	0.000000	0.001637	0.001698	28.1085	0.044464	0.002012	22.0989	-88.6337	-165.362	-0.009893	0.520865	-0.535875	-0.537147	-0.047150	22.0989	-0.534275	-1.027835E+7	4.587279E-9	NaN
68	1.000000	0.562186	7.36571e+06	-42039.1	955.819	-29784.7	0.000000	0.000000	6.562979	-0.019028	NaN	0.000000	0.001604	0.001705	28.1094	0.086197	0.002066	41.7155	-142.843	-163.829	-0.014261	0.560873	-0.495827	-0.497139	-0.019028	41.7155	-0.495485	-2.96484e+06	6.417778E-9	NaN
68	1.000000	0.602210	7.36571e+06	-42039.1	955.818	-29784.7	0.000000	0.000000	6.603002	-0.053245	NaN	0.000000	0.001566	0.001724	28.1078	0.039306	0.002039	19.2799	26.3886	-163.46	-0.104447	0.600879	-0.455802	-0.457133	-0.053245	19.2799	-0.453731	-770661	6.909033E-8	NaN
68	1.000000	0.642196	7.36571e+06	-42039.1	955.818	-29784.7	0.000000	0.000000	6.642988	-0.066788	NaN	0.000000	0.001616	0.001748	28.1103	0.106855	0.002048	52.1741	65.5401	-163.891	-0.061610	0.640891	-0.415816	-0.417121	-0.066788	52.1741	-0.414856	-217478	3.071035E-7	NaN
68	1.000000	0.682229	7.36571e+06	-42039.1	955.818	-29784.7	0.000000	0.000000	6.683020	-0.078614	NaN	0.000000	0.001524	0.001732	28.1089	0.079868	0.001990	40.1304	73.6028	-163.197	-0.078371	0.680906	-0.375783	-0.377107	-0.078614	40.1304	-0.374314	-57306.5	1.371814E-6	NaN
68	1.000000	0.722252	7.36571e+06	-42039.1	955.818	-29784.7	0.000000	0.000000	6.723044	-0.067874	NaN	0.000000	0.001594	0.001739	28.1103	0.091681	0.001888	48.5579	-56.182	-167.327	0.013255	0.720955	-0.335760	-0.337057	-0.067874	48.5579	-0.334712	-15288.9	4.439421E-6	NaN
68	1.000000	0.762247	7.36571e+06	-42039.1	955.818	-29784.7	0.000000	0.000000	6.763039	-0.061600	NaN	0.000000	0.001543	0.001761	28.1079	0.033372	0.001850	18.0439	-150.892	-163.194	-0.058012	0.760898	-0.295765	-0.297114	-0.061600	18.0439	-0.293205	-3726.22	1.653158E-5	NaN
68	1.000000	0.802290	7.36571e+06	-42039.1	955.818	-29784.7	0.000000	0.000000	6.803080	-0.103833	NaN	0.000000	0.001502	0.001739	28.1087	0.108729	0.002090	52.0243	-156.979	-163.16	-0.039885	0.800962	-0.255722	-0.257050	-0.103833	52.0243	-0.254225	-955.404	0.000109	NaN
68	1.000000	0.842299	7.36571e+06	-42039.1	955.818	-29784.7	0.000000	0.000000	6.843091	-0.076174	NaN	0.000000	0.001583	0.001667	28.1064	0.132533	0.002032	65.2164	-24.0122	-164.468	-0.108368	0.840954	-0.215713	-0.217059	-0.076174	65.2164	-0.214837	-229.557	0.000332	NaN
68	1.000000	0.882324	7.36571e+06	-42039.1	955.819	-29784.7	0.000000	0.000000	6.883117	-0.035170	NaN	0.000000	0.001629	0.001650	28.1086	0.091526	0.002047	44.7222	-81.122	-165.054	-0.125011	0.881023	-0.175688	-0.176990	-0.035170	44.7222	-0.175099	-50.3122	0.000699	NaN
68	1.000000	0.922335	7.36571e+06	-42039.1	955.818	-29784.7	0.000000	0.000000	6.923127	-0.034577	NaN	0.000000	0.001555	0.001646	28.1079	0.118296	0.001929	61.3147	49.2656	-164.051	0.019650	0.921010	-0.135678	-0.137002	-0.034577	61.3147	-0.135255	-9.619480	0.003594	NaN
68	1.000000	0.962328	7.36571e+06	-42039.1	955.818	-29784.7	0.000000	0.000000	6.963119	-0.082148	NaN	0.000000	0.001621	0.001615	28.1086	0.050078	0.001980	25.2871	-62.7809	-165.364	-0.104034	0.961000	-0.095684	-0.097012	-0.082148	25.2871	-0.093248	-1.286129	0.063873	NaN
68	1.000000	1.002335	7.36571e+06	-42039.1	955.818	-29784.7	0.000000	0.000000	7.003129	-0.001001	NaN	0.000000	0.001546	0.001626	28.1077	0.019052	0.001934	9.851561	-126.24	-166.298	-0.021758	1.001056	-0.055678	-0.056956	-0.001001	9.851561	-0.055602	-0.134151	0.007460	NaN
68	1.000000	1.042382	7.36571e+06	-42039.1	955.818	-29784.7	0.000000	0.000000	7.043176	-0.007679	NaN	0.000000	0.001530	0.001638	28.1072	0.092946	0.001917	48.4777	119.174	-165.698	0.022103	1.041086	-0.015630	-0.016926	-0.007679	48.4777	-0.015511	-0.009584	0.801193	NaN
68	2.000000	1.081846	7.36571e+06	-42039.1	955.818	-29784.7	0.000000	0.000000	7.082968	7.957339	NaN	0.000000	0.001537	0.001658	28.1058	8.506326	0.001682	5056.68	13.8488	-171.641	7.703885	1.081018	0.023834	0.023006	7.957339	5056.68	0.022654	0.026885	295.977	28176.3
68	2.000000	1.091880	7.36571e+06	-42039.1	955.819	-29784.7	0.000000	0.000000	7.093944	30.9022	NaN	0.000000	0.001560	0.001618	28.1072	19.0732	0.001804	10575.3	4.897598	-173.018	29.4001	1.091554	0.033867	0.033542	30.9022	10575.3	0.031676	0.044288	697.75	45911.3
68	2.000000	1.101850	7.36571e+06	-42039.1	955.819	-29784.7	0.000000	0.000000	7.106327	89.6066	NaN	0.000000	0.001542	0.001626	28.1069	29.6028	0.001920	15419.2	6.700787	-179.419	87.4919	1.101561	0.043838	0.043549	89.6066	15419.2	0.039479	0.062690	1429.36	56264.6
68	2.000000	1.111865	7.36571e+06	-42039.1	955.818	-29784.7	0.000000	0.000000	7.118868	151.08	NaN	0.000000	0.001565	0.001614	28.1072	38.487	0.001861	20678	4.864474	179.348	149.915	1.111477	0.053853	0.053465	151.08	20678	0.048373	0.087450	1727.61	63885.3
68	2.000000	1.121821	7.36572e+06	-42039.1	955.818	-29784.7	0.000000	0.000000	7.132115	231.13	NaN	0.000000	0.001548	0.001629	28.1066	49.3977	0.001755	28143	6.467519	174.42	228.759	1.121514	0.063809	0.063502	231.13	28143	0.057649	0.117515	1966.82	75006.4
68	2.000000	1.131775	7.36572e+06	-42039.1	955.818	-29784.7	0.000000	0.000000	7.146065	328.357	NaN	0.000000	0.001557	0.001669	28.1065	58.3789	0.001618	36079.4	3.107434	176.592	323.87	1.131421	0.073763	0.073409	328.357	36079.4	0.066937	0.151852	2162.34	84590.6
68	2.000000	1.141888	7.36572e+06	-42039.1	955.819	-29784.7	0.000000	0.000000	7.160618	436.394	NaN	0.000000	0.001543	0.001650	28.1042	69.57	0.001840	37815.9	3.726997	175.438	438.554	1.141481	0.083876	0.083469	436.394	37815.9	0.075221	0.185973	2346.55	80116.8
68	2.000000	1.151783	7.36572e+06	-42039.1	955.818	-29784.7	0.000000	0.000000	7.174334	529.371	NaN	0.000000	0.001563	0.001606	28.1048	77.0063	0.001748	44061.9	2.944321	174.507	528.339	1.151589	0.093770	0.093577	529.371	44061.9	0.084760	0.229257	2309.07	84076.6
68	2.000000	1.161786	7.36572e+06	-42039.1	955.818	-29784.7	0.000000	0.000000	7.188856	639.319	NaN	0.000000	0.001576	0.001618	28.1034	85.8774	0.001882	45636.3	2.184955	175.499	638.414	1.161489	0.103774	0.103477	639.319	45636.3	0.093267	0.271411	2355.54	80033.1
68	2.000000	1.171685	7.36572e+06	-42039.1	955.818	-29784.7	0.000000	0.000000	7.202734	736.152	NaN	0.000000	0.001575	0.001630	28.1055	95.1117	0.001839	51723.8	3.944187	172.791	732.665	1.171444	0.113672	0.113431	736.152	51723.8	0.102998	0.323682	2274.31	83062.3
68	2.000000	1.180258	7.36572e+06	-42039.1	955.818	-29784.7	0.000000	0.000000	7.215179	830.368	NaN	0.000000	0.001582	0.001620	28.1291	101.118	0.001763	57353	5.352002	-9.011578	826.395	1.179762	0.122245	0.121750	830.368	57353	0.111386	0.372195	2231	85890.3

File: 2025-07-22_16-23-58_1_69.txt
2025-07-22, 16:23:58, 1
Index	Phase	Displacement	Time	Pos X	Pos Y	Pos Z	Rot A	Rot B	Piezo Z	Force A	Force B	Gripper	Voltage A	Voltage B	Temperature	Amplitude force	Amplitude pos	Stiffness	Phase shift	Phase excitation	Force A raw	Displacement raw	HMax	HMax raw	Real Force	Real Stiffness	Contact Depth	Area	Hardness	Reduced Mod.
[#]	[#]	[um]	[s]	[um]	[um]	[um]	[m°]	[m°]	[um]	[uN]	[uN]	[V]	[V]	[V]	[°C]	[uN]	[um]	[N/m]	[°]	[°]	[uN]	[um]	[um]	[um]	[uN]	[N/m]	[um]	[um^2]	[MPa]	[MPa]
69	1.000000	0.002598	7.36572e+06	-42089.1	955.818	-29784.5	0.000000	0.000000	6.002770	0.057658	NaN	0.000000	0.001525	0.001616	28.0785	0.121242	0.000916	132.406	132.094	171.23	0.123040	0.001379	-1.102756	-1.103975	0.057658	132.406	-1.103082	-5.513667E+14	-1.045727E-16	NaN
69	1.000000	0.044525	7.36572e+06	-42089.1	955.818	-29784.5	0.000000	0.000000	6.044694	0.001411	NaN	0.000000	0.001573	0.001608	28.1008	0.147015	0.002063	71.269	30.5178	-3.431757	-0.033598	0.043189	-1.060829	-1.062164	0.001411	71.269	-1.060844	-1.493347E+14	-9.445745E-18	NaN
69	1.000000	0.086529	7.36572e+06	-42089.1	955.818	-29784.5	0.000000	0.000000	6.086695	-0.104687	NaN	0.000000	0.001574	0.001610	28.1288	0.076325	0.001976	38.6273	140.415	176.758	-0.016912	0.085229	-1.018824	-1.020124	-0.104687	38.6273	-1.016792	-3.817549E+13	2.742259E-15	NaN
69	1.000000	0.128545	7.36572e+06	-42089.1	955.819	-29784.5	0.000000	0.000000	6.128715	-0.001139	NaN	0.000000	0.001567	0.001654	28.0938	0.033927	0.002051	16.5393	3.945646	-4.223477	0.037912	0.127244	-0.976809	-0.978110	-0.001139	16.5393	-0.976757	-1.103359E+13	1.031971E-16	NaN
69	1.000000	0.170564	7.36572e+06	-42089.1	955.818	-29784.5	0.000000	0.000000	6.170736	0.045492	NaN	0.000000	0.001586	0.001642	28.0781	0.044151	0.002051	21.5304	-3.360957	179.815	0.048626	0.169274	-0.934789	-0.936079	0.045492	21.5304	-0.936374	-3.149287E+12	-1.444521E-14	NaN
69	1.000000	0.212595	7.36572e+06	-42089.1	955.819	-29784.5	0.000000	0.000000	6.212767	0.054214	NaN	0.000000	0.001536	0.001600	28.0985	0.029612	0.002054	14.4193	-76.7955	-2.385068	0.049449	0.211211	-0.892758	-0.894142	0.054214	14.4193	-0.895578	-8.857466E+11	-6.120731E-14	NaN
69	1.000000	0.254620	7.36572e+06	-42089.1	955.818	-29784.5	0.000000	0.000000	6.254787	-0.055101	NaN	0.000000	0.001596	0.001610	28.1271	0.140603	0.001990	70.6715	-152.621	177.659	-0.018369	0.253270	-0.850734	-0.852084	-0.055101	70.6715	-0.850149	-2.151569E+11	2.560990E-13	NaN
69	1.000000	0.296634	7.36572e+06	-42089.1	955.818	-29784.5	0.000000	0.000000	6.296804	-0.002220	NaN	0.000000	0.001547	0.001592	28.0937	0.027035	0.001907	14.1736	92.0195	-4.074911	0.015733	0.295262	-0.808719	-0.810092	-0.002220	14.1736	-0.808602	-5.883022E+10	3.773188E-14	NaN
69	1.000000	0.338647	7.36572e+06	-42089.1	955.817	-29784.5	0.000000	0.000000	6.338818	0.023557	NaN	0.000000	0.001620	0.001674	28.08	0.051786	0.002049	25.2702	-64.1911	175.04	-0.031949	0.337362	-0.766707	-0.767991	0.023557	25.2702	-0.767406	-1.621924E+10	-1.452441E-12	NaN
69	1.000000	0.380644	7.36572e+06	-42089.1	955.818	-29784.5	0.000000	0.000000	6.380816	0.053537	NaN	0.000000	0.001589	0.001644	28.0991	0.085799	0.001970	43.5575	-139.898	-1.393808	-0.011343	0.379291	-0.724709	-0.726063	0.053537	43.5575	-0.725631	-4.377789E+9	-1.222927E-11	NaN
69	1.000000	0.422684	7.36572e+06	-42089.1	955.818	-29784.5	0.000000	0.000000	6.422853	-0.010456	NaN	0.000000	0.001588	0.001655	28.1286	0.047062	0.002094	22.478	-35.2623	176.556	-0.076147	0.421392	-0.682670	-0.683961	-0.010456	22.478	-0.682321	-1.121868E+9	9.319819E-12	NaN
69	1.000000	0.464702	7.36572e+06	-42089.1	955.818	-29784.5	0.000000	0.000000	6.464873	0.051602	NaN	0.000000	0.001526	0.001642	28.0928	0.092929	0.002106	44.1175	177.843	-4.114766	0.014159	0.463382	-0.640652	-0.641971	0.051602	44.1175	-0.641529	-3.099348E+8	-1.664939E-10	NaN
69	1.000000	0.506750	7.36572e+06	-42089.1	955.818	-29784.5	0.000000	0.000000	6.506921	0.027192	NaN	0.000000	0.001521	0.001649	28.0768	0.150468	0.002085	72.1841	100.227	177.091	0.023691	0.505335	-0.598603	-0.600018	0.027192	72.1841	-0.598886	-8.037398E+7	-3.383172E-10	NaN
69	1.000000	0.548739	7.36572e+06	-42089.1	955.818	-29784.5	0.000000	0.000000	6.548913	0.088479	NaN	0.000000	0.001557	0.001601	28.0973	0.018169	0.001984	9.158641	166.843	-3.941504	0.055566	0.547375	-0.556614	-0.557978	0.088479	9.158641	-0.563860	-2.640948E+7	-3.350263E-9	NaN
69	1.000000	0.590748	7.36572e+06	-42089.1	955.818	-29784.5	0.000000	0.000000	6.590916	-0.028471	NaN	0.000000	0.001527	0.001628	28.1284	0.084013	0.001936	43.4001	40.3838	173.15	0.060447	0.589422	-0.514606	-0.515931	-0.028471	43.4001	-0.514114	-5.39138e+06	5.280801E-9	NaN
69	1.000000	0.632770	7.36572e+06	-42089.1	955.818	-29784.5	0.000000	0.000000	6.632939	-0.020886	NaN	0.000000	0.001678	0.001637	28.0966	0.107759	0.001983	54.3302	-6.766111	-5.605205	-0.054964	0.631374	-0.472583	-0.473979	-0.020886	54.3302	-0.472295	-1.40471e+06	1.486822E-8	NaN
69	1.000000	0.674749	7.36572e+06	-42089.1	955.819	-29784.5	0.000000	0.000000	6.674919	-0.003638	NaN	0.000000	0.001671	0.001630	28.0783	0.074945	0.002007	37.343	136.734	177.705	-0.024619	0.673453	-0.430604	-0.431901	-0.003638	37.343	-0.430531	-362725	1.002991E-8	NaN
69	1.000000	0.716793	7.36572e+06	-42089.1	955.818	-29784.5	0.000000	0.000000	6.716963	-0.008787	NaN	0.000000	0.001628	0.001643	28.0958	0.059377	0.002074	28.6324	-106.386	-2.706757	0.049027	0.715480	-0.388560	-0.389874	-0.008787	28.6324	-0.388330	-91048.1	9.651446E-8	NaN
69	1.000000	0.758813	7.36572e+06	-42089.1	955.819	-29784.5	0.000000	0.000000	6.758981	-0.030628	NaN	0.000000	0.001675	0.001581	28.1286	0.066033	0.002122	31.1116	174.833	176.85	-0.027663	0.757523	-0.346541	-0.347830	-0.030628	31.1116	-0.345802	-22183.2	1.380684E-6	NaN
69	1.000000	0.800836	7.36572e+06	-42089.1	955.819	-29784.5	0.000000	0.000000	6.801007	0.025186	NaN	0.000000	0.001656	0.001564	28.0942	0.054524	0.001992	27.3749	178.361	-1.962970	0.012734	0.799488	-0.304517	-0.305865	0.025186	27.3749	-0.305207	-5623.85	-4.478399E-6	NaN
69	1.000000	0.842846	7.36572e+06	-42089.1	955.818	-29784.5	0.000000	0.000000	6.843017	0.031140	NaN	0.000000	0.001636	0.001560	28.0783	0.100883	0.001899	53.1283	141.886	176.498	-0.031766	0.841522	-0.262507	-0.263831	0.031140	53.1283	-0.262947	-1300.25	-2.394936E-5	NaN
69	1.000000	0.884867	7.36572e+06	-42089.1	955.818	-29784.5	0.000000	0.000000	6.885036	-0.011397	NaN	0.000000	0.001669	0.001567	28.0958	0.047050	0.002104	22.3612	-21.6042	-5.365857	-0.089016	0.883535	-0.220487	-0.221819	-0.011397	22.3612	-0.220104	-278.833	4.087307E-5	NaN
69	1.000000	0.926885	7.36572e+06	-42089.1	955.819	-29784.5	0.000000	0.000000	6.927056	0.020592	NaN	0.000000	0.001669	0.001600	28.1299	0.049399	0.001999	24.7076	-111.615	-179.574	-0.004910	0.925569	-0.178468	-0.179785	0.020592	24.7076	-0.179094	-58.8887	-0.000350	NaN
69	1.000000	0.968910	7.36572e+06	-42089.1	955.818	-29784.5	0.000000	0.000000	6.969082	0.062067	NaN	0.000000	0.001655	0.001669	28.0967	0.083820	0.002019	41.508	-55.0948	-6.003300	0.033423	0.967493	-0.136444	-0.137860	0.062067	41.508	-0.137565	-10.6429	-0.005832	NaN
69	1.000000	1.010904	7.36572e+06	-42089.1	955.819	-29784.5	0.000000	0.000000	7.011077	0.082617	NaN	0.000000	0.001733	0.001610	28.0782	0.011123	0.001982	5.612099	162.66	177.009	0.051407	1.009616	-0.094450	-0.095738	0.082617	5.612099	-0.105491	-2.408585	-0.034301	NaN
69	1.000000	1.052934	7.36572e+06	-42089.1	955.819	-29784.5	0.000000	0.000000	7.053105	0.039694	NaN	0.000000	0.001756	0.001563	28.0948	0.019511	0.002017	9.672754	-70.8621	-2.363011	0.039424	1.051601	-0.052420	-0.053752	0.039694	9.672754	-0.055498	-0.133209	-0.297987	NaN
69	1.000000	1.094915	7.36572e+06	-42089.1	955.82	-29784.5	0.000000	0.000000	7.095085	0.004660	NaN	0.000000	0.001755	0.001627	28.1287	0.040430	0.001921	21.0493	34.0781	177.629	-0.010636	1.093641	-0.010439	-0.011713	0.004660	21.0493	-0.010605	-0.006733	-0.692207	NaN
69	2.000000	1.120146	7.36572e+06	-42089.1	955.819	-29784.5	0.000000	0.000000	7.120982	16.196	NaN	0.000000	0.001742	0.001623	28.097	14.829	0.001797	8250.95	9.108616	-13.9382	15.9511	1.119760	0.014793	0.014406	16.196	8250.95	0.013321	0.013111	1235.34	65836.4
69	2.000000	1.130642	7.36572e+06	-42089.1	955.82	-29784.5	0.000000	0.000000	7.132503	41.1645	NaN	0.000000	0.001754	0.001631	28.0799	25.7736	0.001653	15592.4	3.466556	162.976	42.8782	1.130305	0.025288	0.024951	41.1645	15592.4	0.023308	0.028010	1469.66	85120.3
69	2.000000	1.141090	7.36572e+06	-42089.1	955.82	-29784.5	0.000000	0.000000	7.144471	78.1157	NaN	0.000000	0.001716	0.001632	28.0946	36.8326	0.001721	21402	5.633201	-22.0783	77.3631	1.140885	0.035737	0.035531	78.1157	21402	0.032999	0.047190	1655.35	90012.4
69	2.000000	1.151478	7.36572e+06	-42089.1	955.82	-29784.5	0.000000	0.000000	7.156818	125.787	NaN	0.000000	0.001707	0.001638	28.1289	46.1334	0.001763	26168.1	5.830490	155.984	121.334	1.151193	0.046125	0.045839	125.787	26168.1	0.042519	0.070702	1779.12	89914.8
69	2.000000	1.162055	7.36573e+06	-42089.1	955.82	-29784.5	0.000000	0.000000	7.169443	175.641	NaN	0.000000	0.001700	0.001575	28.0965	54.6051	0.001720	31756.1	-0.478305	-18.4185	174.238	1.161793	0.056701	0.056439	175.641	31756.1	0.052553	0.100467	1748.25	91535.4
69	2.000000	1.172661	7.36573e+06	-42089.1	955.819	-29784.5	0.000000	0.000000	7.182405	232.968	NaN	0.000000	0.001683	0.001577	28.0786	66.3948	0.001835	36176.4	2.093601	158.566	236.659	1.172194	0.067307	0.066840	232.968	36176.4	0.062478	0.134842	1727.71	90009
69	2.000000	1.182947	7.36573e+06	-42089.1	955.82	-29784.5	0.000000	0.000000	7.195720	306.661	NaN	0.000000	0.001690	0.001565	28.0928	77.0403	0.001933	39860.1	4.831202	-24.9767	302.243	1.182690	0.077593	0.077337	306.661	39860.1	0.071823	0.171582	1787.26	87917.5
69	2.000000	1.193468	7.36573e+06	-42089.1	955.82	-29784.5	0.000000	0.000000	7.209705	390.924	NaN	0.000000	0.001719	0.001637	28.1301	85.4174	0.001750	48804.8	2.674249	154.989	386.385	1.193183	0.088115	0.087829	390.924	48804.8	0.082107	0.216795	1803.2	95765.8
69	2.000000	1.203992	7.36573e+06	-42089.1	955.819	-29784.5	0.000000	0.000000	7.224145	486.215	NaN	0.000000	0.001731	0.001664	28.0983	96.1813	0.001810	53126.9	5.596984	-28.1392	485.284	1.203586	0.098638	0.098233	486.215	53126.9	0.091774	0.263775	1843.3	94508.6
69	2.000000	1.212925	7.36573e+06	-42089.1	955.82	-29784.5	0.000000	0.000000	7.236381	566.598	NaN	0.000000	0.001723	0.001636	28.094	104.501	0.001975	52909.7	7.023289	-29.5004	561.78	1.212591	0.107571	0.107237	566.598	52909.7	0.099539	0.304611	1860.07	87586.3