Folder: unikorn_login/remote_trans/data/nanoindenter/0828-1/data/Data_2025-08-06,11h17m57s (part 48)

File: 2025-07-22_16-23-58_1_113.txt
2025-07-22, 16:23:58, 1
Index	Phase	Displacement	Time	Pos X	Pos Y	Pos Z	Rot A	Rot B	Piezo Z	Force A	Force B	Gripper	Voltage A	Voltage B	Temperature	Amplitude force	Amplitude pos	Stiffness	Phase shift	Phase excitation	Force A raw	Displacement raw	HMax	HMax raw	Real Force	Real Stiffness	Contact Depth	Area	Hardness	Reduced Mod.
[#]	[#]	[um]	[s]	[um]	[um]	[um]	[m°]	[m°]	[um]	[uN]	[uN]	[V]	[V]	[V]	[°C]	[uN]	[um]	[N/m]	[°]	[°]	[uN]	[um]	[um]	[um]	[uN]	[N/m]	[um]	[um^2]	[MPa]	[MPa]
113	1.000000	0.002225	7.36614e+06	-44289.1	955.82	-29776.9	0.000000	0.000000	6.002808	0.016930	NaN	0.000000	0.001534	0.001764	28.1028	0.013974	0.000876	15.9449	-14.4301	-167.081	-0.020812	0.000955	-0.989974	-0.991244	0.016930	15.9449	-0.990770	-1.704054E+13	-9.935029E-16	NaN
113	1.000000	0.040182	7.36614e+06	-44289.1	955.817	-29776.9	0.000000	0.000000	6.040765	0.012536	NaN	0.000000	0.001528	0.001798	28.0802	0.026990	0.001964	13.7454	-147.034	14.6737	0.041552	0.038839	-0.952017	-0.953360	0.012536	13.7454	-0.952701	-5.229473E+12	-2.397131E-15	NaN
113	1.000000	0.078208	7.36614e+06	-44289.1	955.817	-29776.9	0.000000	0.000000	6.078792	0.032653	NaN	0.000000	0.001513	0.001819	28.0918	0.221602	0.001937	114.419	48.2265	-165.7	0.020625	0.076901	-0.913991	-0.915298	0.032653	114.419	-0.914205	-1.581083E+12	-2.065218E-14	NaN
113	1.000000	0.116221	7.36614e+06	-44289.1	955.818	-29776.9	0.000000	0.000000	6.116809	0.121793	NaN	0.000000	0.001539	0.001735	28.1305	0.041366	0.001868	22.1465	38.228	16.0818	0.047646	0.114868	-0.875978	-0.877331	0.121793	22.1465	-0.880102	-5.471330E+11	-2.226025E-13	NaN
113	1.000000	0.154221	7.36614e+06	-44289.1	955.818	-29776.9	0.000000	0.000000	6.154804	0.017312	NaN	0.000000	0.001530	0.001692	28.1029	0.042497	0.001949	21.8075	-175.306	-165.842	-0.011463	0.152917	-0.837978	-0.839282	0.017312	21.8075	-0.838573	-1.499548E+11	-1.154482E-13	NaN
113	1.000000	0.192207	7.36614e+06	-44289.1	955.819	-29776.9	0.000000	0.000000	6.192788	-0.036718	NaN	0.000000	0.001536	0.001720	28.0789	0.083762	0.002007	41.7329	-171.962	13.3334	-0.044793	0.190853	-0.799992	-0.801347	-0.036718	41.7329	-0.799332	-4.403514E+10	8.338295E-13	NaN
113	1.000000	0.230255	7.36614e+06	-44289.1	955.819	-29776.9	0.000000	0.000000	6.230839	0.049066	NaN	0.000000	0.001547	0.001721	28.0902	0.073171	0.002129	34.3642	72.5187	-165.407	-0.041348	0.228930	-0.761944	-0.763269	0.049066	34.3642	-0.763015	-1.413575E+10	-3.471072E-12	NaN
113	1.000000	0.268256	7.36614e+06	-44289.1	955.819	-29776.9	0.000000	0.000000	6.268833	-0.129603	NaN	0.000000	0.001505	0.001723	28.1288	0.053248	0.001923	27.6895	179.547	17.0397	-0.052687	0.266908	-0.723943	-0.725291	-0.129603	27.6895	-0.720432	-3.718499E+9	3.485366E-11	NaN
113	1.000000	0.306288	7.36614e+06	-44289.1	955.818	-29776.9	0.000000	0.000000	6.306869	-0.021522	NaN	0.000000	0.001512	0.001726	28.1013	0.046197	0.002073	22.285	-149.019	-166.435	-0.007394	0.305015	-0.685911	-0.687184	-0.021522	22.285	-0.685187	-1.227801E+9	1.752917E-11	NaN
113	1.000000	0.344293	7.36614e+06	-44289.1	955.818	-29776.9	0.000000	0.000000	6.344877	0.038049	NaN	0.000000	0.001551	0.001741	28.0801	0.109615	0.002113	51.8733	115.814	14.8061	-0.010588	0.342970	-0.647906	-0.649229	0.038049	51.8733	-0.648456	-3.857140E+8	-9.864625E-11	NaN
113	1.000000	0.382288	7.36615e+06	-44289.1	955.818	-29776.9	0.000000	0.000000	6.382872	0.029891	NaN	0.000000	0.001511	0.001720	28.092	0.133403	0.001930	69.1164	-87.9839	-167.393	0.009982	0.381007	-0.609911	-0.611192	0.029891	69.1164	-0.610235	-1.151721E+8	-2.595318E-10	NaN
113	1.000000	0.420304	7.36615e+06	-44289.1	955.818	-29776.9	0.000000	0.000000	6.420886	-0.030547	NaN	0.000000	0.001540	0.001692	28.1307	0.087247	0.002150	40.5806	131.455	15.0508	0.024545	0.418987	-0.571895	-0.573212	-0.030547	40.5806	-0.571330	-3.349716E+7	9.119312E-10	NaN
113	1.000000	0.458341	7.36615e+06	-44289.1	955.819	-29776.9	0.000000	0.000000	6.458923	0.001393	NaN	0.000000	0.001539	0.001704	28.0991	0.018721	0.002173	8.614355	-128.674	-167.406	0.102759	0.457027	-0.533858	-0.535172	0.001393	8.614355	-0.533979	-1.018182E+7	-1.368157E-10	NaN
113	1.000000	0.496351	7.36615e+06	-44289.1	955.818	-29776.9	0.000000	0.000000	6.496934	-0.003510	NaN	0.000000	0.001531	0.001690	28.0786	0.097657	0.001994	48.9762	-105.739	15.1266	0.001637	0.494970	-0.495848	-0.497229	-0.003510	48.9762	-0.495794	-2.99445e+06	1.172263E-9	NaN
113	1.000000	0.534404	7.36615e+06	-44289.1	955.818	-29776.9	0.000000	0.000000	6.534984	-0.055715	NaN	0.000000	0.001544	0.001692	28.091	0.116233	0.001966	59.1223	84.7306	-167.416	-0.009929	0.533120	-0.457795	-0.459079	-0.055715	59.1223	-0.457089	-859199	6.484501E-8	NaN
113	1.000000	0.572387	7.36615e+06	-44289.1	955.818	-29776.9	0.000000	0.000000	6.572969	0.008235	NaN	0.000000	0.001572	0.001693	28.1296	0.034506	0.002047	16.8557	-62.6509	17.5504	0.056636	0.571047	-0.419812	-0.421152	0.008235	16.8557	-0.420179	-258793	-3.182022E-8	NaN
113	1.000000	0.610398	7.36615e+06	-44289.1	955.819	-29776.9	0.000000	0.000000	6.610982	0.029694	NaN	0.000000	0.001623	0.001720	28.1006	0.061125	0.001874	32.6193	-131.508	-166.292	0.022951	0.609100	-0.381801	-0.383100	0.029694	32.6193	-0.382483	-75078.1	-3.955099E-7	NaN
113	1.000000	0.648423	7.36615e+06	-44289.1	955.818	-29776.9	0.000000	0.000000	6.649004	-0.030435	NaN	0.000000	0.001664	0.001744	28.0794	0.061737	0.002074	29.7649	68.9223	11.0202	-0.011733	0.647026	-0.343776	-0.345173	-0.030435	29.7649	-0.343009	-20201.6	1.506592E-6	NaN
113	1.000000	0.686432	7.36615e+06	-44289.1	955.817	-29776.9	0.000000	0.000000	6.687014	0.005182	NaN	0.000000	0.001628	0.001723	28.0935	0.080859	0.002042	39.6002	-18.5603	-166.176	0.045544	0.685127	-0.305767	-0.307072	0.005182	39.6002	-0.305866	-5751.73	-9.009987E-7	NaN
113	1.000000	0.724427	7.36615e+06	-44289.1	955.818	-29776.9	0.000000	0.000000	6.725010	0.013046	NaN	0.000000	0.001635	0.001685	28.1295	0.117152	0.001915	61.1829	74.9029	15.877	0.071967	0.723087	-0.267772	-0.269112	0.013046	61.1829	-0.267932	-1549.11	-8.421359E-6	NaN
113	1.000000	0.762456	7.36615e+06	-44289.1	955.818	-29776.9	0.000000	0.000000	6.763039	0.018072	NaN	0.000000	0.001582	0.001743	28.098	0.063481	0.002079	30.5378	-54.4613	-165.303	-0.049682	0.761190	-0.229743	-0.231009	0.018072	30.5378	-0.230187	-403.149	-4.482724E-5	NaN
113	1.000000	0.800484	7.36615e+06	-44289.1	955.818	-29776.9	0.000000	0.000000	6.801065	-0.041124	NaN	0.000000	0.001577	0.001758	28.0788	0.068061	0.001915	35.5452	51.1733	13.265	-0.103404	0.799091	-0.191715	-0.193108	-0.041124	35.5452	-0.190847	-92.9324	0.000443	NaN
113	1.000000	0.838513	7.36615e+06	-44289.1	955.818	-29776.9	0.000000	0.000000	6.839093	-0.054369	NaN	0.000000	0.001574	0.001762	28.0932	0.067658	0.001978	34.2099	138.552	-166.579	-0.014128	0.837223	-0.153686	-0.154976	-0.054369	34.2099	-0.152494	-20.1066	0.002704	NaN
113	1.000000	0.876502	7.36615e+06	-44289.1	955.818	-29776.9	0.000000	0.000000	6.877086	0.038939	NaN	0.000000	0.001583	0.001721	28.1298	0.075283	0.001952	38.5688	-64.3945	14.3267	0.046300	0.875160	-0.115697	-0.117039	0.038939	38.5688	-0.116455	-4.092557	-0.009515	NaN
113	1.000000	0.914528	7.36615e+06	-44289.1	955.818	-29776.9	0.000000	0.000000	6.915109	-0.043754	NaN	0.000000	0.001583	0.001715	28.0989	0.083019	0.002039	40.7059	-37.7181	-165.28	-0.013198	0.913210	-0.077671	-0.078989	-0.043754	40.7059	-0.076864	-0.515757	0.084835	NaN
113	1.000000	0.952540	7.36615e+06	-44289.1	955.818	-29776.9	0.000000	0.000000	6.953119	-0.066626	NaN	0.000000	0.001507	0.001708	28.0803	0.047336	0.001932	24.4963	-49.3394	15.4924	-0.012031	0.951185	-0.039659	-0.041014	-0.066626	24.4963	-0.037619	-0.038320	1.738667	NaN
113	1.000000	0.990537	7.36615e+06	-44289.1	955.818	-29776.9	0.000000	0.000000	6.991120	0.018116	NaN	0.000000	0.001541	0.001725	28.0946	0.083239	0.002008	41.4485	14.3466	-164.387	0.062642	0.989199	-0.001662	-0.003000	0.018116	41.4485	-0.001990	-0.001432	-12.6503	NaN
113	2.000000	1.010667	7.36615e+06	-44289.1	955.818	-29776.9	0.000000	0.000000	7.011894	15.6926	NaN	0.000000	0.001561	0.001709	28.1286	14.8358	0.001708	8684.94	6.710785	4.362523	14.9732	1.010341	0.018468	0.018142	15.6926	8684.94	0.017113	0.018207	861.903	58806
113	2.000000	1.020129	7.36615e+06	-44289.1	955.818	-29776.9	0.000000	0.000000	7.022002	31.3852	NaN	0.000000	0.001607	0.001687	28.0965	23.8763	0.001900	12569.6	9.768627	-179.436	31.7986	1.019785	0.027930	0.027586	31.3852	12569.6	0.026057	0.032967	952.008	63248.9
113	2.000000	1.029600	7.36615e+06	-44289.1	955.818	-29776.9	0.000000	0.000000	7.032287	51.1988	NaN	0.000000	0.001529	0.001676	28.0774	31.1013	0.001760	17670.8	4.254641	1.359676	50.0418	1.029303	0.037401	0.037104	51.1988	17670.8	0.035228	0.052279	979.346	70610.2
113	2.000000	1.039073	7.36615e+06	-44289.1	955.817	-29776.9	0.000000	0.000000	7.042937	79.8385	NaN	0.000000	0.001541	0.001763	28.0961	40.0978	0.001713	23405.5	7.212270	176.176	78.8382	1.038775	0.046874	0.046576	79.8385	23405.5	0.044316	0.075657	1055.27	77743.8
113	2.000000	1.048550	7.36615e+06	-44289.1	955.819	-29776.9	0.000000	0.000000	7.053817	113.966	NaN	0.000000	0.001567	0.001735	28.1298	49.6846	0.001853	26810	6.121894	-4.274779	112.021	1.048227	0.056351	0.056028	113.966	26810	0.053163	0.102440	1112.52	76530.9
113	2.000000	1.058034	7.36615e+06	-44289.1	955.818	-29776.9	0.000000	0.000000	7.064899	152.826	NaN	0.000000	0.001545	0.001698	28.0978	57.3111	0.001790	32019.4	4.563369	175.588	149.989	1.057800	0.065835	0.065601	152.826	32019.4	0.062256	0.134021	1140.31	79909.8
113	2.000000	1.067540	7.36615e+06	-44289.1	955.819	-29776.9	0.000000	0.000000	7.076446	202.517	NaN	0.000000	0.001560	0.001706	28.0783	66.3729	0.001698	39080.6	2.498579	-2.978916	199.518	1.067150	0.075340	0.074951	202.517	39080.6	0.071454	0.170053	1190.91	86585
113	2.000000	1.076975	7.36615e+06	-44289.1	955.818	-29776.9	0.000000	0.000000	7.088145	257.579	NaN	0.000000	0.001640	0.001671	28.0959	76.4585	0.001789	42743.5	4.969274	173.47	255.171	1.076719	0.084776	0.084520	257.579	42743.5	0.080256	0.208293	1236.61	85566.8
113	2.000000	1.086493	7.36615e+06	-44289.1	955.818	-29776.9	0.000000	0.000000	7.100086	316.517	NaN	0.000000	0.001628	0.001709	28.1288	84.8965	0.001801	47143.3	2.594759	-4.796193	312.445	1.086230	0.094294	0.094031	316.517	47143.3	0.089259	0.251135	1260.34	85948.8
113	2.000000	1.095928	7.36615e+06	-44289.1	955.817	-29776.9	0.000000	0.000000	7.112091	379.069	NaN	0.000000	0.001646	0.001753	28.0952	93.1764	0.001723	54076.4	7.280864	168.98	373.842	1.095686	0.103729	0.103487	379.069	54076.4	0.098471	0.298831	1268.51	90379.2
113	2.000000	1.103070	7.36615e+06	-44289.1	955.818	-29776.9	0.000000	0.000000	7.121812	441.788	NaN	0.000000	0.001610	0.001711	28.0973	101.81	0.001747	58286.9	9.752672	166.81	443.758	1.102757	0.110871	0.110558	441.788	58286.9	0.105187	0.336033	1314.72	91865.6

File: 2025-07-22_16-23-58_1_114.txt
2025-07-22, 16:23:58, 1
Index	Phase	Displacement	Time	Pos X	Pos Y	Pos Z	Rot A	Rot B	Piezo Z	Force A	Force B	Gripper	Voltage A	Voltage B	Temperature	Amplitude force	Amplitude pos	Stiffness	Phase shift	Phase excitation	Force A raw	Displacement raw	HMax	HMax raw	Real Force	Real Stiffness	Contact Depth	Area	Hardness	Reduced Mod.
[#]	[#]	[um]	[s]	[um]	[um]	[um]	[m°]	[m°]	[um]	[uN]	[uN]	[V]	[V]	[V]	[°C]	[uN]	[um]	[N/m]	[°]	[°]	[uN]	[um]	[um]	[um]	[uN]	[N/m]	[um]	[um^2]	[MPa]	[MPa]
114	1.000000	0.002266	7.36615e+06	-44339.1	955.818	-29776.7	0.000000	0.000000	6.002811	-0.096882	NaN	0.000000	0.001699	0.001696	28.1048	0.052791	0.000867	60.909	122.697	-164.747	-0.086208	0.000991	-1.009165	-1.010440	-0.096882	60.909	-1.007972	-2.904615E+13	3.335441E-15	NaN
114	1.000000	0.042211	7.36615e+06	-44339.1	955.819	-29776.7	0.000000	0.000000	6.042758	-0.031180	NaN	0.000000	0.001695	0.001719	28.1031	0.055278	0.001977	27.9591	-30.8753	-166.556	-0.009307	0.040870	-0.969220	-0.970561	-0.031180	27.9591	-0.968384	-8.509021E+12	3.664360E-15	NaN
114	1.000000	0.082238	7.36615e+06	-44339.1	955.819	-29776.7	0.000000	0.000000	6.082786	-0.015492	NaN	0.000000	0.001630	0.001720	28.1045	0.061516	0.002066	29.7761	18.6559	-161.759	-0.019580	0.080901	-0.929193	-0.930530	-0.015492	29.7761	-0.928803	-2.489104E+12	6.224075E-15	NaN
114	1.000000	0.122260	7.36615e+06	-44339.1	955.819	-29776.7	0.000000	0.000000	6.122807	-0.042111	NaN	0.000000	0.001696	0.001704	28.1057	0.069892	0.002041	34.237	-1.610028	-164.678	0.008251	0.120937	-0.889171	-0.890494	-0.042111	34.237	-0.888249	-7.050842E+11	5.972429E-14	NaN
114	1.000000	0.162265	7.36615e+06	-44339.1	955.818	-29776.7	0.000000	0.000000	6.162812	-0.043540	NaN	0.000000	0.001727	0.001680	28.1067	0.044955	0.002096	21.4513	-28.9318	-167.973	-0.038670	0.160913	-0.849166	-0.850518	-0.043540	21.4513	-0.847644	-1.989878E+11	2.188070E-13	NaN
114	1.000000	0.202227	7.36615e+06	-44339.1	955.818	-29776.7	0.000000	0.000000	6.202777	0.022469	NaN	0.000000	0.001733	0.001716	28.1048	0.079557	0.001975	40.2888	100.731	-168.2	-0.021529	0.200958	-0.809204	-0.810473	0.022469	40.2888	-0.809622	-6.073551E+10	-3.699430E-13	NaN
114	1.000000	0.242277	7.36615e+06	-44339.1	955.818	-29776.7	0.000000	0.000000	6.242824	-0.068491	NaN	0.000000	0.001657	0.001658	28.1046	0.051100	0.002110	24.2187	-11.478	-162.974	-0.029206	0.240967	-0.769153	-0.770464	-0.068491	24.2187	-0.767032	-1.603076E+10	4.272476E-12	NaN
114	1.000000	0.282304	7.36615e+06	-44339.1	955.818	-29776.7	0.000000	0.000000	6.282854	0.009217	NaN	0.000000	0.001660	0.001713	28.1043	0.034305	0.001996	17.1854	8.680358	-165.145	-0.018667	0.280964	-0.729126	-0.730467	0.009217	17.1854	-0.729529	-4.947487E+9	-1.863053E-12	NaN
114	1.000000	0.322342	7.36615e+06	-44339.1	955.819	-29776.7	0.000000	0.000000	6.322889	-0.040638	NaN	0.000000	0.001664	0.001703	28.1055	0.109737	0.002089	52.5235	40.5375	-164.411	-0.059494	0.321014	-0.689089	-0.690417	-0.040638	52.5235	-0.688508	-1.363115E+9	2.981270E-11	NaN
114	1.000000	0.362316	7.36615e+06	-44339.1	955.818	-29776.7	0.000000	0.000000	6.362861	-0.100542	NaN	0.000000	0.001647	0.001704	28.1055	0.073726	0.001958	37.6532	-53.2736	-164.27	-0.058641	0.361052	-0.649115	-0.650379	-0.100542	37.6532	-0.647112	-3.696931E+8	2.719614E-10	NaN
114	1.000000	0.402342	7.36615e+06	-44339.1	955.818	-29776.7	0.000000	0.000000	6.402891	-0.012673	NaN	0.000000	0.001659	0.001704	28.1072	0.087619	0.001876	46.6944	10.5926	-167.524	0.004528	0.401048	-0.609089	-0.610383	-0.012673	46.6944	-0.608885	-1.103509E+8	1.148469E-10	NaN
114	1.000000	0.442360	7.36615e+06	-44339.1	955.818	-29776.7	0.000000	0.000000	6.442908	-0.033068	NaN	0.000000	0.001633	0.001799	28.1067	0.153093	0.002078	73.6657	162.348	-168.263	-0.071516	0.441071	-0.569071	-0.570360	-0.033068	73.6657	-0.568734	-3.084192E+7	1.072176E-9	NaN
114	1.000000	0.482389	7.36615e+06	-44339.1	955.818	-29776.7	0.000000	0.000000	6.482937	-0.024215	NaN	0.000000	0.001629	0.001741	28.1078	0.179172	0.002099	85.3613	-86.0646	-167.388	-0.003156	0.481065	-0.529042	-0.530366	-0.024215	85.3613	-0.528829	-8.6359e+06	2.803963E-9	NaN
114	1.000000	0.522384	7.36616e+06	-44339.1	955.819	-29776.7	0.000000	0.000000	6.522931	-0.047905	NaN	0.000000	0.001638	0.001778	28.1047	0.041283	0.001987	20.7772	125.538	-164.142	-0.069589	0.521069	-0.489047	-0.490361	-0.047905	20.7772	-0.487317	-2.27979e+06	2.101298E-8	NaN
114	1.000000	0.562396	7.36616e+06	-44339.1	955.817	-29776.7	0.000000	0.000000	6.562944	-0.017418	NaN	0.000000	0.001642	0.001752	28.107	0.101481	0.002058	49.3114	-9.666145	-164.17	0.052368	0.561126	-0.449035	-0.450305	-0.017418	49.3114	-0.448770	-656176	2.654402E-8	NaN
114	1.000000	0.602423	7.36616e+06	-44339.1	955.818	-29776.7	0.000000	0.000000	6.602971	-0.017614	NaN	0.000000	0.001628	0.001747	28.1061	0.098426	0.002005	49.0899	-84.18	-162.903	-0.029188	0.601158	-0.409008	-0.410273	-0.017614	49.0899	-0.408739	-178016	9.894425E-8	NaN
114	1.000000	0.642447	7.36616e+06	-44339.1	955.818	-29776.7	0.000000	0.000000	6.642995	-0.020569	NaN	0.000000	0.001686	0.001699	28.1088	0.086844	0.002054	42.2816	144.359	-164.523	-0.030484	0.641153	-0.368984	-0.370278	-0.020569	42.2816	-0.368619	-47449.3	4.334940E-7	NaN
114	1.000000	0.682477	7.36616e+06	-44339.1	955.818	-29776.7	0.000000	0.000000	6.683024	-0.067486	NaN	0.000000	0.001647	0.001697	28.1078	0.043997	0.001986	22.1539	102.498	-163.215	-0.035225	0.681119	-0.328953	-0.330312	-0.067486	22.1539	-0.326669	-11658.1	5.788810E-6	NaN
114	1.000000	0.722502	7.36616e+06	-44339.1	955.818	-29776.7	0.000000	0.000000	6.723052	0.033744	NaN	0.000000	0.001632	0.001733	28.1093	0.099002	0.001972	50.1982	152.692	-165.047	-0.032835	0.721196	-0.288929	-0.290235	0.033744	50.1982	-0.289433	-3271.95	-1.031297E-5	NaN
114	1.000000	0.762497	7.36616e+06	-44339.1	955.818	-29776.7	0.000000	0.000000	6.763046	0.012393	NaN	0.000000	0.001598	0.001707	28.1085	0.071260	0.001934	36.8445	130.226	-165.424	0.013194	0.761172	-0.248934	-0.250259	0.012393	36.8445	-0.249186	-798.684	-1.551700E-5	NaN
114	1.000000	0.802537	7.36616e+06	-44339.1	955.819	-29776.7	0.000000	0.000000	6.803088	0.033170	NaN	0.000000	0.001627	0.001732	28.1083	0.031623	0.001964	16.098	137.684	-166.083	0.033427	0.801202	-0.208893	-0.210228	0.033170	16.098	-0.210439	-194.95	-0.000170	NaN
114	1.000000	0.842531	7.36616e+06	-44339.1	955.819	-29776.7	0.000000	0.000000	6.843078	-0.046644	NaN	0.000000	0.001633	0.001736	28.1073	0.087372	0.002203	39.668	79.107	-164.711	-0.023277	0.841238	-0.168900	-0.170193	-0.046644	39.668	-0.168018	-37.9426	0.001229	NaN
114	1.000000	0.882562	7.36616e+06	-44339.1	955.818	-29776.7	0.000000	0.000000	6.883110	-0.005432	NaN	0.000000	0.001615	0.001724	28.1088	0.045033	0.002093	21.5114	-151.723	-165.437	-0.029384	0.881237	-0.128869	-0.130194	-0.005432	21.5114	-0.128680	-7.183047	0.000756	NaN
114	1.000000	0.922583	7.36616e+06	-44339.1	955.818	-29776.7	0.000000	0.000000	6.923132	0.000635	NaN	0.000000	0.001697	0.001687	28.1087	0.085982	0.002119	40.5841	113.788	-162.699	0.056881	0.921262	-0.088848	-0.090169	0.000635	40.5841	-0.088860	-1.016179	-0.000625	NaN
114	1.000000	0.962593	7.36616e+06	-44339.1	955.818	-29776.7	0.000000	0.000000	6.963142	0.023892	NaN	0.000000	0.001680	0.001699	28.1103	0.056613	0.001961	28.874	24.048	-166.291	0.045610	0.961292	-0.048838	-0.050139	0.023892	28.874	-0.049459	-0.087874	-0.271892	NaN
114	1.000000	1.002562	7.36616e+06	-44339.1	955.818	-29776.7	0.000000	0.000000	7.003108	-0.054285	NaN	0.000000	0.001619	0.001689	28.1101	0.072859	0.001953	37.3072	-132.077	-163.378	-0.027694	1.001320	-0.008869	-0.010110	-0.054285	37.3072	-0.007778	-0.005101	10.6411	NaN
114	2.000000	1.025174	7.36616e+06	-44339.1	955.817	-29776.7	0.000000	0.000000	7.026321	14.5495	NaN	0.000000	0.001634	0.001713	28.1104	13.7387	0.001797	7646.21	7.081894	-174.321	14.5444	1.024819	0.013743	0.013388	14.5495	7646.21	0.012316	0.011871	1225.69	64118.7
114	2.000000	1.035100	7.36616e+06	-44339.1	955.817	-29776.7	0.000000	0.000000	7.037040	33.8317	NaN	0.000000	0.001639	0.001715	28.1083	22.8046	0.001819	12538.5	5.195701	-176.008	33.7638	1.034886	0.023669	0.023455	33.8317	12538.5	0.021645	0.025194	1342.85	72172.1
114	2.000000	1.045059	7.36616e+06	-44339.1	955.818	-29776.7	0.000000	0.000000	7.048203	63.1273	NaN	0.000000	0.001651	0.001704	28.1105	31.1618	0.001811	17202.4	3.011921	-176.045	61.3686	1.044746	0.033628	0.033315	63.1273	17202.4	0.030876	0.042579	1482.61	76166.8
114	2.000000	1.055065	7.36616e+06	-44339.1	955.817	-29776.7	0.000000	0.000000	7.059978	106.175	NaN	0.000000	0.001723	0.001720	28.1094	42.7315	0.001797	23776.8	2.288295	-178.537	105.799	1.054667	0.043634	0.043236	106.175	23776.8	0.040285	0.064766	1639.35	85359.6
114	2.000000	1.065093	7.36616e+06	-44339.1	955.817	-29776.7	0.000000	0.000000	7.072081	156.647	NaN	0.000000	0.001662	0.001703	28.1108	53.2303	0.001775	29987.9	5.386684	176.033	158.438	1.064700	0.053662	0.053269	156.647	29987.9	0.049745	0.091625	1709.65	90513.2
114	2.000000	1.074971	7.36616e+06	-44339.1	955.817	-29776.7	0.000000	0.000000	7.084459	217.464	NaN	0.000000	0.001658	0.001675	28.11	62.2955	0.001759	35418.3	2.187420	177.767	214.421	1.074719	0.063540	0.063288	217.464	35418.3	0.058935	0.122018	1782.23	92637.9
114	2.000000	1.085182	7.36616e+06	-44339.1	955.816	-29776.7	0.000000	0.000000	7.096791	269.083	NaN	0.000000	0.001669	0.001701	28.1117	72.6726	0.001759	41314.3	4.818358	174.045	277.124	1.084781	0.073751	0.073350	269.083	41314.3	0.068866	0.159505	1686.99	94512
114	2.000000	1.095000	7.36616e+06	-44339.1	955.816	-29776.7	0.000000	0.000000	7.109872	348.459	NaN	0.000000	0.001660	0.001734	28.1093	81.072	0.001662	48779.8	2.035064	175.307	346.619	1.094706	0.083569	0.083275	348.459	48779.8	0.078211	0.199085	1750.3	99883.6
114	2.000000	1.104959	7.36616e+06	-44339.1	955.817	-29776.7	0.000000	0.000000	7.122782	420.243	NaN	0.000000	0.001699	0.001733	28.1104	92.6983	0.001791	51761.2	2.829236	174.275	417.502	1.104812	0.093528	0.093381	420.243	51761.2	0.087439	0.242173	1735.3	96098.2
114	2.000000	1.114904	7.36616e+06	-44339.1	955.818	-29776.7	0.000000	0.000000	7.136543	513.091	NaN	0.000000	0.001625	0.001687	28.1095	101.511	0.001753	57920.2	5.229207	171.333	507.054	1.114716	0.103473	0.103285	513.091	57920.2	0.096829	0.290043	1769.02	98258.8
114	2.000000	1.117947	7.36616e+06	-44339.1	955.817	-29776.7	0.000000	0.000000	7.141024	548.069	NaN	0.000000	0.001616	0.001677	28.0894	105.859	0.001751	60440.2	7.591035	169.271	545.406	1.117639	0.106516	0.106208	548.069	60440.2	0.099715	0.305568	1793.61	99895.4