Folder: unikorn_login/remote_trans/data/nanoindenter/0828-1/data/Data_2025-08-06,11h17m57s (part 57)

File: 2025-07-22_16-23-58_1_131.txt
2025-07-22, 16:23:58, 1
Index	Phase	Displacement	Time	Pos X	Pos Y	Pos Z	Rot A	Rot B	Piezo Z	Force A	Force B	Gripper	Voltage A	Voltage B	Temperature	Amplitude force	Amplitude pos	Stiffness	Phase shift	Phase excitation	Force A raw	Displacement raw	HMax	HMax raw	Real Force	Real Stiffness	Contact Depth	Area	Hardness	Reduced Mod.
[#]	[#]	[um]	[s]	[um]	[um]	[um]	[m°]	[m°]	[um]	[uN]	[uN]	[V]	[V]	[V]	[°C]	[uN]	[um]	[N/m]	[°]	[°]	[uN]	[um]	[um]	[um]	[uN]	[N/m]	[um]	[um^2]	[MPa]	[MPa]
131	1.000000	0.002219	7.36632e+06	-45189.1	955.82	-29773.8	0.000000	0.000000	6.002803	0.033475	NaN	0.000000	0.001588	0.001684	28.1314	0.058734	0.000935	62.8136	83.8137	-159.794	-0.006936	0.000915	-1.083250	-1.084553	0.033475	62.8136	-1.083649	-3.023648E+14	-1.107115E-16	NaN
131	1.000000	0.044153	7.36632e+06	-45189.1	955.819	-29773.8	0.000000	0.000000	6.044734	-0.037288	NaN	0.000000	0.001560	0.001691	28.0983	0.081181	0.001946	41.7089	-162.718	15.7976	-0.032982	0.042831	-1.041315	-1.042638	-0.037288	41.7089	-1.040645	-7.991638E+13	4.665931E-16	NaN
131	1.000000	0.086170	7.36632e+06	-45189.1	955.818	-29773.8	0.000000	0.000000	6.086754	0.058279	NaN	0.000000	0.001558	0.001680	28.0791	0.030126	0.002048	14.7102	-22.5462	-165.451	-0.000173	0.084855	-0.999299	-1.000613	0.058279	14.7102	-1.002270	-2.434071E+13	-2.394288E-15	NaN
131	1.000000	0.128200	7.36632e+06	-45189.1	955.818	-29773.8	0.000000	0.000000	6.128782	-0.003239	NaN	0.000000	0.001545	0.001665	28.0966	0.029139	0.001916	15.2081	28.6963	19.2629	0.038441	0.126858	-0.957268	-0.958610	-0.003239	15.2081	-0.957109	-5.996366E+12	5.401810E-16	NaN
131	1.000000	0.170207	7.36632e+06	-45189.1	955.818	-29773.8	0.000000	0.000000	6.170791	0.045900	NaN	0.000000	0.001620	0.001693	28.1298	0.039253	0.001810	21.6918	110.659	-166.562	-0.038852	0.168875	-0.915262	-0.916594	0.045900	21.6918	-0.916849	-1.716545E+12	-2.673988E-14	NaN
131	1.000000	0.212222	7.36632e+06	-45189.1	955.819	-29773.8	0.000000	0.000000	6.212807	0.053259	NaN	0.000000	0.001632	0.001670	28.1006	0.046202	0.001914	24.1414	-15.5871	14.9841	0.088739	0.210864	-0.873246	-0.874604	0.053259	24.1414	-0.874901	-4.653055E+11	-1.144603E-13	NaN
131	1.000000	0.254267	7.36632e+06	-45189.1	955.818	-29773.8	0.000000	0.000000	6.254848	-0.047585	NaN	0.000000	0.001611	0.001672	28.081	0.122231	0.001919	63.6823	10.1328	-166.37	0.015299	0.252948	-0.831201	-0.832520	-0.047585	63.6823	-0.830641	-1.170760E+11	4.064481E-13	NaN
131	1.000000	0.296256	7.36632e+06	-45189.1	955.818	-29773.8	0.000000	0.000000	6.296837	-0.024625	NaN	0.000000	0.001626	0.001669	28.0977	0.172777	0.002000	86.4086	-110.399	16.2093	-0.039968	0.294914	-0.789212	-0.790554	-0.024625	86.4086	-0.788999	-3.187738E+10	7.724918E-13	NaN
131	1.000000	0.338285	7.36632e+06	-45189.1	955.818	-29773.8	0.000000	0.000000	6.338865	-0.049004	NaN	0.000000	0.001544	0.001708	28.1299	0.040363	0.002129	18.9564	11.6257	-166.425	0.000191	0.336945	-0.747184	-0.748523	-0.049004	18.9564	-0.745245	-8.100013E+9	6.049819E-12	NaN
131	1.000000	0.380340	7.36632e+06	-45189.1	955.819	-29773.8	0.000000	0.000000	6.380922	-0.010198	NaN	0.000000	0.001601	0.001702	28.0996	0.056852	0.002024	28.0871	102.612	10.4527	0.051983	0.378992	-0.705128	-0.706476	-0.010198	28.0871	-0.704856	-2.279455E+9	4.474036E-12	NaN
131	1.000000	0.422339	7.36632e+06	-45189.1	955.818	-29773.8	0.000000	0.000000	6.422920	-0.032324	NaN	0.000000	0.001540	0.001688	28.0787	0.073093	0.002118	34.506	-1.740565	-163.412	-0.065721	0.420999	-0.663130	-0.664469	-0.032324	34.506	-0.662427	-5.993964E+8	5.392703E-11	NaN
131	1.000000	0.464340	7.36632e+06	-45189.1	955.818	-29773.8	0.000000	0.000000	6.464924	0.056858	NaN	0.000000	0.001557	0.001643	28.0945	0.070321	0.001919	36.6533	120.003	13.414	0.113279	0.462992	-0.621129	-0.622477	0.056858	36.6533	-0.622292	-1.687081E+8	-3.370224E-10	NaN
131	1.000000	0.506387	7.36632e+06	-45189.1	955.818	-29773.8	0.000000	0.000000	6.506971	0.059723	NaN	0.000000	0.001554	0.001667	28.1309	0.074112	0.002107	35.176	-15.2223	-168.213	0.044154	0.505054	-0.579082	-0.580414	0.059723	35.176	-0.580355	-4.463012E+7	-1.338184E-9	NaN
131	1.000000	0.548384	7.36632e+06	-45189.1	955.817	-29773.8	0.000000	0.000000	6.548966	-0.004477	NaN	0.000000	0.001566	0.001627	28.1009	0.089493	0.002060	43.4467	25.4812	12.6162	-0.033185	0.547027	-0.537084	-0.538441	-0.004477	43.4467	-0.537007	-1.121611E+7	3.992006E-10	NaN
131	1.000000	0.590420	7.36632e+06	-45189.1	955.818	-29773.8	0.000000	0.000000	6.591004	0.051882	NaN	0.000000	0.001568	0.001675	28.0822	0.121938	0.001959	62.2445	152.423	-166.223	-0.009869	0.589078	-0.495048	-0.496391	0.051882	62.2445	-0.495674	-2.9829e+06	-1.739315E-8	NaN
131	1.000000	0.632412	7.36632e+06	-45189.1	955.819	-29773.8	0.000000	0.000000	6.632992	-0.057204	NaN	0.000000	0.001568	0.001698	28.0937	0.046761	0.001923	24.3175	21.1346	14.1279	0.015457	0.631061	-0.453056	-0.454407	-0.057204	24.3175	-0.451292	-712086	8.033257E-8	NaN
131	1.000000	0.674440	7.36632e+06	-45189.1	955.819	-29773.8	0.000000	0.000000	6.675022	-0.014343	NaN	0.000000	0.001543	0.001662	28.1307	0.130275	0.002103	61.9499	-171.437	-165.19	-0.023482	0.673102	-0.411029	-0.412366	-0.014343	61.9499	-0.410855	-190791	7.517585E-8	NaN
131	1.000000	0.716442	7.36632e+06	-45189.1	955.818	-29773.8	0.000000	0.000000	6.717025	0.017026	NaN	0.000000	0.001589	0.001685	28.1	0.118773	0.002059	57.6978	-68.1987	12.1596	0.003135	0.715036	-0.369027	-0.370432	0.017026	57.6978	-0.369248	-48450.7	-3.514120E-7	NaN
131	1.000000	0.758467	7.36632e+06	-45189.1	955.818	-29773.8	0.000000	0.000000	6.759051	0.021420	NaN	0.000000	0.001540	0.001667	28.081	0.023515	0.002125	11.0679	-24.2457	-166.505	-0.008177	0.757171	-0.327001	-0.328297	0.021420	11.0679	-0.328453	-12381.7	-1.729932E-6	NaN
131	1.000000	0.800509	7.36632e+06	-45189.1	955.819	-29773.8	0.000000	0.000000	6.801090	-0.045395	NaN	0.000000	0.001552	0.001676	28.0932	0.055421	0.002153	25.7382	115.914	13.0611	-0.033033	0.799075	-0.284959	-0.286394	-0.045395	25.7382	-0.283636	-2677.68	1.695329E-5	NaN
131	1.000000	0.842525	7.36632e+06	-45189.1	955.818	-29773.8	0.000000	0.000000	6.843107	-0.020766	NaN	0.000000	0.001599	0.001708	28.1317	0.063045	0.001927	32.7183	-43.704	-165.412	0.080020	0.841168	-0.242943	-0.244301	-0.020766	32.7183	-0.242467	-628.121	3.306052E-5	NaN
131	1.000000	0.884518	7.36632e+06	-45189.1	955.819	-29773.8	0.000000	0.000000	6.885100	-0.011653	NaN	0.000000	0.001597	0.001669	28.101	0.095628	0.001969	48.5751	-116.645	13.9926	-0.031415	0.883155	-0.200950	-0.202314	-0.011653	48.5751	-0.200770	-135.627	8.592077E-5	NaN
131	1.000000	0.926532	7.36632e+06	-45189.1	955.818	-29773.8	0.000000	0.000000	6.927115	-0.005910	NaN	0.000000	0.001561	0.001697	28.0792	0.082456	0.002073	39.7753	-111.769	-167.049	0.049043	0.925270	-0.158936	-0.160199	-0.005910	39.7753	-0.158825	-26.1258	0.000226	NaN
131	1.000000	0.968539	7.36632e+06	-45189.1	955.819	-29773.8	0.000000	0.000000	6.969121	-0.015626	NaN	0.000000	0.001549	0.001677	28.0912	0.079007	0.002005	39.4081	-10.806	12.5223	-0.030690	0.967199	-0.116929	-0.118270	-0.015626	39.4081	-0.116632	-4.126922	0.003786	NaN
131	1.000000	1.010578	7.36632e+06	-45189.1	955.82	-29773.8	0.000000	0.000000	7.011161	0.007715	NaN	0.000000	0.001534	0.001695	28.1301	0.034802	0.001929	18.038	-110.724	-162.071	0.000308	1.009249	-0.074890	-0.076219	0.007715	18.038	-0.075211	-0.467701	-0.016495	NaN
131	1.000000	1.052569	7.36633e+06	-45189.1	955.819	-29773.8	0.000000	0.000000	7.053153	0.039846	NaN	0.000000	0.001521	0.001727	28.1033	0.025499	0.002097	12.1569	-77.6647	16.8312	0.099428	1.051255	-0.032899	-0.034213	0.039846	12.1569	-0.035357	-0.032811	-1.214407	NaN
131	1.000000	1.094497	7.36633e+06	-45189.1	955.819	-29773.8	0.000000	0.000000	7.095375	7.192937	NaN	0.000000	0.001550	0.001706	28.0813	7.582536	0.001890	4011.69	14.3272	-171.939	5.958895	1.093203	0.009028	0.007734	7.192937	4011.69	0.007683	0.006719	1070.58	44715.4
131	2.000000	1.105666	7.36633e+06	-45189.1	955.82	-29773.8	0.000000	0.000000	7.107237	24.0507	NaN	0.000000	0.001564	0.001696	28.0923	19.8733	0.001807	10998.1	5.097765	3.623578	22.6499	1.105364	0.020197	0.019896	24.0507	10998.1	0.018557	0.020325	1183.28	70480.8
131	2.000000	1.116177	7.36633e+06	-45189.1	955.819	-29773.8	0.000000	0.000000	7.118989	54.2392	NaN	0.000000	0.001585	0.001715	28.1295	29.6309	0.001722	17208.1	6.454442	179.23	54.4349	1.115810	0.030708	0.030342	54.2392	17208.1	0.028344	0.037382	1450.95	81316
131	2.000000	1.126598	7.36633e+06	-45189.1	955.82	-29773.8	0.000000	0.000000	7.131003	92.9972	NaN	0.000000	0.001650	0.001691	28.1036	39.8419	0.001700	23440.4	1.813399	0.628499	89.7875	1.126251	0.041130	0.040783	92.9972	23440.4	0.038154	0.059345	1567.06	87911.5
131	2.000000	1.137128	7.36633e+06	-45189.1	955.818	-29773.8	0.000000	0.000000	7.143312	136.263	NaN	0.000000	0.001605	0.001721	28.0795	49.8102	0.001743	28573.2	3.621051	178.016	136.936	1.136878	0.051660	0.051410	136.263	28573.2	0.048083	0.086580	1573.84	88720.3
131	2.000000	1.147597	7.36633e+06	-45189.1	955.819	-29773.8	0.000000	0.000000	7.156043	191.304	NaN	0.000000	0.001627	0.001718	28.0912	59.3755	0.001775	33443.2	5.240127	-4.990624	190.204	1.147261	0.062128	0.061793	191.304	33443.2	0.057838	0.118170	1618.88	88884.6
131	2.000000	1.158020	7.36633e+06	-45189.1	955.819	-29773.8	0.000000	0.000000	7.169019	253.408	NaN	0.000000	0.001625	0.001682	28.1312	69.3022	0.001757	39448.1	5.783460	172.962	249.039	1.157712	0.072552	0.072243	253.408	39448.1	0.067734	0.154991	1634.98	91547.3
131	2.000000	1.168636	7.36633e+06	-45189.1	955.819	-29773.8	0.000000	0.000000	7.182474	322.473	NaN	0.000000	0.001596	0.001659	28.1056	78.7663	0.001849	42596.4	5.134982	-6.292840	323.164	1.168213	0.083167	0.082744	322.473	42596.4	0.077490	0.195882	1646.26	87932.4
131	2.000000	1.179061	7.36633e+06	-45189.1	955.819	-29773.8	0.000000	0.000000	7.195965	397.059	NaN	0.000000	0.001634	0.001739	28.0787	88.722	0.001810	49013.6	5.821941	171.225	394.843	1.178710	0.093593	0.093242	397.059	49013.6	0.087517	0.242554	1636.99	90925.6
131	2.000000	1.189483	7.36633e+06	-45189.1	955.821	-29773.8	0.000000	0.000000	7.210421	495.186	NaN	0.000000	0.001590	0.001712	28.0907	96.6128	0.001702	56756.5	3.014033	-6.826682	489.03	1.189194	0.104014	0.103725	495.186	56756.5	0.097471	0.293463	1687.39	95722.1
131	2.000000	1.194019	7.36633e+06	-45189.1	955.82	-29773.8	0.000000	0.000000	7.216556	534.09	NaN	0.000000	0.001556	0.001711	28.1292	100.987	0.001651	61167.6	3.739375	172.059	531.523	1.193622	0.108551	0.108154	534.09	61167.6	0.102002	0.318136	1678.81	99080.4

File: 2025-07-22_16-23-58_1_132.txt
2025-07-22, 16:23:58, 1
Index	Phase	Displacement	Time	Pos X	Pos Y	Pos Z	Rot A	Rot B	Piezo Z	Force A	Force B	Gripper	Voltage A	Voltage B	Temperature	Amplitude force	Amplitude pos	Stiffness	Phase shift	Phase excitation	Force A raw	Displacement raw	HMax	HMax raw	Real Force	Real Stiffness	Contact Depth	Area	Hardness	Reduced Mod.
[#]	[#]	[um]	[s]	[um]	[um]	[um]	[m°]	[m°]	[um]	[uN]	[uN]	[V]	[V]	[V]	[°C]	[uN]	[um]	[N/m]	[°]	[°]	[uN]	[um]	[um]	[um]	[uN]	[N/m]	[um]	[um^2]	[MPa]	[MPa]
132	1.000000	0.002636	7.36633e+06	-45239.1	955.818	-29773.6	0.000000	0.000000	6.002807	0.051053	NaN	0.000000	0.001549	0.001681	28.0834	0.011776	0.001027	11.4656	-25.9692	-163.573	0.033769	0.001384	-1.067572	-1.068823	0.051053	11.4656	-1.070911	-2.039073E+14	-2.503715E-16	NaN
132	1.000000	0.042605	7.36633e+06	-45239.1	955.818	-29773.6	0.000000	0.000000	6.042770	-0.094269	NaN	0.000000	0.001586	0.001663	28.0816	0.063526	0.002059	30.8518	70.9643	-162.295	-0.044740	0.041326	-1.027603	-1.028882	-0.094269	30.8518	-1.025311	-4.970572E+13	1.896543E-15	NaN
132	1.000000	0.082590	7.36633e+06	-45239.1	955.818	-29773.6	0.000000	0.000000	6.082761	0.031106	NaN	0.000000	0.001594	0.001677	28.0821	0.044260	0.002061	21.4745	-85.8196	-165.07	-0.012728	0.081297	-0.987617	-0.988910	0.031106	21.4745	-0.988704	-1.598288E+13	-1.946217E-15	NaN
132	1.000000	0.122609	7.36633e+06	-45239.1	955.818	-29773.6	0.000000	0.000000	6.122776	-0.044553	NaN	0.000000	0.001550	0.001638	28.0798	0.095407	0.001927	49.5205	-128.363	-163.686	-0.059706	0.121259	-0.947599	-0.948949	-0.044553	49.5205	-0.946924	-4.370595E+12	1.019380E-14	NaN
132	1.000000	0.162625	7.36633e+06	-45239.1	955.817	-29773.6	0.000000	0.000000	6.162795	0.010013	NaN	0.000000	0.001583	0.001756	28.0812	0.120337	0.001905	63.1559	77.465	-166.08	-0.014834	0.161346	-0.907582	-0.908861	0.010013	63.1559	-0.907701	-1.291545E+12	-7.752690E-15	NaN
132	1.000000	0.202664	7.36633e+06	-45239.1	955.818	-29773.6	0.000000	0.000000	6.202836	0.047320	NaN	0.000000	0.001559	0.001726	28.0811	0.085575	0.001880	45.5304	-139.086	-161.966	0.102212	0.201302	-0.867543	-0.868905	0.047320	45.5304	-0.868323	-3.790983E+11	-1.248237E-13	NaN
132	1.000000	0.242679	7.36633e+06	-45239.1	955.817	-29773.6	0.000000	0.000000	6.242849	0.008654	NaN	0.000000	0.001573	0.001706	28.0838	0.072779	0.002005	36.2952	-41.1882	-164.046	0.008461	0.241353	-0.827528	-0.828854	0.008654	36.2952	-0.827707	-1.068323E+11	-8.100433E-14	NaN
132	1.000000	0.282668	7.36633e+06	-45239.1	955.818	-29773.6	0.000000	0.000000	6.282838	0.006592	NaN	0.000000	0.001611	0.001738	28.0815	0.059412	0.001967	30.204	-152.037	-166.398	0.041940	0.281383	-0.787540	-0.788824	0.006592	30.204	-0.787703	-3.061188E+10	-2.153440E-13	NaN
132	1.000000	0.322691	7.36633e+06	-45239.1	955.819	-29773.6	0.000000	0.000000	6.322862	0.043943	NaN	0.000000	0.001547	0.001726	28.082	0.062056	0.001949	31.8454	63.5226	-162.727	-0.003654	0.321454	-0.747517	-0.748753	0.043943	31.8454	-0.748552	-8.984664E+9	-4.890906E-12	NaN
132	1.000000	0.362723	7.36633e+06	-45239.1	955.819	-29773.6	0.000000	0.000000	6.362894	0.027234	NaN	0.000000	0.001577	0.001757	28.0804	0.052161	0.002022	25.7937	-145.139	-165.537	0.073186	0.361366	-0.707484	-0.708841	0.027234	25.7937	-0.708276	-2.538181E+9	-1.072984E-11	NaN
132	1.000000	0.402753	7.36633e+06	-45239.1	955.819	-29773.6	0.000000	0.000000	6.402922	-0.021819	NaN	0.000000	0.001566	0.001747	28.0808	0.005144	0.002020	2.546535	23.2935	-162.183	0.003734	0.401430	-0.667454	-0.668777	-0.021819	2.546535	-0.661028	-5.735273E+8	3.804344E-11	NaN
132	1.000000	0.442736	7.36633e+06	-45239.1	955.818	-29773.6	0.000000	0.000000	6.442907	0.029750	NaN	0.000000	0.001563	0.001722	28.0805	0.056828	0.002089	27.205	-27.3422	-166.972	0.024559	0.441475	-0.627471	-0.628732	0.029750	27.205	-0.628291	-2.039643E+8	-1.458605E-10	NaN
132	1.000000	0.482770	7.36633e+06	-45239.1	955.819	-29773.6	0.000000	0.000000	6.482941	0.013196	NaN	0.000000	0.001591	0.001740	28.0816	0.028617	0.001954	14.6438	-150.945	-165.778	0.033827	0.481493	-0.587437	-0.588714	0.013196	14.6438	-0.588113	-5.710121E+7	-2.311042E-10	NaN
132	1.000000	0.522785	7.36633e+06	-45239.1	955.819	-29773.6	0.000000	0.000000	6.522954	-0.026751	NaN	0.000000	0.001556	0.001726	28.082	0.086990	0.001955	44.5019	37.9623	-168.625	0.047262	0.521483	-0.547422	-0.548724	-0.026751	44.5019	-0.546971	-1.541700E+7	1.735179E-9	NaN
132	1.000000	0.562821	7.36633e+06	-45239.1	955.818	-29773.6	0.000000	0.000000	6.562989	-0.026473	NaN	0.000000	0.001529	0.001741	28.0817	0.017654	0.001941	9.095391	-157.113	-166.53	-0.052681	0.561511	-0.507387	-0.508696	-0.026473	9.095391	-0.505204	-4.05119e+06	6.534598E-9	NaN
132	1.000000	0.602785	7.36633e+06	-45239.1	955.818	-29773.6	0.000000	0.000000	6.602956	0.027652	NaN	0.000000	0.001628	0.001721	28.0809	0.061345	0.001971	31.1164	112.863	-165.26	-0.021644	0.601498	-0.467422	-0.468710	0.027652	31.1164	-0.468088	-1.22629e+06	-2.254967E-8	NaN
132	1.000000	0.642825	7.36633e+06	-45239.1	955.819	-29773.6	0.000000	0.000000	6.642995	0.010642	NaN	0.000000	0.001563	0.001732	28.0812	0.102938	0.002060	49.9695	84.9244	-161.369	-0.004071	0.641546	-0.427382	-0.428662	0.010642	49.9695	-0.427542	-329060	-3.234040E-8	NaN
132	1.000000	0.682836	7.36633e+06	-45239.1	955.819	-29773.6	0.000000	0.000000	6.683006	0.017126	NaN	0.000000	0.001557	0.001734	28.0804	0.036665	0.002032	18.0441	177.107	-164.998	0.042479	0.681522	-0.387372	-0.388685	0.017126	18.0441	-0.388083	-90311.5	-1.896356E-7	NaN
132	1.000000	0.722874	7.36633e+06	-45239.1	955.818	-29773.6	0.000000	0.000000	6.723042	-0.039019	NaN	0.000000	0.001557	0.001755	28.0798	0.173007	0.002029	85.2747	-117.428	-164.671	-0.009089	0.721598	-0.347333	-0.348609	-0.039019	85.2747	-0.346990	-23082.8	1.690398E-6	NaN
132	1.000000	0.762878	7.36633e+06	-45239.1	955.818	-29773.6	0.000000	0.000000	6.763050	0.050244	NaN	0.000000	0.001508	0.001744	28.082	0.012100	0.001984	6.098224	-109.366	-165.799	0.075727	0.761592	-0.307329	-0.308616	0.050244	6.098224	-0.313508	-7463.19	-6.732205E-6	NaN
132	1.000000	0.802908	7.36633e+06	-45239.1	955.818	-29773.6	0.000000	0.000000	6.803081	0.081518	NaN	0.000000	0.001505	0.001723	28.0831	0.094459	0.002015	46.8862	-80.2567	-161.204	0.166192	0.801610	-0.267300	-0.268597	0.081518	46.8862	-0.268603	-1586.01	-5.139797E-5	NaN
132	1.000000	0.842895	7.36633e+06	-45239.1	955.819	-29773.6	0.000000	0.000000	6.843067	0.058563	NaN	0.000000	0.001596	0.001741	28.0826	0.082140	0.002036	40.3369	111.67	-163.44	-0.004491	0.841592	-0.227312	-0.228616	0.058563	40.3369	-0.228401	-377.785	-0.000155	NaN
132	1.000000	0.882948	7.36633e+06	-45239.1	955.818	-29773.6	0.000000	0.000000	6.883118	0.008332	NaN	0.000000	0.001533	0.001721	28.0831	0.064329	0.001943	33.1009	-26.2539	-164.768	0.029752	0.881651	-0.187260	-0.188556	0.008332	33.1009	-0.187449	-81.5288	-0.000102	NaN
132	1.000000	0.922945	7.36633e+06	-45239.1	955.819	-29773.6	0.000000	0.000000	6.923117	0.058085	NaN	0.000000	0.001515	0.001758	28.0799	0.015579	0.001956	7.964905	-113.409	-163.782	0.098595	0.921617	-0.147262	-0.148591	0.058085	7.964905	-0.152731	-20.3066	-0.002860	NaN
132	1.000000	0.962967	7.36633e+06	-45239.1	955.819	-29773.6	0.000000	0.000000	6.963138	0.030085	NaN	0.000000	0.001515	0.001730	28.0813	0.032149	0.002058	15.6187	62.1995	-165.797	0.028668	0.961697	-0.107240	-0.108510	0.030085	15.6187	-0.108685	-2.818768	-0.010673	NaN
132	1.000000	1.002978	7.36633e+06	-45239.1	955.819	-29773.6	0.000000	0.000000	7.003149	0.024245	NaN	0.000000	0.001536	0.001714	28.081	0.106736	0.001976	54.0104	-104.842	-162.161	-0.001583	1.001673	-0.067230	-0.068535	0.024245	54.0104	-0.067566	-0.293179	-0.082696	NaN
132	1.000000	1.043010	7.36633e+06	-45239.1	955.819	-29773.6	0.000000	0.000000	7.043181	0.038944	NaN	0.000000	0.001546	0.001759	28.083	0.027830	0.002018	13.7943	-74.0956	-163.766	0.070380	1.041672	-0.027198	-0.028535	0.038944	13.7943	-0.029315	-0.022028	-1.767960	NaN
132	2.000000	1.079501	7.36633e+06	-45239.1	955.819	-29773.6	0.000000	0.000000	7.080155	11.7786	NaN	0.000000	0.001552	0.001715	28.0819	9.687403	0.001644	5893.92	6.554872	-174.082	11.2242	1.079257	0.009293	0.009050	11.7786	5893.92	0.007794	0.006832	1724.07	65149.1
132	2.000000	1.089487	7.36633e+06	-45239.1	955.821	-29773.6	0.000000	0.000000	7.090717	25.8132	NaN	0.000000	0.001536	0.001720	28.0822	19.1129	0.001819	10510.2	7.180648	-178.198	26.0797	1.089162	0.019279	0.018955	25.8132	10510.2	0.017437	0.018674	1382.3	70269
132	2.000000	1.099403	7.36634e+06	-45239.1	955.82	-29773.6	0.000000	0.000000	7.101892	56.4148	NaN	0.000000	0.001545	0.001695	28.081	28.8656	0.001784	16178	5.837596	179.815	56.0626	1.099078	0.029196	0.028871	56.4148	16178	0.026581	0.033954	1661.49	80214.2
132	2.000000	1.109339	7.36634e+06	-45239.1	955.82	-29773.6	0.000000	0.000000	7.112984	84.526	NaN	0.000000	0.001574	0.001691	28.0807	38.8491	0.001912	20318.4	3.869251	-179.626	82.451	1.109015	0.039132	0.038808	84.526	20318.4	0.036012	0.054128	1561.59	79790.3
132	2.000000	1.119387	7.36634e+06	-45239.1	955.819	-29773.6	0.000000	0.000000	7.124551	121.506	NaN	0.000000	0.001524	0.001694	28.0815	48.26	0.001828	26393.3	5.326811	176.872	121.871	1.119083	0.049180	0.048876	121.506	26393.3	0.045727	0.079664	1525.23	85434.9
132	2.000000	1.129338	7.36634e+06	-45239.1	955.819	-29773.6	0.000000	0.000000	7.136695	174.848	NaN	0.000000	0.001532	0.001683	28.082	58.0275	0.001815	31969.6	4.939718	176.192	174.477	1.129041	0.059130	0.058833	174.848	31969.6	0.055028	0.108587	1610.21	88638.3
132	2.000000	1.139314	7.36634e+06	-45239.1	955.819	-29773.6	0.000000	0.000000	7.148940	230.042	NaN	0.000000	0.001518	0.001683	28.0819	68.112	0.001868	36464.7	9.246068	170.832	227.66	1.138879	0.069106	0.068672	230.042	36464.7	0.064375	0.141961	1620.45	88422
132	2.000000	1.149346	7.36634e+06	-45239.1	955.819	-29773.6	0.000000	0.000000	7.161252	285.522	NaN	0.000000	0.001542	0.001713	28.0843	75.4792	0.001821	41454.7	2.295821	176.383	285.323	1.149008	0.079138	0.078801	285.522	41454.7	0.073973	0.180622	1580.77	89117.1
132	2.000000	1.159354	7.36634e+06	-45239.1	955.819	-29773.6	0.000000	0.000000	7.173651	343.67	NaN	0.000000	0.001538	0.001692	28.0834	84.5854	0.001848	45763.4	2.891460	174.755	342.453	1.159150	0.089147	0.088943	343.67	45763.4	0.083515	0.223367	1538.59	88467.2
132	2.000000	1.169267	7.36634e+06	-45239.1	955.817	-29773.6	0.000000	0.000000	7.186922	425.371	NaN	0.000000	0.001563	0.001712	28.0824	94.4312	0.001889	49981.3	3.353251	173.868	420.949	1.169071	0.099060	0.098864	425.371	49981.3	0.092677	0.268378	1584.97	88147
132	2.000000	1.176758	7.36634e+06	-45239.1	955.819	-29773.6	0.000000	0.000000	7.196949	487.066	NaN	0.000000	0.001586	0.001671	28.1151	102.131	0.001949	52404.1	6.415548	-9.454996	482.905	1.176470	0.106551	0.106262	487.066	52404.1	0.099580	0.304830	1597.83	86718.1