Folder: unikorn_login/remote_trans/data/nanoindenter/0828-1/data/Data_2025-08-06,11h17m57s (part 79)

File: 2025-07-22_16-23-58_1_175.txt
2025-07-22, 16:23:58, 1
Index	Phase	Displacement	Time	Pos X	Pos Y	Pos Z	Rot A	Rot B	Piezo Z	Force A	Force B	Gripper	Voltage A	Voltage B	Temperature	Amplitude force	Amplitude pos	Stiffness	Phase shift	Phase excitation	Force A raw	Displacement raw	HMax	HMax raw	Real Force	Real Stiffness	Contact Depth	Area	Hardness	Reduced Mod.
[#]	[#]	[um]	[s]	[um]	[um]	[um]	[m°]	[m°]	[um]	[uN]	[uN]	[V]	[V]	[V]	[°C]	[uN]	[um]	[N/m]	[°]	[°]	[uN]	[um]	[um]	[um]	[uN]	[N/m]	[um]	[um^2]	[MPa]	[MPa]
175	1.000000	0.001953	7.36675e+06	-47389.1	955.819	-29766.5	0.000000	0.000000	6.002795	0.055467	NaN	0.000000	0.001523	0.001680	28.1319	0.086088	0.000975	88.314	126.563	-163.933	-0.046059	0.000681	-1.180447	-1.181720	0.055467	88.314	-1.180918	-6.097790E+15	-9.096278E-18	NaN
175	1.000000	0.045924	7.36675e+06	-47389.1	955.819	-29766.5	0.000000	0.000000	6.046761	-0.046918	NaN	0.000000	0.001592	0.001706	28.0807	0.080643	0.001917	42.0659	170.698	-164.635	-0.139794	0.044611	-1.136476	-1.137789	-0.046918	42.0659	-1.135640	-1.507524E+15	3.112240E-17	NaN
175	1.000000	0.089928	7.36675e+06	-47389.1	955.819	-29766.5	0.000000	0.000000	6.090767	0.007298	NaN	0.000000	0.001530	0.001694	28.1316	0.046665	0.002027	23.0224	129.593	-163.523	0.005878	0.088611	-1.092473	-1.093790	0.007298	23.0224	-1.092710	-4.001336E+14	-1.823937E-17	NaN
175	1.000000	0.133928	7.36675e+06	-47389.1	955.818	-29766.5	0.000000	0.000000	6.134769	0.051434	NaN	0.000000	0.001536	0.001738	28.0774	0.100399	0.001957	51.2931	95.1418	-166.21	-0.007368	0.132660	-1.048473	-1.049740	0.051434	51.2931	-1.049225	-1.042307E+14	-4.934664E-16	NaN
175	1.000000	0.177977	7.36675e+06	-47389.1	955.819	-29766.5	0.000000	0.000000	6.178816	-0.003926	NaN	0.000000	0.001555	0.001672	28.1289	0.108571	0.002019	53.7761	72.6838	-167.406	-0.002030	0.176669	-1.004423	-1.005731	-0.003926	53.7761	-1.004369	-2.597665E+13	1.511196E-16	NaN
175	1.000000	0.221985	7.36675e+06	-47389.1	955.819	-29766.5	0.000000	0.000000	6.222826	0.054582	NaN	0.000000	0.001571	0.001681	28.0791	0.025741	0.001938	13.2848	11.1553	-165.781	0.066988	0.220669	-0.960415	-0.961732	0.054582	13.2848	-0.963497	-7.311516E+12	-7.465147E-15	NaN
175	1.000000	0.266006	7.36675e+06	-47389.1	955.819	-29766.5	0.000000	0.000000	6.266847	0.056118	NaN	0.000000	0.001564	0.001689	28.1304	0.093051	0.001996	46.6204	-80.8407	-167.15	0.062964	0.264669	-0.916395	-0.917731	0.056118	46.6204	-0.917297	-1.740661E+12	-3.223953E-14	NaN
175	1.000000	0.310021	7.36675e+06	-47389.1	955.82	-29766.5	0.000000	0.000000	6.310858	-0.037134	NaN	0.000000	0.001528	0.001657	28.0798	0.038369	0.001839	20.8621	-157.434	-165.931	0.109497	0.308682	-0.872380	-0.873719	-0.037134	20.8621	-0.871045	-4.126437E+11	8.999162E-14	NaN
175	1.000000	0.354027	7.36675e+06	-47389.1	955.819	-29766.5	0.000000	0.000000	6.354864	-0.050336	NaN	0.000000	0.001617	0.001667	28.1307	0.045454	0.001949	23.3259	-103.338	-164.291	-0.062462	0.352768	-0.828373	-0.829633	-0.050336	23.3259	-0.826755	-1.037038E+11	4.853809E-13	NaN
175	1.000000	0.398063	7.36675e+06	-47389.1	955.818	-29766.5	0.000000	0.000000	6.398902	-0.002043	NaN	0.000000	0.001509	0.001706	28.0801	0.142770	0.001861	76.7287	108.516	-169.949	0.019380	0.396770	-0.784338	-0.785630	-0.002043	76.7287	-0.784318	-2.753574E+10	7.417930E-14	NaN
175	1.000000	0.442100	7.36675e+06	-47389.1	955.818	-29766.5	0.000000	0.000000	6.442939	0.022064	NaN	0.000000	0.001519	0.001715	28.129	0.093272	0.001994	46.7804	148.064	-165.581	0.007586	0.440769	-0.740301	-0.741632	0.022064	46.7804	-0.740655	-7.014107E+9	-3.145595E-12	NaN
175	1.000000	0.486119	7.36675e+06	-47389.1	955.819	-29766.5	0.000000	0.000000	6.486957	-0.001755	NaN	0.000000	0.001549	0.001734	28.0792	0.108206	0.002135	50.6823	-25.0764	-163.735	-0.064208	0.484763	-0.696282	-0.697638	-0.001755	50.6823	-0.696256	-1.739390E+9	1.008700E-12	NaN
175	1.000000	0.530107	7.36675e+06	-47389.1	955.819	-29766.5	0.000000	0.000000	6.530945	-0.018742	NaN	0.000000	0.001547	0.001690	28.13	0.011973	0.002104	5.691342	155.074	-167.438	-9.637601E-5	0.528775	-0.652293	-0.653626	-0.018742	5.691342	-0.649824	-4.027350E+8	4.653579E-11	NaN
175	1.000000	0.574116	7.36675e+06	-47389.1	955.819	-29766.5	0.000000	0.000000	6.574960	0.111513	NaN	0.000000	0.001511	0.001690	28.08	0.037867	0.002049	18.4787	-106.3	-164.305	0.060152	0.572818	-0.608285	-0.609582	0.111513	18.4787	-0.612811	-1.249620E+8	-8.923730E-10	NaN
175	1.000000	0.618150	7.36675e+06	-47389.1	955.819	-29766.5	0.000000	0.000000	6.618989	-0.000702	NaN	0.000000	0.001518	0.001710	28.1312	0.070381	0.002007	35.0609	67.9117	-163.775	0.045718	0.616818	-0.564250	-0.565583	-0.000702	35.0609	-0.564235	-2.672701E+7	2.626021E-11	NaN
175	1.000000	0.662193	7.36675e+06	-47389.1	955.818	-29766.5	0.000000	0.000000	6.663034	0.038569	NaN	0.000000	0.001552	0.001724	28.0804	0.063819	0.002081	30.6647	30.9513	-166.392	-0.018291	0.660872	-0.520207	-0.521529	0.038569	30.6647	-0.521151	-6.75459e+06	-5.710023E-9	NaN
175	1.000000	0.706209	7.36675e+06	-47389.1	955.819	-29766.5	0.000000	0.000000	6.707048	-0.002764	NaN	0.000000	0.001553	0.001771	28.1301	0.067010	0.002054	32.6256	-10.7176	-166.041	-0.018115	0.704889	-0.476192	-0.477511	-0.002764	32.6256	-0.476128	-1.58966e+06	1.738476E-9	NaN
175	1.000000	0.750194	7.36675e+06	-47389.1	955.818	-29766.5	0.000000	0.000000	6.751033	0.009315	NaN	0.000000	0.001510	0.001743	28.0787	0.122992	0.002099	58.5987	-13.3223	-162.737	-0.001538	0.748843	-0.432207	-0.433558	0.009315	58.5987	-0.432326	-384555	-2.422340E-8	NaN
175	1.000000	0.794237	7.36675e+06	-47389.1	955.819	-29766.5	0.000000	0.000000	6.795077	0.025365	NaN	0.000000	0.001518	0.001702	28.13	0.040995	0.001929	21.2523	43.8777	-167.638	0.063438	0.792887	-0.388163	-0.389514	0.025365	21.2523	-0.389058	-93259.8	-2.719777E-7	NaN
175	1.000000	0.838226	7.36675e+06	-47389.1	955.818	-29766.5	0.000000	0.000000	6.839068	0.064809	NaN	0.000000	0.001526	0.001719	28.0805	0.116777	0.001921	60.8045	-150.809	-165.052	0.035666	0.836986	-0.344174	-0.345414	0.064809	60.8045	-0.344974	-21576.1	-3.003713E-6	NaN
175	1.000000	0.882256	7.36675e+06	-47389.1	955.818	-29766.5	0.000000	0.000000	6.883097	0.067301	NaN	0.000000	0.001531	0.001711	28.1308	0.041233	0.001931	21.3582	-51.5481	-165.009	0.068600	0.880927	-0.300145	-0.301474	0.067301	21.3582	-0.302508	-5127.99	-1.312430E-5	NaN
175	1.000000	0.926293	7.36675e+06	-47389.1	955.818	-29766.5	0.000000	0.000000	6.927137	0.120865	NaN	0.000000	0.001577	0.001685	28.0799	0.043365	0.001889	22.9543	18.619	-163.322	0.029901	0.924995	-0.256107	-0.257406	0.120865	22.9543	-0.260056	-1174.31	-0.000103	NaN
175	1.000000	0.970293	7.36675e+06	-47389.1	955.818	-29766.5	0.000000	0.000000	6.971135	0.086574	NaN	0.000000	0.001580	0.001706	28.1296	0.050928	0.001997	25.4987	113.522	-165.961	0.002869	0.968943	-0.212108	-0.213458	0.086574	25.4987	-0.214654	-228.007	-0.000380	NaN
175	1.000000	1.014302	7.36675e+06	-47389.1	955.819	-29766.5	0.000000	0.000000	7.015140	-0.020068	NaN	0.000000	0.001540	0.001697	28.0785	0.134457	0.002027	66.3391	-83.2494	-162.243	-0.035919	1.012994	-0.168099	-0.169406	-0.020068	66.3391	-0.167872	-37.7204	0.000532	NaN
175	1.000000	1.058336	7.36675e+06	-47389.1	955.817	-29766.5	0.000000	0.000000	7.059174	-0.030704	NaN	0.000000	0.001539	0.001757	28.1286	0.028619	0.002070	13.8246	96.2661	-163.828	-0.013340	1.056992	-0.124065	-0.125408	-0.030704	13.8246	-0.122399	-5.398378	0.005688	NaN
175	1.000000	1.102353	7.36675e+06	-47389.1	955.818	-29766.5	0.000000	0.000000	7.103190	-0.034276	NaN	0.000000	0.001577	0.001717	28.0812	0.029935	0.002001	14.9568	-13.7389	-166.936	0.027929	1.101015	-0.080048	-0.081386	-0.034276	14.9568	-0.078329	-0.561921	0.060997	NaN
175	1.000000	1.146345	7.36675e+06	-47389.1	955.819	-29766.5	0.000000	0.000000	7.147183	-0.012035	NaN	0.000000	0.001558	0.001719	28.1292	0.006731	0.001982	3.395761	-120.195	-164.008	0.080094	1.145053	-0.036056	-0.037347	-0.012035	3.395761	-0.033398	-0.028750	0.418616	NaN
175	2.000000	1.189827	7.36675e+06	-47389.1	955.818	-29766.5	0.000000	0.000000	7.191011	8.399530	NaN	0.000000	0.001621	0.001708	28.0814	8.464672	0.001645	5145.31	10.8308	-174.735	7.525646	1.188993	0.007426	0.006593	8.399530	5145.31	0.006202	0.005257	1597.8	64836.4
175	2.000000	1.200955	7.36675e+06	-47389.1	955.818	-29766.5	0.000000	0.000000	7.202756	23.404	NaN	0.000000	0.001654	0.001727	28.1291	18.2905	0.001665	10988.4	7.143970	-176.852	23.6767	1.200631	0.018555	0.018231	23.404	10988.4	0.016957	0.017985	1301.34	74861
175	2.000000	1.211914	7.36675e+06	-47389.1	955.819	-29766.5	0.000000	0.000000	7.214752	48.6257	NaN	0.000000	0.001619	0.001733	28.0797	28.4074	0.001925	14754.9	4.367619	-175.827	47.8037	1.211581	0.029513	0.029181	48.6257	14754.9	0.027042	0.034835	1395.88	72227.2
175	2.000000	1.222882	7.36675e+06	-47389.1	955.819	-29766.5	0.000000	0.000000	7.227054	81.0705	NaN	0.000000	0.001672	0.001745	28.1279	39.1712	0.001787	21915.8	2.715878	-179.162	80.9572	1.222635	0.040482	0.040234	81.0705	21915.8	0.037707	0.058238	1392.06	82971.3
175	2.000000	1.233968	7.36675e+06	-47389.1	955.819	-29766.5	0.000000	0.000000	7.239766	120.627	NaN	0.000000	0.001676	0.001730	28.0817	49.9254	0.001835	27201	3.361958	179.052	125.018	1.233604	0.051567	0.051203	120.627	27201	0.048241	0.087054	1385.66	84229.3
175	2.000000	1.244906	7.36675e+06	-47389.1	955.819	-29766.5	0.000000	0.000000	7.253216	181.741	NaN	0.000000	0.001641	0.001729	28.1293	59.126	0.001790	33032.5	4.531862	176.431	180.762	1.244459	0.062505	0.062058	181.741	33032.5	0.058378	0.120058	1513.77	87100.2
175	2.000000	1.255879	7.36675e+06	-47389.1	955.819	-29766.5	0.000000	0.000000	7.266496	237.84	NaN	0.000000	0.001619	0.001726	28.081	72.6357	0.001882	38604.8	4.295988	174.755	237.526	1.255570	0.073478	0.073169	237.84	38604.8	0.068858	0.159471	1491.43	88322.9
175	2.000000	1.266844	7.36675e+06	-47389.1	955.819	-29766.5	0.000000	0.000000	7.280308	307.091	NaN	0.000000	0.001590	0.001760	28.1282	83.0807	0.001838	45201.4	6.931721	171.259	307.438	1.266477	0.084443	0.084077	307.091	45201.4	0.079348	0.204179	1504.02	91394.3
175	2.000000	1.277799	7.36675e+06	-47389.1	955.819	-29766.5	0.000000	0.000000	7.294729	391.399	NaN	0.000000	0.001613	0.001787	28.078	92.2125	0.001877	49124.7	5.671231	171.821	389.024	1.277479	0.095398	0.095079	391.399	49124.7	0.089422	0.251949	1553.49	89416.3
175	2.000000	1.288327	7.36675e+06	-47389.1	955.819	-29766.5	0.000000	0.000000	7.308181	462.509	NaN	0.000000	0.001593	0.001739	28.0889	100.705	0.001835	54878.8	2.412703	-5.924376	460.069	1.287992	0.105926	0.105591	462.509	54878.8	0.099605	0.304970	1516.57	90792.4

File: 2025-07-22_16-23-58_1_176.txt
2025-07-22, 16:23:58, 1
Index	Phase	Displacement	Time	Pos X	Pos Y	Pos Z	Rot A	Rot B	Piezo Z	Force A	Force B	Gripper	Voltage A	Voltage B	Temperature	Amplitude force	Amplitude pos	Stiffness	Phase shift	Phase excitation	Force A raw	Displacement raw	HMax	HMax raw	Real Force	Real Stiffness	Contact Depth	Area	Hardness	Reduced Mod.
[#]	[#]	[um]	[s]	[um]	[um]	[um]	[m°]	[m°]	[um]	[uN]	[uN]	[V]	[V]	[V]	[°C]	[uN]	[um]	[N/m]	[°]	[°]	[uN]	[um]	[um]	[um]	[uN]	[N/m]	[um]	[um^2]	[MPa]	[MPa]
176	1.000000	0.002763	7.36676e+06	-47439.1	955.818	-29766.4	0.000000	0.000000	6.002766	0.009108	NaN	0.000000	0.001615	0.001700	28.0837	0.039000	0.000983	39.6867	-124.852	-164.768	0.009393	0.001554	-1.094408	-1.095618	0.009108	39.6867	-1.094580	-4.239409E+14	-2.148509E-17	NaN
176	1.000000	0.044787	7.36676e+06	-47439.1	955.819	-29766.4	0.000000	0.000000	6.044789	-0.004463	NaN	0.000000	0.001570	0.001679	28.0875	0.045748	0.001985	23.051	118.435	13.1461	-0.017659	0.043390	-1.052384	-1.053781	-0.004463	23.051	-1.052239	-1.144220E+14	3.900275E-17	NaN
176	1.000000	0.086765	7.36676e+06	-47439.1	955.819	-29766.4	0.000000	0.000000	6.086767	-0.023554	NaN	0.000000	0.001575	0.001670	28.1269	0.105906	0.001956	54.1445	38.4177	-164.446	0.005544	0.085481	-1.010406	-1.011690	-0.023554	54.1445	-1.010079	-3.100639E+13	7.596615E-16	NaN
176	1.000000	0.128769	7.36676e+06	-47439.1	955.819	-29766.4	0.000000	0.000000	6.128774	0.063491	NaN	0.000000	0.001600	0.001662	28.1095	0.037217	0.002136	17.4216	-128.834	15.5092	0.036350	0.127395	-0.968402	-0.969776	0.063491	17.4216	-0.971136	-9.267641E+12	-6.850851E-15	NaN
176	1.000000	0.170780	7.36676e+06	-47439.1	955.819	-29766.4	0.000000	0.000000	6.170780	-0.060399	NaN	0.000000	0.001627	0.001710	28.082	0.089398	0.001981	45.1166	-141.246	-163.63	-0.035983	0.169438	-0.926392	-0.927734	-0.060399	45.1166	-0.925388	-2.238409E+12	2.698319E-14	NaN
176	1.000000	0.212810	7.36676e+06	-47439.1	955.819	-29766.4	0.000000	0.000000	6.212810	-0.051641	NaN	0.000000	0.001580	0.001671	28.0885	0.052748	0.002046	25.7785	36.7239	12.33	0.029731	0.211439	-0.884361	-0.885732	-0.051641	25.7785	-0.882859	-5.961641E+11	8.662209E-14	NaN
176	1.000000	0.254825	7.36676e+06	-47439.1	955.819	-29766.4	0.000000	0.000000	6.254828	0.020908	NaN	0.000000	0.001586	0.001717	28.1279	0.044333	0.002005	22.1168	-64.8357	-169.022	0.012830	0.253522	-0.842346	-0.843649	0.020908	22.1168	-0.843055	-1.724580E+11	-1.212328E-13	NaN
176	1.000000	0.296868	7.36676e+06	-47439.1	955.819	-29766.4	0.000000	0.000000	6.296868	-0.047875	NaN	0.000000	0.001594	0.001721	28.1108	0.075922	0.001966	38.6266	127.709	15.878	-0.063554	0.295500	-0.800303	-0.801671	-0.047875	38.6266	-0.799374	-4.409218E+10	1.085801E-12	NaN
176	1.000000	0.338861	7.36676e+06	-47439.1	955.819	-29766.4	0.000000	0.000000	6.338862	-0.034475	NaN	0.000000	0.001581	0.001705	28.0787	0.023835	0.001973	12.0799	170.504	-166.531	-0.036580	0.337572	-0.758310	-0.759599	-0.034475	12.0799	-0.756170	-1.140738E+10	3.022166E-12	NaN
176	1.000000	0.380869	7.36676e+06	-47439.1	955.819	-29766.4	0.000000	0.000000	6.380873	0.024991	NaN	0.000000	0.001559	0.001712	28.0878	0.100520	0.001980	50.7796	-95.263	15.6851	0.024529	0.379516	-0.716302	-0.717655	0.024991	50.7796	-0.716671	-3.304222E+9	-7.563443E-12	NaN
176	1.000000	0.422900	7.36676e+06	-47439.1	955.819	-29766.4	0.000000	0.000000	6.422902	-0.025884	NaN	0.000000	0.001582	0.001682	28.1259	0.011403	0.001983	5.749346	104.885	-166.025	-0.041392	0.421519	-0.674271	-0.675652	-0.025884	5.749346	-0.670894	-7.827662E+8	3.306782E-11	NaN
176	1.000000	0.464915	7.36676e+06	-47439.1	955.818	-29766.4	0.000000	0.000000	6.464919	0.020450	NaN	0.000000	0.001615	0.001695	28.1132	0.031326	0.001887	16.5988	-71.1742	13.4391	-0.008383	0.463559	-0.632256	-0.633612	0.020450	16.5988	-0.633180	-2.380598E+8	-8.590138E-11	NaN
176	1.000000	0.506915	7.36676e+06	-47439.1	955.819	-29766.4	0.000000	0.000000	6.506917	-0.012807	NaN	0.000000	0.001614	0.001688	28.0806	0.097770	0.001992	49.0697	8.555055	-163.221	-0.044005	0.505617	-0.590256	-0.591554	-0.012807	49.0697	-0.590060	-6.074306E+7	2.108359E-10	NaN
176	1.000000	0.548964	7.36676e+06	-47439.1	955.818	-29766.4	0.000000	0.000000	6.548967	-0.000735	NaN	0.000000	0.001547	0.001703	28.0874	0.039809	0.001991	19.9959	-177.78	13.9766	-0.036767	0.547576	-0.548207	-0.549595	-0.000735	19.9959	-0.548179	-1.602268E+7	4.589852E-11	NaN
176	1.000000	0.590981	7.36676e+06	-47439.1	955.819	-29766.4	0.000000	0.000000	6.590985	0.043289	NaN	0.000000	0.001549	0.001696	28.1256	0.050828	0.002022	25.1396	-156.277	-163.586	0.036308	0.589676	-0.506190	-0.507495	0.043289	25.1396	-0.507482	-4.35845e+06	-9.932231E-9	NaN
176	1.000000	0.632991	7.36676e+06	-47439.1	955.818	-29766.4	0.000000	0.000000	6.632993	-0.021729	NaN	0.000000	0.001578	0.001645	28.1129	0.114031	0.001918	59.4564	50.8846	14.2445	0.018710	0.631663	-0.464180	-0.465509	-0.021729	59.4564	-0.463906	-1.07123e+06	2.028459E-8	NaN
176	1.000000	0.675008	7.36676e+06	-47439.1	955.818	-29766.4	0.000000	0.000000	6.675008	-0.070596	NaN	0.000000	0.001607	0.001658	28.0796	0.119367	0.002000	59.6732	101.605	-163.952	-0.015863	0.673719	-0.422163	-0.423452	-0.070596	59.6732	-0.421276	-268228	2.631950E-7	NaN
176	1.000000	0.717014	7.36676e+06	-47439.1	955.819	-29766.4	0.000000	0.000000	6.717016	-0.013947	NaN	0.000000	0.001611	0.001694	28.0863	0.045825	0.001963	23.3464	-71.731	15.2801	-0.022091	0.715683	-0.380157	-0.381488	-0.013947	23.3464	-0.379709	-68503.7	2.035945E-7	NaN
176	1.000000	0.759022	7.36676e+06	-47439.1	955.819	-29766.4	0.000000	0.000000	6.759024	0.002320	NaN	0.000000	0.001654	0.001711	28.1265	0.102879	0.002015	51.061	-170.626	-163.729	-0.019003	0.757725	-0.338149	-0.339446	0.002320	51.061	-0.338183	-17181.6	-1.350448E-7	NaN
176	1.000000	0.801051	7.36676e+06	-47439.1	955.819	-29766.4	0.000000	0.000000	6.801049	-0.115654	NaN	0.000000	0.001619	0.001783	28.1147	0.096530	0.001885	51.2001	90.5988	14.7103	-0.062704	0.799718	-0.296120	-0.297454	-0.115654	51.2001	-0.294426	-3886.08	2.976121E-5	NaN
176	1.000000	0.843072	7.36676e+06	-47439.1	955.818	-29766.4	0.000000	0.000000	6.843073	-0.027040	NaN	0.000000	0.001614	0.001705	28.0801	0.039634	0.001794	22.0959	-143.399	-164.495	0.016473	0.841788	-0.254100	-0.255383	-0.027040	22.0959	-0.253182	-920.664	2.936970E-5	NaN
176	1.000000	0.885102	7.36676e+06	-47439.1	955.819	-29766.4	0.000000	0.000000	6.885104	-0.030008	NaN	0.000000	0.001630	0.001680	28.0852	0.022718	0.002017	11.2612	-87.2256	14.3434	-0.035437	0.883742	-0.212069	-0.213429	-0.030008	11.2612	-0.210070	-192.29	0.000156	NaN
176	1.000000	0.927084	7.36676e+06	-47439.1	955.819	-29766.4	0.000000	0.000000	6.927084	-0.064362	NaN	0.000000	0.001569	0.001703	28.125	0.054316	0.002067	26.2718	-55.1691	-163.454	-0.053335	0.925801	-0.170087	-0.171370	-0.064362	26.2718	-0.168250	-38.2972	0.001681	NaN
176	1.000000	0.969141	7.36676e+06	-47439.1	955.819	-29766.4	0.000000	0.000000	6.969145	0.025576	NaN	0.000000	0.001615	0.001677	28.1136	0.124306	0.002093	59.3953	153.652	15.033	-0.009602	0.967762	-0.128030	-0.129409	0.025576	59.3953	-0.128353	-7.078117	-0.003613	NaN
176	1.000000	1.011155	7.36676e+06	-47439.1	955.82	-29766.4	0.000000	0.000000	7.011159	0.059124	NaN	0.000000	0.001640	0.001706	28.0834	0.065921	0.002115	31.1713	-73.1982	-164.455	0.082936	1.009836	-0.086017	-0.087336	0.059124	31.1713	-0.087439	-0.940289	-0.062879	NaN
176	1.000000	1.053154	7.36676e+06	-47439.1	955.82	-29766.4	0.000000	0.000000	7.053154	-0.049870	NaN	0.000000	0.001636	0.001717	28.085	0.061179	0.002023	30.2347	112.557	16.4173	-0.005884	1.051783	-0.044017	-0.045388	-0.049870	30.2347	-0.042780	-0.054968	0.907259	NaN
176	1.000000	1.095201	7.36676e+06	-47439.1	955.819	-29766.4	0.000000	0.000000	7.095202	-0.028926	NaN	0.000000	0.001567	0.001648	28.1257	0.057233	0.002070	27.6459	-90.4052	-164.19	-0.078379	1.093874	-0.001970	-0.003298	-0.028926	27.6459	-0.001186	-0.000866	33.3937	NaN
176	2.000000	1.116163	7.36676e+06	-47439.1	955.819	-29766.4	0.000000	0.000000	7.117008	20.5076	NaN	0.000000	0.001613	0.001726	28.1141	16.9306	0.001805	9378.4	3.922540	7.414206	18.9319	1.115822	0.018992	0.018651	20.5076	9378.4	0.017352	0.018550	1105.51	62910.9
176	2.000000	1.126634	7.36676e+06	-47439.1	955.819	-29766.4	0.000000	0.000000	7.128627	48.4221	NaN	0.000000	0.001592	0.001690	28.0827	28.3744	0.001861	15245	7.791084	179.007	47.3914	1.126285	0.029463	0.029114	48.4221	15245	0.027081	0.034910	1387.06	74546.4
176	2.000000	1.137084	7.36676e+06	-47439.1	955.821	-29766.4	0.000000	0.000000	7.140512	83.3268	NaN	0.000000	0.001582	0.001676	28.0858	38.329	0.001763	21742.4	5.332927	-2.339059	81.5515	1.136683	0.039913	0.039512	83.3268	21742.4	0.037038	0.056599	1472.24	83498.3
176	2.000000	1.147549	7.36676e+06	-47439.1	955.82	-29766.4	0.000000	0.000000	7.152921	130.593	NaN	0.000000	0.001621	0.001715	28.125	49.1529	0.001773	27723.4	4.843312	176.118	128.046	1.147270	0.050378	0.050099	130.593	27723.4	0.046845	0.082912	1575.08	87965.1
176	2.000000	1.158029	7.36676e+06	-47439.1	955.82	-29766.4	0.000000	0.000000	7.165434	180.072	NaN	0.000000	0.001587	0.001736	28.1161	57.5487	0.001682	34211.4	2.755788	-3.351634	175.859	1.157794	0.060857	0.060622	180.072	34211.4	0.056910	0.114961	1566.38	92186.8
176	2.000000	1.168722	7.36676e+06	-47439.1	955.82	-29766.4	0.000000	0.000000	7.178673	241.984	NaN	0.000000	0.001574	0.001690	28.0831	69.9247	0.001947	35917.8	6.341875	174.139	246.769	1.168149	0.071550	0.070978	241.984	35917.8	0.066498	0.150133	1611.8	84692.6
176	2.000000	1.178991	7.36676e+06	-47439.1	955.82	-29766.4	0.000000	0.000000	7.191300	299.353	NaN	0.000000	0.001578	0.001688	28.0836	79.923	0.001778	44959.8	5.078292	-7.730741	295.108	1.178772	0.081820	0.081601	299.353	44959.8	0.076826	0.192958	1551.39	93511.7
176	2.000000	1.189489	7.36676e+06	-47439.1	955.821	-29766.4	0.000000	0.000000	7.204897	374.721	NaN	0.000000	0.001632	0.001745	28.1229	87.9573	0.001851	47517.3	5.377235	172.237	371.033	1.189182	0.092318	0.092010	374.721	47517.3	0.086404	0.237143	1580.15	89149.7
176	2.000000	1.199957	7.36676e+06	-47439.1	955.82	-29766.4	0.000000	0.000000	7.218740	456.808	NaN	0.000000	0.001611	0.001738	28.1157	96.6573	0.001793	53900.7	1.891949	-5.551854	449.165	1.199632	0.102786	0.102461	456.808	53900.7	0.096430	0.287928	1586.54	91775.3
176	2.000000	1.207484	7.36676e+06	-47439.1	955.82	-29766.4	0.000000	0.000000	7.228779	517.901	NaN	0.000000	0.001621	0.001718	28.1227	103.644	0.001778	58296	3.697335	172.132	514.148	1.207114	0.110313	0.109942	517.901	58296	0.103650	0.327337	1582.16	93092.4