Folder: unikorn_login/remote_trans/data/nanoindenter/0828-1/data/Data_2025-08-06,11h17m57s (part 29)

File: 2025-07-22_16-23-58_1_56.txt
2025-07-22, 16:23:58, 1
Index	Phase	Displacement	Time	Pos X	Pos Y	Pos Z	Rot A	Rot B	Piezo Z	Force A	Force B	Gripper	Voltage A	Voltage B	Temperature	Amplitude force	Amplitude pos	Stiffness	Phase shift	Phase excitation	Force A raw	Displacement raw	HMax	HMax raw	Real Force	Real Stiffness	Contact Depth	Area	Hardness	Reduced Mod.
[#]	[#]	[um]	[s]	[um]	[um]	[um]	[m°]	[m°]	[um]	[uN]	[uN]	[V]	[V]	[V]	[°C]	[uN]	[um]	[N/m]	[°]	[°]	[uN]	[um]	[um]	[um]	[uN]	[N/m]	[um]	[um^2]	[MPa]	[MPa]
56	1.000000	0.002610	7.36559e+06	-41439.1	955.819	-29786.8	0.000000	0.000000	6.002816	0.059342	NaN	0.000000	0.001520	0.001753	28.1045	0.071120	0.000928	76.6266	-136.374	-161.926	0.045776	0.001379	-1.121117	-1.122348	0.059342	76.6266	-1.121698	-9.800501E+14	-6.055041E-17	NaN
56	1.000000	0.044548	7.36559e+06	-41439.1	955.819	-29786.8	0.000000	0.000000	6.044751	-0.015909	NaN	0.000000	0.001569	0.001740	28.1316	0.061222	0.001882	32.523	-94.3664	14.7803	0.048567	0.043150	-1.079179	-1.080577	-0.015909	32.523	-1.078812	-2.603544E+14	6.110567E-17	NaN
56	1.000000	0.086567	7.36559e+06	-41439.1	955.818	-29786.8	0.000000	0.000000	6.086774	0.093191	NaN	0.000000	0.001608	0.001753	28.0924	0.124211	0.002053	60.4975	-158.24	-165.454	-0.013290	0.085204	-1.037160	-1.038523	0.093191	60.4975	-1.038315	-7.435509E+13	-1.253320E-15	NaN
56	1.000000	0.128569	7.36559e+06	-41439.1	955.819	-29786.8	0.000000	0.000000	6.128774	0.045040	NaN	0.000000	0.001543	0.001777	28.0817	0.065099	0.001946	33.461	3.856337	14.5802	-0.014002	0.127205	-0.995158	-0.996522	0.045040	33.461	-0.996168	-2.014520E+13	-2.235749E-15	NaN
56	1.000000	0.170590	7.36559e+06	-41439.1	955.818	-29786.8	0.000000	0.000000	6.170795	0.049291	NaN	0.000000	0.001527	0.001734	28.1027	0.088471	0.001891	46.7858	7.654558	-162.876	0.022205	0.169306	-0.953137	-0.954421	0.049291	46.7858	-0.953927	-5.432329E+12	-9.073621E-15	NaN
56	1.000000	0.212587	7.36559e+06	-41439.1	955.818	-29786.8	0.000000	0.000000	6.212793	0.066248	NaN	0.000000	0.001584	0.001750	28.1308	0.069280	0.001928	35.9322	137.934	16.1805	0.024263	0.211283	-0.911140	-0.912444	0.066248	35.9322	-0.912523	-1.500521E+12	-4.414976E-14	NaN
56	1.000000	0.254633	7.36559e+06	-41439.1	955.818	-29786.8	0.000000	0.000000	6.254837	-0.000578	NaN	0.000000	0.001586	0.001765	28.0936	0.114119	0.002073	55.0633	-121.224	-163.794	-0.047145	0.253432	-0.869094	-0.870295	-0.000578	55.0633	-0.869086	-3.882171E+11	1.488165E-15	NaN
56	1.000000	0.296662	7.36559e+06	-41439.1	955.819	-29786.8	0.000000	0.000000	6.296867	0.052476	NaN	0.000000	0.001592	0.001758	28.0827	0.057501	0.001931	29.7833	119.008	17.1401	0.098523	0.295329	-0.827066	-0.828399	0.052476	29.7833	-0.828387	-1.091242E+11	-4.808858E-13	NaN
56	1.000000	0.338698	7.36559e+06	-41439.1	955.819	-29786.8	0.000000	0.000000	6.338901	-0.011999	NaN	0.000000	0.001566	0.001707	28.1032	0.052930	0.001946	27.2058	96.9756	-162.84	-0.040524	0.337408	-0.785029	-0.786319	-0.011999	27.2058	-0.784698	-2.786574E+10	4.305931E-13	NaN
56	1.000000	0.380685	7.36559e+06	-41439.1	955.818	-29786.8	0.000000	0.000000	6.380889	0.032023	NaN	0.000000	0.001576	0.001699	28.131	0.106838	0.001885	56.6885	44.9281	13.0659	-0.001078	0.379317	-0.743042	-0.744410	0.032023	56.6885	-0.743466	-7.660564E+9	-4.180289E-12	NaN
56	1.000000	0.422705	7.36559e+06	-41439.1	955.818	-29786.8	0.000000	0.000000	6.422912	0.086963	NaN	0.000000	0.001591	0.001751	28.0934	0.066650	0.002043	32.6267	145.313	-162.854	0.031440	0.421391	-0.701022	-0.702337	0.086963	32.6267	-0.703021	-2.151687E+9	-4.041621E-11	NaN
56	1.000000	0.464706	7.36559e+06	-41439.1	955.817	-29786.8	0.000000	0.000000	6.464913	0.103266	NaN	0.000000	0.001632	0.001754	28.0801	0.089376	0.002069	43.1965	-72.8617	17.1145	0.148255	0.463350	-0.659022	-0.660377	0.103266	43.1965	-0.660815	-5.696732E+8	-1.812726E-10	NaN
56	1.000000	0.506749	7.36559e+06	-41439.1	955.818	-29786.8	0.000000	0.000000	6.506956	0.088228	NaN	0.000000	0.001647	0.001779	28.1035	0.050292	0.002156	23.3226	158.186	-168.564	0.080138	0.505446	-0.616978	-0.618281	0.088228	23.3226	-0.619815	-1.559894E+8	-5.656020E-10	NaN
56	1.000000	0.548744	7.36559e+06	-41439.1	955.818	-29786.8	0.000000	0.000000	6.548948	0.031746	NaN	0.000000	0.001648	0.001736	28.1314	0.056939	0.002011	28.3163	50.9517	14.5049	0.110443	0.547408	-0.574984	-0.576319	0.031746	28.3163	-0.575824	-3.864405E+7	-8.215014E-10	NaN
56	1.000000	0.590782	7.36559e+06	-41439.1	955.819	-29786.8	0.000000	0.000000	6.590987	0.044560	NaN	0.000000	0.001584	0.001730	28.0955	0.088856	0.001944	45.7001	-142.996	-164.659	0.048040	0.589431	-0.532945	-0.534296	0.044560	45.7001	-0.533676	-1.008353E+7	-4.419061E-9	NaN
56	1.000000	0.632794	7.36559e+06	-41439.1	955.819	-29786.8	0.000000	0.000000	6.632998	0.026265	NaN	0.000000	0.001638	0.001749	28.0798	0.062543	0.001925	32.4896	-31.704	17.3743	-0.029933	0.631422	-0.490933	-0.492305	0.026265	32.4896	-0.491539	-2.61156e+06	-1.005701E-8	NaN
56	1.000000	0.674811	7.36559e+06	-41439.1	955.819	-29786.8	0.000000	0.000000	6.675012	-0.041676	NaN	0.000000	0.001637	0.001748	28.1012	0.028367	0.001979	14.3327	-36.576	-165.341	-0.049093	0.673493	-0.448917	-0.450234	-0.041676	14.3327	-0.446736	-614267	6.784633E-8	NaN
56	1.000000	0.716852	7.36559e+06	-41439.1	955.819	-29786.8	0.000000	0.000000	6.717058	0.073013	NaN	0.000000	0.001654	0.001764	28.1295	0.133489	0.002039	65.4558	23.743	14.9999	0.045081	0.715460	-0.406875	-0.408267	0.073013	65.4558	-0.407711	-172126	-4.241837E-7	NaN
56	1.000000	0.758812	7.36559e+06	-41439.1	955.818	-29786.8	0.000000	0.000000	6.759016	0.002480	NaN	0.000000	0.001570	0.001737	28.0956	0.030701	0.002069	14.8407	-95.1256	-166.568	-0.034767	0.757559	-0.364915	-0.366169	0.002480	14.8407	-0.365040	-42133.8	-5.884989E-8	NaN
56	1.000000	0.800855	7.36559e+06	-41439.1	955.818	-29786.8	0.000000	0.000000	6.801062	0.076214	NaN	0.000000	0.001577	0.001775	28.0812	0.110089	0.001989	55.3505	-178.219	13.8444	0.123199	0.799508	-0.322872	-0.324219	0.076214	55.3505	-0.323905	-10618.2	-7.177698E-6	NaN
56	1.000000	0.842882	7.36559e+06	-41439.1	955.819	-29786.8	0.000000	0.000000	6.843088	0.060273	NaN	0.000000	0.001552	0.001790	28.1011	0.024326	0.001871	13.0001	150.837	-169.384	0.018061	0.841520	-0.280845	-0.282207	0.060273	13.0001	-0.284322	-2742.04	-2.198097E-5	NaN
56	1.000000	0.884892	7.3656e+06	-41439.1	955.818	-29786.8	0.000000	0.000000	6.885099	0.105405	NaN	0.000000	0.001627	0.001731	28.1309	0.080889	0.002023	39.9759	59.2184	15.3088	0.048556	0.883547	-0.238835	-0.240181	0.105405	39.9759	-0.240813	-591.893	-0.000178	NaN
56	1.000000	0.926896	7.3656e+06	-41439.1	955.817	-29786.8	0.000000	0.000000	6.927099	-0.000450	NaN	0.000000	0.001575	0.001754	28.0951	0.087868	0.001866	47.0804	-26.2239	-167.502	0.011622	0.925628	-0.196831	-0.198099	-0.000450	47.0804	-0.196824	-116.782	3.855763E-6	NaN
56	1.000000	0.968946	7.3656e+06	-41439.1	955.818	-29786.8	0.000000	0.000000	6.969149	-0.020227	NaN	0.000000	0.001601	0.001768	28.0797	0.080253	0.002059	38.9681	161.665	13.3756	-0.017061	0.967628	-0.154781	-0.156099	-0.020227	38.9681	-0.154391	-21.7581	0.000930	NaN
56	1.000000	1.010966	7.3656e+06	-41439.1	955.818	-29786.8	0.000000	0.000000	7.011168	-0.012238	NaN	0.000000	0.001589	0.001735	28.0985	0.021414	0.001988	10.7699	66.6812	-165.08	0.020074	1.009643	-0.112762	-0.114084	-0.012238	10.7699	-0.111909	-3.295756	0.003713	NaN
56	1.000000	1.052971	7.3656e+06	-41439.1	955.818	-29786.8	0.000000	0.000000	7.053175	0.027408	NaN	0.000000	0.001651	0.001710	28.1308	0.042206	0.001969	21.4378	94.4967	10.5852	0.064167	1.051607	-0.070756	-0.072120	0.027408	21.4378	-0.071715	-0.378931	-0.072329	NaN
56	1.000000	1.094976	7.3656e+06	-41439.1	955.82	-29786.8	0.000000	0.000000	7.095179	-0.001195	NaN	0.000000	0.001703	0.001705	28.0984	0.034237	0.002007	17.0565	93.2303	-165.117	-0.002229	1.093623	-0.028751	-0.030104	-0.001195	17.0565	-0.028698	-0.021184	0.056410	NaN
56	2.000000	1.132982	7.3656e+06	-41439.1	955.818	-29786.8	0.000000	0.000000	7.133728	13.2016	NaN	0.000000	0.001687	0.001709	28.0814	9.256741	0.001608	5758.29	3.915690	9.914853	12.1967	1.132636	0.009255	0.008909	13.2016	5758.29	0.007536	0.006569	2009.62	64909.9
56	2.000000	1.143435	7.3656e+06	-41439.1	955.818	-29786.8	0.000000	0.000000	7.144908	30.9099	NaN	0.000000	0.001681	0.001745	28.0977	20.6678	0.001832	11282.6	8.735097	-179.642	30.6185	1.143084	0.019707	0.019356	30.9099	11282.6	0.017653	0.018987	1627.93	74808.6
56	2.000000	1.153834	7.3656e+06	-41439.1	955.818	-29786.8	0.000000	0.000000	7.156621	62.8663	NaN	0.000000	0.001663	0.001720	28.1307	30.2626	0.001757	17221.1	3.018795	1.656580	59.6042	1.153480	0.030107	0.029753	62.8663	17221.1	0.027369	0.035467	1772.51	83544.9
56	2.000000	1.164343	7.3656e+06	-41439.1	955.819	-29786.8	0.000000	0.000000	7.168864	105.068	NaN	0.000000	0.001677	0.001723	28.0968	39.2714	0.001788	21959.7	5.055756	178.545	103.577	1.164012	0.040616	0.040285	105.068	21959.7	0.037028	0.056573	1857.22	84352.2
56	2.000000	1.174806	7.3656e+06	-41439.1	955.82	-29786.8	0.000000	0.000000	7.181212	150.925	NaN	0.000000	0.001659	0.001706	28.0806	47.7413	0.001710	27923.1	3.043104	-1.892233	147.748	1.174488	0.051079	0.050760	150.925	27923.1	0.047025	0.083440	1808.79	88318.2
56	2.000000	1.185308	7.3656e+06	-41439.1	955.819	-29786.8	0.000000	0.000000	7.193693	199.077	NaN	0.000000	0.001666	0.001719	28.0976	59.2654	0.001776	33375.2	3.403202	175.899	195.997	1.185141	0.061581	0.061414	199.077	33375.2	0.057107	0.115640	1721.52	89668.9
56	2.000000	1.195745	7.3656e+06	-41439.1	955.821	-29786.8	0.000000	0.000000	7.206805	264.161	NaN	0.000000	0.001590	0.001737	28.1328	69.2634	0.001743	39746.4	2.841018	-4.223467	259.457	1.195566	0.072018	0.071838	264.161	39746.4	0.067033	0.152230	1735.28	93072.4
56	2.000000	1.206306	7.3656e+06	-41439.1	955.82	-29786.8	0.000000	0.000000	7.219729	321.664	NaN	0.000000	0.001620	0.001703	28.0987	79.4096	0.001852	42885.4	5.914365	172.155	320.085	1.206004	0.082579	0.082277	321.664	42885.4	0.076954	0.193520	1662.18	89067.7
56	2.000000	1.216813	7.3656e+06	-41439.1	955.819	-29786.8	0.000000	0.000000	7.233584	403.156	NaN	0.000000	0.001613	0.001778	28.0808	88.3329	0.001849	47761.5	6.730406	-9.399565	401.831	1.216498	0.093085	0.092770	403.156	47761.5	0.086755	0.238843	1687.95	89288.3
56	2.000000	1.227257	7.3656e+06	-41439.1	955.819	-29786.8	0.000000	0.000000	7.248024	500.364	NaN	0.000000	0.001629	0.001759	28.0955	95.831	0.001736	55196.2	4.138545	172.843	496.529	1.226885	0.103530	0.103158	500.364	55196.2	0.096731	0.289525	1728.22	93721.5
56	2.000000	1.230455	7.3656e+06	-41439.1	955.82	-29786.8	0.000000	0.000000	7.252052	520.558	NaN	0.000000	0.001601	0.001764	28.0981	98.5151	0.001673	58901.4	3.341729	173.178	528.206	1.229974	0.106728	0.106246	520.558	58901.4	0.100100	0.307663	1691.98	97020.1

File: 2025-07-22_16-23-58_1_57.txt
2025-07-22, 16:23:58, 1
Index	Phase	Displacement	Time	Pos X	Pos Y	Pos Z	Rot A	Rot B	Piezo Z	Force A	Force B	Gripper	Voltage A	Voltage B	Temperature	Amplitude force	Amplitude pos	Stiffness	Phase shift	Phase excitation	Force A raw	Displacement raw	HMax	HMax raw	Real Force	Real Stiffness	Contact Depth	Area	Hardness	Reduced Mod.
[#]	[#]	[um]	[s]	[um]	[um]	[um]	[m°]	[m°]	[um]	[uN]	[uN]	[V]	[V]	[V]	[°C]	[uN]	[um]	[N/m]	[°]	[°]	[uN]	[um]	[um]	[um]	[uN]	[N/m]	[um]	[um^2]	[MPa]	[MPa]
57	1.000000	0.002747	7.3656e+06	-41489.1	955.819	-29786.7	0.000000	0.000000	6.002814	-0.056536	NaN	0.000000	0.001658	0.001722	28.1008	0.026000	0.001012	25.7013	-75.7485	-168.615	-0.033866	0.001448	-1.086790	-1.088089	-0.056536	25.7013	-1.085140	-3.166332E+14	1.785522E-16	NaN
57	1.000000	0.044704	7.3656e+06	-41489.1	955.818	-29786.7	0.000000	0.000000	6.044772	-0.033317	NaN	0.000000	0.001630	0.001736	28.0797	0.060013	0.002003	29.9571	72.2773	15.9539	0.036808	0.043344	-1.044834	-1.046193	-0.033317	29.9571	-1.044000	-8.866472E+13	3.757617E-16	NaN
57	1.000000	0.086703	7.3656e+06	-41489.1	955.818	-29786.7	0.000000	0.000000	6.086772	-0.018259	NaN	0.000000	0.001604	0.001752	28.0935	0.052879	0.002042	25.8999	23.8904	-163.749	0.019207	0.085410	-1.002835	-1.004128	-0.018259	25.8999	-1.002306	-2.436772E+13	7.493127E-16	NaN
57	1.000000	0.128709	7.3656e+06	-41489.1	955.818	-29786.7	0.000000	0.000000	6.128777	-0.028296	NaN	0.000000	0.001559	0.001761	28.129	0.135244	0.002035	66.4711	-40.5553	18.0553	0.017601	0.127372	-0.960829	-0.962165	-0.028296	66.4711	-0.960509	-6.664031E+12	4.246095E-15	NaN
57	1.000000	0.170761	7.3656e+06	-41489.1	955.818	-29786.7	0.000000	0.000000	6.170825	-0.137001	NaN	0.000000	0.001595	0.001789	28.1018	0.139803	0.002019	69.2502	161.971	-166.792	-0.122387	0.169445	-0.918776	-0.920093	-0.137001	69.2502	-0.917293	-1.740404E+12	7.871812E-14	NaN
57	1.000000	0.212751	7.3656e+06	-41489.1	955.818	-29786.7	0.000000	0.000000	6.212819	-0.026454	NaN	0.000000	0.001581	0.001699	28.08	0.021450	0.001991	10.7747	99.4867	13.3966	-0.020051	0.211378	-0.876787	-0.878160	-0.026454	10.7747	-0.874946	-4.659599E+11	5.677323E-14	NaN
57	1.000000	0.254774	7.3656e+06	-41489.1	955.818	-29786.7	0.000000	0.000000	6.254840	-0.085559	NaN	0.000000	0.001513	0.001738	28.0931	0.053955	0.002024	26.6554	-172.585	-164.394	-0.026384	0.253435	-0.834763	-0.836103	-0.085559	26.6554	-0.832356	-1.235141E+11	6.927066E-13	NaN
57	1.000000	0.296761	7.3656e+06	-41489.1	955.818	-29786.7	0.000000	0.000000	6.296829	-0.029173	NaN	0.000000	0.001600	0.001775	28.1299	0.087206	0.001849	47.1652	-71.2485	17.2097	-0.068839	0.295422	-0.792777	-0.794116	-0.029173	47.1652	-0.792313	-3.535875E+10	8.250460E-13	NaN
57	1.000000	0.338825	7.3656e+06	-41489.1	955.818	-29786.7	0.000000	0.000000	6.338893	-0.028144	NaN	0.000000	0.001618	0.001749	28.1019	0.062486	0.002112	29.5923	152.77	-164.656	-0.053031	0.337494	-0.750712	-0.752043	-0.028144	29.5923	-0.749999	-9.401753E+9	2.993457E-12	NaN
57	1.000000	0.380817	7.3656e+06	-41489.1	955.819	-29786.7	0.000000	0.000000	6.380886	-0.021653	NaN	0.000000	0.001586	0.001758	28.0783	0.035769	0.001976	18.1038	28.0224	15.0082	-0.005090	0.379454	-0.708721	-0.710084	-0.021653	18.1038	-0.707824	-2.502328E+9	8.653228E-12	NaN
57	1.000000	0.422832	7.3656e+06	-41489.1	955.818	-29786.7	0.000000	0.000000	6.422900	-0.040502	NaN	0.000000	0.001586	0.001721	28.0919	0.100429	0.002006	50.0713	117.692	-165.851	-0.057158	0.421543	-0.666706	-0.667994	-0.040502	50.0713	-0.666099	-6.729592E+8	6.018484E-11	NaN
57	1.000000	0.464864	7.3656e+06	-41489.1	955.817	-29786.7	0.000000	0.000000	6.464931	-0.053430	NaN	0.000000	0.001562	0.001698	28.13	0.038056	0.001953	19.4874	25.4204	14.6336	-0.020773	0.463499	-0.624674	-0.626038	-0.053430	19.4874	-0.622618	-1.704550E+8	3.134568E-10	NaN
57	1.000000	0.506880	7.3656e+06	-41489.1	955.818	-29786.7	0.000000	0.000000	6.506945	-0.098773	NaN	0.000000	0.001572	0.001719	28.1044	0.069591	0.001920	36.2464	-5.668503	-163.815	-0.079709	0.505568	-0.582658	-0.583970	-0.098773	36.2464	-0.580614	-4.499830E+7	2.195033E-9	NaN
57	1.000000	0.548896	7.3656e+06	-41489.1	955.818	-29786.7	0.000000	0.000000	6.548963	-0.058330	NaN	0.000000	0.001601	0.001703	28.0811	0.062641	0.001982	31.6056	-92.1857	14.4616	-0.128646	0.547513	-0.540641	-0.542025	-0.058330	31.6056	-0.539257	-1.205186E+7	4.839911E-9	NaN
57	1.000000	0.590905	7.3656e+06	-41489.1	955.819	-29786.7	0.000000	0.000000	6.590974	-0.026410	NaN	0.000000	0.001579	0.001663	28.09	0.125435	0.002114	59.3261	-69.1462	-164.62	-0.018322	0.589577	-0.498632	-0.499961	-0.026410	59.3261	-0.498299	-3.24547e+06	8.137641E-9	NaN
57	1.000000	0.632925	7.3656e+06	-41489.1	955.818	-29786.7	0.000000	0.000000	6.632991	-0.073126	NaN	0.000000	0.001595	0.001706	28.1298	0.055588	0.001978	28.0994	-105.379	15.2983	-0.109646	0.631577	-0.456613	-0.457960	-0.073126	28.0994	-0.454661	-794230	9.207184E-8	NaN
57	1.000000	0.674941	7.3656e+06	-41489.1	955.818	-29786.7	0.000000	0.000000	6.675008	-0.046165	NaN	0.000000	0.001668	0.001710	28.1035	0.107953	0.002087	51.7174	-110.939	-166.459	-0.070051	0.673614	-0.414597	-0.415924	-0.046165	51.7174	-0.413927	-210969	2.188238E-7	NaN
57	1.000000	0.716967	7.3656e+06	-41489.1	955.818	-29786.7	0.000000	0.000000	6.717037	0.018704	NaN	0.000000	0.001577	0.001669	28.0795	0.095658	0.001987	48.1443	163.763	14.424	0.009645	0.715554	-0.372571	-0.373983	0.018704	48.1443	-0.372862	-54617.3	-3.424597E-7	NaN
57	1.000000	0.758993	7.3656e+06	-41489.1	955.818	-29786.7	0.000000	0.000000	6.759061	-0.031111	NaN	0.000000	0.001562	0.001710	28.0905	0.076268	0.002059	37.036	-35.126	-164.4	-0.061673	0.757682	-0.330545	-0.331856	-0.031111	37.036	-0.329915	-13007.8	2.391730E-6	NaN
57	1.000000	0.800980	7.3656e+06	-41489.1	955.819	-29786.7	0.000000	0.000000	6.801050	0.007486	NaN	0.000000	0.001559	0.001705	28.1299	0.027795	0.001922	14.4589	79.9859	12.8518	-0.052399	0.799615	-0.288557	-0.289923	0.007486	14.4589	-0.288946	-3217.37	-2.326687E-6	NaN
57	1.000000	0.842989	7.3656e+06	-41489.1	955.818	-29786.7	0.000000	0.000000	6.843055	-0.069584	NaN	0.000000	0.001560	0.001694	28.1059	0.019782	0.002025	9.770162	-49.4785	-166.538	-0.089859	0.841687	-0.246549	-0.247850	-0.069584	9.770162	-0.241208	-600.348	0.000116	NaN
57	1.000000	0.885045	7.3656e+06	-41489.1	955.818	-29786.7	0.000000	0.000000	6.885113	-0.043252	NaN	0.000000	0.001586	0.001673	28.0798	0.059500	0.001960	30.3518	73.6533	15.2364	-0.084338	0.883695	-0.204493	-0.205842	-0.043252	30.3518	-0.203424	-149.907	0.000289	NaN
57	1.000000	0.927034	7.36561e+06	-41489.1	955.817	-29786.7	0.000000	0.000000	6.927100	-0.092936	NaN	0.000000	0.001575	0.001727	28.089	0.049962	0.002059	24.2631	169.005	-166.393	-0.098190	0.925754	-0.162503	-0.163784	-0.092936	24.2631	-0.159630	-27.0032	0.003442	NaN
57	1.000000	0.969061	7.36561e+06	-41489.1	955.818	-29786.7	0.000000	0.000000	6.969129	-0.035654	NaN	0.000000	0.001592	0.001696	28.1285	0.114786	0.001988	57.732	56.0751	14.6337	-0.069348	0.967676	-0.120477	-0.121861	-0.035654	57.732	-0.120013	-4.834530	0.007375	NaN
57	1.000000	1.011035	7.36561e+06	-41489.1	955.819	-29786.7	0.000000	0.000000	7.011103	-0.041685	NaN	0.000000	0.001584	0.001746	28.1058	0.069617	0.001995	34.9007	132.431	-166.767	-0.129506	1.009743	-0.078502	-0.079795	-0.041685	34.9007	-0.077607	-0.538710	0.077380	NaN
57	1.000000	1.053112	7.36561e+06	-41489.1	955.819	-29786.7	0.000000	0.000000	7.053181	-0.010447	NaN	0.000000	0.001579	0.001747	28.0817	0.079210	0.001936	40.9193	-35.3909	10.5475	-0.120640	1.051777	-0.036426	-0.037761	-0.010447	40.9193	-0.036234	-0.034835	0.299897	NaN
57	1.000000	1.095091	7.36561e+06	-41489.1	955.819	-29786.7	0.000000	0.000000	7.095242	1.986388	NaN	0.000000	0.001620	0.001733	28.0891	2.918306	0.001899	1536.36	25.2705	-169.285	1.210398	1.093792	0.005554	0.004254	1.986388	1536.36	0.004584	0.003757	528.752	22901.3
57	2.000000	1.110078	7.36561e+06	-41489.1	955.819	-29786.7	0.000000	0.000000	7.111499	32.8747	NaN	0.000000	0.001615	0.001723	28.1282	19.5744	0.002000	9786.34	5.803035	4.470212	31.3694	1.109763	0.020540	0.020226	32.8747	9786.34	0.018021	0.019528	1683.5	63983.7
57	2.000000	1.120555	7.36561e+06	-41489.1	955.818	-29786.7	0.000000	0.000000	7.123866	78.8791	NaN	0.000000	0.001599	0.001731	28.106	29.1247	0.001911	15237.2	4.486095	-177.147	77.4758	1.120236	0.031017	0.030698	78.8791	15237.2	0.027135	0.035014	2252.79	74397.3
57	2.000000	1.131065	7.36561e+06	-41489.1	955.819	-29786.7	0.000000	0.000000	7.136003	118.469	NaN	0.000000	0.001612	0.001680	28.0793	37.0245	0.001831	20218.2	6.127332	-1.712241	118.397	1.130859	0.041528	0.041321	118.469	20218.2	0.037133	0.056829	2084.66	77487.5
57	2.000000	1.141441	7.36561e+06	-41489.1	955.819	-29786.7	0.000000	0.000000	7.149519	194.882	NaN	0.000000	0.001644	0.001710	28.0878	46.2484	0.001774	26066	4.962020	176.816	189.971	1.141085	0.051903	0.051547	194.882	26066	0.046295	0.081308	2396.85	83518.3
57	2.000000	1.151929	7.36561e+06	-41489.1	955.819	-29786.7	0.000000	0.000000	7.162584	257.57	NaN	0.000000	0.001648	0.001710	28.1289	54.6383	0.001715	31850.2	4.848818	-4.818444	252.792	1.151682	0.062391	0.062144	257.57	31850.2	0.056326	0.112965	2280.08	86579
57	2.000000	1.162465	7.36561e+06	-41489.1	955.819	-29786.7	0.000000	0.000000	7.177018	352.439	NaN	0.000000	0.001637	0.001703	28.1087	65.4052	0.001765	37054.4	5.661519	173.987	348.366	1.162022	0.072927	0.072484	352.439	37054.4	0.065793	0.147399	2391.06	88179.3
57	2.000000	1.172877	7.36561e+06	-41489.1	955.82	-29786.7	0.000000	0.000000	7.191029	440.003	NaN	0.000000	0.001597	0.001683	28.0806	76.215	0.001763	43220.2	2.641759	-4.549819	431.666	1.172543	0.083339	0.083006	440.003	43220.2	0.075704	0.188062	2339.68	91056.3
57	2.000000	1.183363	7.36561e+06	-41489.1	955.82	-29786.7	0.000000	0.000000	7.206873	570.363	NaN	0.000000	0.001612	0.001722	28.088	85.2656	0.001847	46157.4	3.680846	173.862	565.57	1.183104	0.093826	0.093566	570.363	46157.4	0.084558	0.228297	2498.34	88260.1
57	2.000000	1.193897	7.36561e+06	-41489.1	955.82	-29786.7	0.000000	0.000000	7.223224	711.9	NaN	0.000000	0.001613	0.001714	28.1262	94.2635	0.001730	54477.7	5.797974	-9.076115	707.144	1.193596	0.104359	0.104058	711.9	54477.7	0.094559	0.278100	2559.87	94382.4
57	2.000000	1.199818	7.36561e+06	-41489.1	955.82	-29786.7	0.000000	0.000000	7.230884	754.224	NaN	0.000000	0.001620	0.001666	28.1259	100.634	0.001754	57387.8	4.943846	-9.284519	745.795	1.199664	0.110280	0.110126	754.224	57387.8	0.100423	0.309433	2437.44	94256.2