Folder: unikorn_login/remote_trans/data/nanoindenter/0828-1/data/Data_2025-08-06,11h17m57s (part 109)

File: 2025-07-22_16-23-58_1_235.txt
2025-07-22, 16:23:58, 1
Index	Phase	Displacement	Time	Pos X	Pos Y	Pos Z	Rot A	Rot B	Piezo Z	Force A	Force B	Gripper	Voltage A	Voltage B	Temperature	Amplitude force	Amplitude pos	Stiffness	Phase shift	Phase excitation	Force A raw	Displacement raw	HMax	HMax raw	Real Force	Real Stiffness	Contact Depth	Area	Hardness	Reduced Mod.
[#]	[#]	[um]	[s]	[um]	[um]	[um]	[m°]	[m°]	[um]	[uN]	[uN]	[V]	[V]	[V]	[°C]	[uN]	[um]	[N/m]	[°]	[°]	[uN]	[um]	[um]	[um]	[uN]	[N/m]	[um]	[um^2]	[MPa]	[MPa]
235	1.000000	0.002716	7.36734e+06	-50389.1	955.818	-29756.1	0.000000	0.000000	6.002810	0.063293	NaN	0.000000	0.001613	0.001623	28.0773	0.065283	0.001016	64.28	-13.9948	-166.075	-0.007843	0.001423	-1.154492	-1.155785	0.063293	64.28	-1.155230	-2.760150E+15	-2.293099E-17	NaN
235	1.000000	0.046671	7.36734e+06	-50389.1	955.817	-29756.1	0.000000	0.000000	6.046763	0.003833	NaN	0.000000	0.001589	0.001597	28.0791	0.076773	0.001969	38.9848	145.49	-168.898	-0.024963	0.045310	-1.110537	-1.111897	0.003833	38.9848	-1.110610	-6.957887E+14	-5.509014E-18	NaN
235	1.000000	0.090655	7.36734e+06	-50389.1	955.818	-29756.1	0.000000	0.000000	6.090749	0.052776	NaN	0.000000	0.001625	0.001607	28.0785	0.052592	0.001983	26.5166	166.053	-169.664	0.048341	0.089380	-1.066552	-1.067827	0.052776	26.5166	-1.068045	-1.866031E+14	-2.828248E-16	NaN
235	1.000000	0.134697	7.36734e+06	-50389.1	955.819	-29756.1	0.000000	0.000000	6.134790	0.021003	NaN	0.000000	0.001623	0.001621	28.0784	0.061121	0.002166	28.2246	47.6036	-166.345	0.023777	0.133372	-1.022510	-1.023835	0.021003	28.2246	-1.023068	-4.636970E+13	-4.529485E-16	NaN
235	1.000000	0.178719	7.36734e+06	-50389.1	955.819	-29756.1	0.000000	0.000000	6.178813	0.055710	NaN	0.000000	0.001604	0.001619	28.0775	0.106911	0.002069	51.6745	94.1286	-163.843	0.101337	0.177390	-0.978488	-0.979817	0.055710	51.6745	-0.979297	-1.193808E+13	-4.666590E-15	NaN
235	1.000000	0.222735	7.36734e+06	-50389.1	955.818	-29756.1	0.000000	0.000000	6.222828	0.027432	NaN	0.000000	0.001655	0.001599	28.0771	0.058057	0.002072	28.024	148.089	-164.226	0.032943	0.221389	-0.934472	-0.935818	0.027432	28.024	-0.935206	-3.037085E+12	-9.032397E-15	NaN
235	1.000000	0.266747	7.36734e+06	-50389.1	955.818	-29756.1	0.000000	0.000000	6.266838	-0.011211	NaN	0.000000	0.001688	0.001658	28.077	0.072000	0.002007	35.8708	-158.136	-168.515	0.036947	0.265442	-0.890460	-0.891766	-0.011211	35.8708	-0.890226	-7.498347E+11	1.495128E-14	NaN
235	1.000000	0.310755	7.36734e+06	-50389.1	955.819	-29756.1	0.000000	0.000000	6.310846	-0.024439	NaN	0.000000	0.001629	0.001630	28.0784	0.080679	0.002030	39.7372	135.848	-165.885	-0.027015	0.309473	-0.846452	-0.847734	-0.024439	39.7372	-0.845991	-1.889909E+11	1.293147E-13	NaN
235	1.000000	0.354770	7.36735e+06	-50389.1	955.818	-29756.1	0.000000	0.000000	6.354862	0.010233	NaN	0.000000	0.001646	0.001624	28.0786	0.077853	0.002000	38.925	136.799	-163.466	0.086275	0.353493	-0.802437	-0.803714	0.010233	38.925	-0.802634	-4.882243E+10	-2.095876E-13	NaN
235	1.000000	0.398770	7.36735e+06	-50389.1	955.819	-29756.1	0.000000	0.000000	6.398864	0.055475	NaN	0.000000	0.001639	0.001569	28.0789	0.028179	0.001937	14.5494	142.142	-168.849	-0.025977	0.397491	-0.758438	-0.759716	0.055475	14.5494	-0.761297	-1.339525E+10	-4.141427E-12	NaN
235	1.000000	0.442808	7.36735e+06	-50389.1	955.819	-29756.1	0.000000	0.000000	6.442899	-0.001470	NaN	0.000000	0.001600	0.001611	28.0775	0.065365	0.002042	32.0121	-163.812	-166.826	-0.066356	0.441552	-0.714399	-0.715656	-0.001470	32.0121	-0.714365	-3.073324E+9	4.782864E-13	NaN
235	1.000000	0.486856	7.36735e+06	-50389.1	955.819	-29756.1	0.000000	0.000000	6.486953	0.118571	NaN	0.000000	0.001587	0.001552	28.0773	0.074923	0.001975	37.9262	-41.6283	-167.953	0.075400	0.485550	-0.670351	-0.671658	0.118571	37.9262	-0.672696	-8.284872E+8	-1.431180E-10	NaN
235	1.000000	0.530840	7.36735e+06	-50389.1	955.818	-29756.1	0.000000	0.000000	6.530932	0.007563	NaN	0.000000	0.001545	0.001573	28.077	0.049621	0.001958	25.3403	-1.452825	-169.527	0.004611	0.529547	-0.626367	-0.627660	0.007563	25.3403	-0.626591	-1.932845E+8	-3.913005E-11	NaN
235	1.000000	0.574901	7.36735e+06	-50389.1	955.819	-29756.1	0.000000	0.000000	6.574994	0.023925	NaN	0.000000	0.001582	0.001586	28.0774	0.195833	0.002028	96.567	130.826	-163.322	-0.002397	0.573587	-0.582306	-0.583620	0.023925	96.567	-0.582492	-4.776564E+7	-5.008853E-10	NaN
235	1.000000	0.618895	7.36735e+06	-50389.1	955.818	-29756.1	0.000000	0.000000	6.618987	-0.005989	NaN	0.000000	0.001620	0.001572	28.0787	0.112829	0.001935	58.3164	-149.555	-166.769	0.000603	0.617574	-0.538312	-0.539634	-0.005989	58.3164	-0.538235	-1.166475E+7	5.134272E-10	NaN
235	1.000000	0.662940	7.36735e+06	-50389.1	955.819	-29756.1	0.000000	0.000000	6.663031	-0.031765	NaN	0.000000	0.001566	0.001622	28.0785	0.050294	0.001980	25.4054	45.2588	-166.082	-0.097232	0.661611	-0.494267	-0.495596	-0.031765	25.4054	-0.493329	-2.76633e+06	1.148255E-8	NaN
235	1.000000	0.706902	7.36735e+06	-50389.1	955.818	-29756.1	0.000000	0.000000	6.706995	0.029881	NaN	0.000000	0.001606	0.001558	28.0786	0.082060	0.001937	42.3704	2.010685	-166.089	0.000423	0.705656	-0.450305	-0.451551	0.029881	42.3704	-0.450834	-701594	-4.258959E-8	NaN
235	1.000000	0.750958	7.36735e+06	-50389.1	955.82	-29756.1	0.000000	0.000000	6.751051	0.020504	NaN	0.000000	0.001554	0.001569	28.0776	0.161211	0.001864	86.4827	155.121	-166.24	-0.009765	0.749628	-0.406249	-0.407580	0.020504	86.4827	-0.406427	-165030	-1.242438E-7	NaN
235	1.000000	0.794975	7.36735e+06	-50389.1	955.818	-29756.1	0.000000	0.000000	6.795069	0.054138	NaN	0.000000	0.001611	0.001596	28.0771	0.102505	0.001918	53.4402	-27.8074	-163.309	0.132732	0.793631	-0.362232	-0.363576	0.054138	53.4402	-0.362992	-39361.7	-1.375409E-6	NaN
235	1.000000	0.838999	7.36735e+06	-50389.1	955.818	-29756.1	0.000000	0.000000	6.839093	0.059795	NaN	0.000000	0.001589	0.001638	28.0773	0.101705	0.001954	52.0578	105.077	-164.572	0.017487	0.837680	-0.318208	-0.319528	0.059795	52.0578	-0.319070	-9014.56	-6.633145E-6	NaN
235	1.000000	0.882990	7.36735e+06	-50389.1	955.818	-29756.1	0.000000	0.000000	6.883081	-0.004089	NaN	0.000000	0.001570	0.001594	28.0786	0.040427	0.002106	19.1994	-40.7541	-166.704	-0.030770	0.881725	-0.274217	-0.275483	-0.004089	19.1994	-0.274058	-1919.23	2.130534E-6	NaN
235	1.000000	0.927013	7.36735e+06	-50389.1	955.819	-29756.1	0.000000	0.000000	6.927105	0.018034	NaN	0.000000	0.001550	0.001580	28.0782	0.078753	0.002025	38.8959	-174.767	-165.483	0.006026	0.925748	-0.230195	-0.231460	0.018034	38.8959	-0.230542	-408.395	-4.415723E-5	NaN
235	1.000000	0.971013	7.36735e+06	-50389.1	955.819	-29756.1	0.000000	0.000000	6.971104	-0.004754	NaN	0.000000	0.001560	0.001612	28.0786	0.119636	0.001941	61.6341	-150.58	-165.572	-0.023807	0.969721	-0.186195	-0.187486	-0.004754	61.6341	-0.186137	-77.4947	6.134911E-5	NaN
235	1.000000	1.015054	7.36735e+06	-50389.1	955.82	-29756.1	0.000000	0.000000	7.015146	0.023984	NaN	0.000000	0.001614	0.001645	28.0775	0.095059	0.001988	47.812	-102.07	-164.843	0.096347	1.013792	-0.142153	-0.143415	0.023984	47.812	-0.142530	-13.1916	-0.001818	NaN
235	1.000000	1.059088	7.36735e+06	-50389.1	955.819	-29756.1	0.000000	0.000000	7.059182	0.045005	NaN	0.000000	0.001595	0.001628	28.0772	0.115875	0.001991	58.1923	-38.0317	-163.694	0.004327	1.057792	-0.098119	-0.099415	0.045005	58.1923	-0.098699	-1.709358	-0.026329	NaN
235	1.000000	1.103085	7.36735e+06	-50389.1	955.819	-29756.1	0.000000	0.000000	7.103181	0.093896	NaN	0.000000	0.001651	0.001624	28.0772	0.010835	0.002136	5.071824	66.9263	-165.163	0.109624	1.101808	-0.054122	-0.055399	0.093896	5.071824	-0.068007	-0.301386	-0.311548	NaN
235	1.000000	1.147104	7.36735e+06	-50389.1	955.819	-29756.1	0.000000	0.000000	7.147197	0.031750	NaN	0.000000	0.001604	0.001601	28.0787	0.089688	0.002045	43.8528	-105.217	-160.688	0.085472	1.145781	-0.010103	-0.011426	0.031750	43.8528	-0.010646	-0.006756	-4.699324	NaN
235	2.000000	1.176616	7.36735e+06	-50389.1	955.82	-29756.1	0.000000	0.000000	7.177297	14.3362	NaN	0.000000	0.001602	0.001639	28.0788	14.4285	0.001750	8242.54	7.629644	-176.375	13.8008	1.176351	0.019408	0.019144	14.3362	8242.54	0.018104	0.019650	729.589	53722.4
235	2.000000	1.187576	7.36735e+06	-50389.1	955.818	-29756.1	0.000000	0.000000	7.189237	38.1714	NaN	0.000000	0.001578	0.001586	28.0784	25.0306	0.001737	14411.8	5.575134	-179.63	37.3437	1.187292	0.030368	0.030084	38.1714	14411.8	0.028382	0.037457	1019.08	68033.9
235	2.000000	1.198540	7.36735e+06	-50389.1	955.82	-29756.1	0.000000	0.000000	7.201299	64.8648	NaN	0.000000	0.001576	0.001581	28.0773	34.5553	0.001780	19408.6	5.529280	178.283	64.3698	1.198246	0.041333	0.041038	64.8648	19408.6	0.038826	0.061030	1062.83	71778.6
235	2.000000	1.209525	7.36735e+06	-50389.1	955.819	-29756.1	0.000000	0.000000	7.214123	109.578	NaN	0.000000	0.001593	0.001561	28.077	46.1118	0.001877	24561.5	2.048909	-179.498	109.632	1.209197	0.052318	0.051990	109.578	24561.5	0.048972	0.089262	1227.59	75109.4
235	2.000000	1.220474	7.36735e+06	-50389.1	955.819	-29756.1	0.000000	0.000000	7.227336	164.623	NaN	0.000000	0.001534	0.001620	28.078	55.8234	0.001802	30986.9	4.003718	176.483	163.633	1.220150	0.063267	0.062943	164.623	30986.9	0.059283	0.123249	1335.7	80641.7
235	2.000000	1.231374	7.36735e+06	-50389.1	955.82	-29756.1	0.000000	0.000000	7.240959	230.875	NaN	0.000000	0.001527	0.001540	28.0785	64.9551	0.001776	36579.1	6.980763	172.366	225.169	1.231174	0.074166	0.073967	230.875	36579.1	0.069433	0.161788	1427.03	83087
235	2.000000	1.242464	7.36735e+06	-50389.1	955.82	-29756.1	0.000000	0.000000	7.254633	293.717	NaN	0.000000	0.001549	0.001642	28.0785	76.9383	0.001736	44321.7	3.211187	174.703	289.907	1.242108	0.085256	0.084901	293.717	44321.7	0.080286	0.208429	1409.19	88697.3
235	2.000000	1.253436	7.36735e+06	-50389.1	955.82	-29756.1	0.000000	0.000000	7.268610	366.786	NaN	0.000000	0.001555	0.001594	28.0782	85.9225	0.001895	45352.8	2.210304	175.61	363.636	1.253100	0.096229	0.095892	366.786	45352.8	0.090163	0.255646	1434.74	81951.7
235	2.000000	1.264513	7.36735e+06	-50389.1	955.82	-29756.1	0.000000	0.000000	7.282538	436.095	NaN	0.000000	0.001564	0.001625	28.0773	96.2277	0.001910	50368.2	2.983354	173.676	437.505	1.264313	0.107306	0.107105	436.095	50368.2	0.100812	0.311568	1399.68	82442.9
235	2.000000	1.270515	7.36735e+06	-50389.1	955.82	-29756.1	0.000000	0.000000	7.290563	485.298	NaN	0.000000	0.001534	0.001647	28.0771	100.204	0.001677	59761.2	3.153090	172.455	486.407	1.270143	0.113308	0.112936	485.298	59761.2	0.107217	0.347684	1395.8	92597.7

File: 2025-07-22_16-23-58_1_236.txt
2025-07-22, 16:23:58, 1
Index	Phase	Displacement	Time	Pos X	Pos Y	Pos Z	Rot A	Rot B	Piezo Z	Force A	Force B	Gripper	Voltage A	Voltage B	Temperature	Amplitude force	Amplitude pos	Stiffness	Phase shift	Phase excitation	Force A raw	Displacement raw	HMax	HMax raw	Real Force	Real Stiffness	Contact Depth	Area	Hardness	Reduced Mod.
[#]	[#]	[um]	[s]	[um]	[um]	[um]	[m°]	[m°]	[um]	[uN]	[uN]	[V]	[V]	[V]	[°C]	[uN]	[um]	[N/m]	[°]	[°]	[uN]	[um]	[um]	[um]	[uN]	[N/m]	[um]	[um^2]	[MPa]	[MPa]
236	1.000000	0.002752	7.36735e+06	-50439.1	955.818	-29756.1	0.000000	0.000000	6.002858	0.068057	NaN	0.000000	0.001534	0.001644	28.0793	0.113167	0.000855	132.404	125.268	-160.42	0.029183	0.001482	-1.053748	-1.055019	0.068057	132.404	-1.054134	-1.213336E+14	-5.609062E-16	NaN
236	1.000000	0.042655	7.36735e+06	-50439.1	955.819	-29756.1	0.000000	0.000000	6.042759	0.020651	NaN	0.000000	0.001620	0.001650	28.0791	0.026891	0.001916	14.0377	147.767	-163.27	0.046903	0.041288	-1.013845	-1.015213	0.020651	14.0377	-1.014948	-3.605615E+13	-5.727348E-16	NaN
236	1.000000	0.082667	7.36735e+06	-50439.1	955.817	-29756.1	0.000000	0.000000	6.082770	0.010441	NaN	0.000000	0.001561	0.001631	28.0793	0.031194	0.002132	14.6326	157.212	-165.579	0.058931	0.081332	-0.973833	-0.975169	0.010441	14.6326	-0.974368	-1.024549E+13	-1.019036E-15	NaN
236	1.000000	0.122688	7.36735e+06	-50439.1	955.819	-29756.1	0.000000	0.000000	6.122790	-0.009678	NaN	0.000000	0.001583	0.001616	28.0801	0.057860	0.001836	31.5142	-143.905	-165.096	0.034599	0.121370	-0.933813	-0.935131	-0.009678	31.5142	-0.933582	-2.887631E+12	3.351603E-15	NaN
236	1.000000	0.162703	7.36735e+06	-50439.1	955.819	-29756.1	0.000000	0.000000	6.162809	0.071164	NaN	0.000000	0.001582	0.001616	28.0802	0.054398	0.002077	26.1852	166.717	-165.715	0.036815	0.161401	-0.893797	-0.895100	0.071164	26.1852	-0.895835	-8.928703E+11	-7.970254E-14	NaN
236	1.000000	0.202714	7.36735e+06	-50439.1	955.819	-29756.1	0.000000	0.000000	6.202818	0.018900	NaN	0.000000	0.001551	0.001647	28.0803	0.062363	0.002083	29.9429	-169.544	-164.993	0.035495	0.201379	-0.853786	-0.855122	0.018900	29.9429	-0.854260	-2.445778E+11	-7.727779E-14	NaN
236	1.000000	0.242749	7.36735e+06	-50439.1	955.819	-29756.1	0.000000	0.000000	6.242852	-0.000755	NaN	0.000000	0.001495	0.001639	28.0806	0.021043	0.002028	10.3737	47.1633	-168.8	-0.043550	0.241475	-0.813751	-0.815025	-0.000755	10.3737	-0.813697	-6.897970E+10	1.094891E-14	NaN
236	1.000000	0.282739	7.36736e+06	-50439.1	955.818	-29756.1	0.000000	0.000000	6.282843	0.025362	NaN	0.000000	0.001570	0.001646	28.0793	0.149823	0.002029	73.8307	6.690690	-163.578	0.112860	0.281410	-0.773762	-0.775091	0.025362	73.8307	-0.774019	-1.995017E+10	-1.271289E-12	NaN
236	1.000000	0.322776	7.36736e+06	-50439.1	955.818	-29756.1	0.000000	0.000000	6.322881	0.047691	NaN	0.000000	0.001579	0.001628	28.0798	0.061790	0.002130	29.0134	73.5576	-166.009	0.109256	0.321457	-0.733725	-0.735044	0.047691	29.0134	-0.734957	-5.866290E+9	-8.129594E-12	NaN
236	1.000000	0.362765	7.36736e+06	-50439.1	955.818	-29756.1	0.000000	0.000000	6.362867	-0.006125	NaN	0.000000	0.001567	0.001640	28.0795	0.058370	0.001981	29.4715	156.807	-164.04	0.059865	0.361441	-0.693736	-0.695060	-0.006125	29.4715	-0.693580	-1.598949E+9	3.830581E-12	NaN
236	1.000000	0.402795	7.36736e+06	-50439.1	955.82	-29756.1	0.000000	0.000000	6.402898	-0.002206	NaN	0.000000	0.001567	0.001635	28.0806	0.149771	0.002093	71.5547	45.7355	-164.474	0.055590	0.401509	-0.653705	-0.654992	-0.002206	71.5547	-0.653682	-4.548884E+8	4.849606E-12	NaN
236	1.000000	0.442829	7.36736e+06	-50439.1	955.818	-29756.1	0.000000	0.000000	6.442935	0.082804	NaN	0.000000	0.001583	0.001619	28.0805	0.102972	0.001968	52.3351	-29.2839	-162.557	0.070742	0.441545	-0.613671	-0.614956	0.082804	52.3351	-0.614858	-1.333326E+8	-6.210327E-10	NaN
236	1.000000	0.482839	7.36736e+06	-50439.1	955.819	-29756.1	0.000000	0.000000	6.482942	0.002219	NaN	0.000000	0.001585	0.001636	28.0802	0.042711	0.001905	22.4247	48.8381	-167.761	0.023142	0.481539	-0.573662	-0.574961	0.002219	22.4247	-0.573736	-3.616088E+7	-6.136626E-11	NaN
236	1.000000	0.522858	7.36736e+06	-50439.1	955.819	-29756.1	0.000000	0.000000	6.522963	0.047385	NaN	0.000000	0.001573	0.001637	28.0801	0.073057	0.002071	35.2758	154.01	-162.495	0.049287	0.521586	-0.533643	-0.534915	0.047385	35.2758	-0.534650	-1.040242E+7	-4.555219E-9	NaN
236	1.000000	0.562851	7.36736e+06	-50439.1	955.819	-29756.1	0.000000	0.000000	6.562954	0.002770	NaN	0.000000	0.001552	0.001605	28.0789	0.035024	0.002163	16.1918	-52.1698	-162.791	0.107451	0.561561	-0.493650	-0.494940	0.002770	16.1918	-0.493778	-2.80655e+06	-9.868159E-10	NaN
236	1.000000	0.602864	7.36736e+06	-50439.1	955.818	-29756.1	0.000000	0.000000	6.602966	-0.005864	NaN	0.000000	0.001586	0.001619	28.0791	0.039729	0.002051	19.3716	-62.5847	-163.655	-0.030947	0.601587	-0.453637	-0.454913	-0.005864	19.3716	-0.453410	-762682	7.688076E-9	NaN
236	1.000000	0.642910	7.36736e+06	-50439.1	955.818	-29756.1	0.000000	0.000000	6.643011	-0.034886	NaN	0.000000	0.001567	0.001621	28.0791	0.090367	0.002051	44.0658	-70.4257	-166.139	0.012724	0.641640	-0.413591	-0.414861	-0.034886	44.0658	-0.412997	-204647	1.704690E-7	NaN
236	1.000000	0.682917	7.36736e+06	-50439.1	955.818	-29756.1	0.000000	0.000000	6.683022	0.053677	NaN	0.000000	0.001549	0.001698	28.0806	0.088395	0.001984	44.5483	-131.401	-161.15	0.001780	0.681581	-0.373584	-0.374920	0.053677	44.5483	-0.374487	-57637	-9.312955E-7	NaN
236	1.000000	0.722924	7.36736e+06	-50439.1	955.818	-29756.1	0.000000	0.000000	6.723028	0.029741	NaN	0.000000	0.001544	0.001667	28.0803	0.093294	0.001971	47.3357	70.8176	-165.559	0.013750	0.721615	-0.333576	-0.334885	0.029741	47.3357	-0.334048	-14951	-1.989255E-6	NaN
236	1.000000	0.762939	7.36736e+06	-50439.1	955.818	-29756.1	0.000000	0.000000	6.763040	-0.032940	NaN	0.000000	0.001581	0.001651	28.0802	0.092017	0.002054	44.7947	-115.131	-165.848	0.033252	0.761644	-0.293561	-0.294856	-0.032940	44.7947	-0.293010	-3701.28	8.899593E-6	NaN
236	1.000000	0.802950	7.36736e+06	-50439.1	955.819	-29756.1	0.000000	0.000000	6.803056	0.073150	NaN	0.000000	0.001580	0.001685	28.0801	0.108315	0.002061	52.564	81.7385	-163.938	0.015177	0.801601	-0.253550	-0.254899	0.073150	52.564	-0.254594	-967.971	-7.557021E-5	NaN
236	1.000000	0.842994	7.36736e+06	-50439.1	955.819	-29756.1	0.000000	0.000000	6.843096	-0.004069	NaN	0.000000	0.001542	0.001666	28.0789	0.135071	0.002081	64.9073	-150.163	-165.793	0.053570	0.841682	-0.213507	-0.214818	-0.004069	64.9073	-0.213460	-218.131	1.865481E-5	NaN
236	1.000000	0.883016	7.36736e+06	-50439.1	955.818	-29756.1	0.000000	0.000000	6.883119	0.008398	NaN	0.000000	0.001560	0.001655	28.0787	0.013585	0.002118	6.414278	40.6476	-166.097	-0.028926	0.881712	-0.173484	-0.174788	0.008398	6.414278	-0.174466	-49.069	-0.000171	NaN
236	1.000000	0.923026	7.36736e+06	-50439.1	955.818	-29756.1	0.000000	0.000000	6.923130	0.036035	NaN	0.000000	0.001566	0.001674	28.0787	0.093926	0.001978	47.493	59.6449	-163.279	0.056485	0.921758	-0.133475	-0.134743	0.036035	47.493	-0.134044	-9.120212	-0.003951	NaN
236	1.000000	0.963026	7.36736e+06	-50439.1	955.819	-29756.1	0.000000	0.000000	6.963129	0.000599	NaN	0.000000	0.001597	0.001691	28.08	0.154185	0.001805	85.4187	52.483	-166.674	0.038383	0.961707	-0.093474	-0.094793	0.000599	85.4187	-0.093480	-1.302038	-0.000460	NaN
236	1.000000	1.003042	7.36736e+06	-50439.1	955.817	-29756.1	0.000000	0.000000	7.003147	0.051991	NaN	0.000000	0.001656	0.001663	28.0798	0.105365	0.002060	51.1462	-162.926	-165.006	-0.017618	1.001741	-0.053458	-0.054760	0.051991	51.1462	-0.054221	-0.122113	-0.425759	NaN
236	1.000000	1.043062	7.36736e+06	-50439.1	955.819	-29756.1	0.000000	0.000000	7.043167	0.064241	NaN	0.000000	0.001498	0.001662	28.0797	0.079832	0.002047	38.9995	64.2018	-167.358	-0.076266	1.041742	-0.013438	-0.014759	0.064241	38.9995	-0.014674	-0.009081	-7.074360	NaN
236	2.000000	1.071549	7.36736e+06	-50439.1	955.817	-29756.1	0.000000	0.000000	7.072264	14.8933	NaN	0.000000	0.001640	0.001652	28.0784	13.6306	0.001652	8249.8	3.515264	-173.768	13.7131	1.071253	0.015049	0.014752	14.8933	8249.8	0.013695	0.013584	1096.38	64669.9
236	2.000000	1.081526	7.36736e+06	-50439.1	955.818	-29756.1	0.000000	0.000000	7.082678	25.517	NaN	0.000000	0.001627	0.001633	28.0784	23.4789	0.001838	12775.7	3.370829	-175.062	24.9109	1.081200	0.025025	0.024699	25.517	12775.7	0.023527	0.028390	898.788	69274.1
236	2.000000	1.091513	7.36736e+06	-50439.1	955.818	-29756.1	0.000000	0.000000	7.093680	50.1893	NaN	0.000000	0.001626	0.001637	28.0786	33.2094	0.001738	19110.1	7.553015	176.558	50.4524	1.091186	0.035013	0.034685	50.1893	19110.1	0.033043	0.047287	1061.38	80290.9
236	2.000000	1.101513	7.36736e+06	-50439.1	955.817	-29756.1	0.000000	0.000000	7.104938	80.7931	NaN	0.000000	0.001557	0.001694	28.0787	44.0553	0.001816	24257.5	8.839157	174.185	81.7873	1.101126	0.045012	0.044625	80.7931	24257.5	0.042514	0.070688	1142.96	83357.9
236	2.000000	1.111438	7.36736e+06	-50439.1	955.818	-29756.1	0.000000	0.000000	7.116702	125.502	NaN	0.000000	0.001582	0.001701	28.0799	53.0611	0.001844	28772.1	3.225247	178.049	122.856	1.111188	0.054938	0.054688	125.502	28772.1	0.051667	0.097634	1285.43	84128.8
236	2.000000	1.121508	7.36736e+06	-50439.1	955.818	-29756.1	0.000000	0.000000	7.128884	176.869	NaN	0.000000	0.001537	0.001666	28.0797	63.667	0.001804	35295.6	8.571603	171.17	179.01	1.121160	0.065007	0.064660	176.869	35295.6	0.061249	0.130326	1357.13	89326.3
236	2.000000	1.131393	7.36736e+06	-50439.1	955.817	-29756.1	0.000000	0.000000	7.141447	241.995	NaN	0.000000	0.001568	0.001663	28.08	72.2883	0.001774	40744.2	5.376002	172.412	237.903	1.131051	0.074893	0.074550	241.995	40744.2	0.070438	0.165875	1458.89	91400.4
236	2.000000	1.141361	7.36736e+06	-50439.1	955.818	-29756.1	0.000000	0.000000	7.154476	316.421	NaN	0.000000	0.001515	0.001663	28.0788	80.8141	0.001828	44198.1	3.020552	174.636	310.935	1.141120	0.084861	0.084619	316.421	44198.1	0.079491	0.204826	1544.82	89224.4
236	2.000000	1.151443	7.36736e+06	-50439.1	955.818	-29756.1	0.000000	0.000000	7.168338	408.369	NaN	0.000000	0.001614	0.001662	28.0788	90.1692	0.001675	53820	0.177455	175.795	407.293	1.151247	0.094942	0.094746	408.369	53820	0.089251	0.251099	1626.32	98128.2
236	2.000000	1.161266	7.36736e+06	-50439.1	955.818	-29756.1	0.000000	0.000000	7.182342	510.033	NaN	0.000000	0.001632	0.001707	28.0788	99.2434	0.001725	57529.6	0.833206	175.045	501.885	1.161058	0.104766	0.104557	510.033	57529.6	0.098117	0.296923	1717.73	96458.9
236	2.000000	1.166450	7.36736e+06	-50439.1	955.819	-29756.1	0.000000	0.000000	7.189842	566.356	NaN	0.000000	0.001612	0.001719	28.0788	105.711	0.001801	58682.7	7.477368	168.338	567.248	1.165937	0.109950	0.109437	566.356	58682.7	0.102711	0.322081	1758.43	94471.4