Folder: unikorn_login/remote_trans/data/nanoindenter/0828-1/data/Data_2025-08-06,11h17m57s (part 20)

File: 2025-07-22_16-23-58_1_38.txt
2025-07-22, 16:23:58, 1
Index	Phase	Displacement	Time	Pos X	Pos Y	Pos Z	Rot A	Rot B	Piezo Z	Force A	Force B	Gripper	Voltage A	Voltage B	Temperature	Amplitude force	Amplitude pos	Stiffness	Phase shift	Phase excitation	Force A raw	Displacement raw	HMax	HMax raw	Real Force	Real Stiffness	Contact Depth	Area	Hardness	Reduced Mod.
[#]	[#]	[um]	[s]	[um]	[um]	[um]	[m°]	[m°]	[um]	[uN]	[uN]	[V]	[V]	[V]	[°C]	[uN]	[um]	[N/m]	[°]	[°]	[uN]	[um]	[um]	[um]	[uN]	[N/m]	[um]	[um^2]	[MPa]	[MPa]
38	1.000000	0.002181	7.36541e+06	-40539.1	955.818	-29790.3	0.000000	0.000000	6.002788	0.068034	NaN	0.000000	0.001610	0.001761	28.0861	0.022568	0.000952	23.7099	145.108	-167.532	0.063826	0.000977	-1.050124	-1.051328	0.068034	23.7099	-1.052276	-1.145535E+14	-5.939098E-16	NaN
38	1.000000	0.042131	7.36541e+06	-40539.1	955.819	-29790.3	0.000000	0.000000	6.042737	0.031222	NaN	0.000000	0.001622	0.001800	28.087	0.037003	0.002028	18.2482	21.3694	-164.506	0.006728	0.040827	-1.010174	-1.011478	0.031222	18.2482	-1.011457	-3.235854E+13	-9.648824E-16	NaN
38	1.000000	0.082155	7.36541e+06	-40539.1	955.818	-29790.3	0.000000	0.000000	6.082761	0.041549	NaN	0.000000	0.001657	0.001782	28.0853	0.104845	0.002074	50.5546	-38.4153	-165.809	0.002237	0.080849	-0.970150	-0.971455	0.041549	50.5546	-0.970766	-9.161962E+12	-4.534978E-15	NaN
38	1.000000	0.122188	7.36541e+06	-40539.1	955.818	-29790.3	0.000000	0.000000	6.122796	0.066457	NaN	0.000000	0.001687	0.001784	28.0873	0.051614	0.001997	25.8499	-70.325	-163.917	-0.061222	0.120902	-0.930116	-0.931403	0.066457	25.8499	-0.932044	-2.752886E+12	-2.414071E-14	NaN
38	1.000000	0.162173	7.36541e+06	-40539.1	955.818	-29790.3	0.000000	0.000000	6.162780	0.041996	NaN	0.000000	0.001625	0.001805	28.0877	0.146616	0.002126	68.9528	-104.684	-164.138	-0.026914	0.160890	-0.890131	-0.891414	0.041996	68.9528	-0.890588	-7.583380E+11	-5.537834E-14	NaN
38	1.000000	0.202202	7.36541e+06	-40539.1	955.818	-29790.3	0.000000	0.000000	6.202808	0.039889	NaN	0.000000	0.001659	0.001912	28.0875	0.072673	0.002024	35.9097	-127.966	-160.338	0.085548	0.200889	-0.850103	-0.851415	0.039889	35.9097	-0.850936	-2.205000E+11	-1.809040E-13	NaN
38	1.000000	0.242237	7.36541e+06	-40539.1	955.818	-29790.3	0.000000	0.000000	6.242843	0.043330	NaN	0.000000	0.001603	0.001795	28.0885	0.015845	0.001988	7.969070	107.323	-166.385	0.085416	0.240933	-0.810068	-0.811372	0.043330	7.969070	-0.814146	-6.995364E+10	-6.194140E-13	NaN
38	1.000000	0.282227	7.36541e+06	-40539.1	955.818	-29790.3	0.000000	0.000000	6.282835	0.071569	NaN	0.000000	0.001629	0.001747	28.0871	0.107899	0.001898	56.8473	85.3273	-163.562	0.015977	0.280939	-0.770077	-0.771366	0.071569	56.8473	-0.771022	-1.816336E+10	-3.940303E-12	NaN
38	1.000000	0.322223	7.36541e+06	-40539.1	955.819	-29790.3	0.000000	0.000000	6.322826	-0.025985	NaN	0.000000	0.001615	0.001758	28.0868	0.034008	0.002013	16.8961	107.181	-163.291	-0.056893	0.320962	-0.730082	-0.731342	-0.025985	16.8961	-0.728928	-4.855160E+9	5.352104E-12	NaN
38	1.000000	0.362283	7.36541e+06	-40539.1	955.818	-29790.3	0.000000	0.000000	6.362890	0.058931	NaN	0.000000	0.001646	0.001771	28.0858	0.068453	0.001935	35.3684	103.073	-164.292	0.124773	0.360965	-0.690022	-0.691339	0.058931	35.3684	-0.691272	-1.486944E+9	-3.963240E-11	NaN
38	1.000000	0.402296	7.36541e+06	-40539.1	955.819	-29790.3	0.000000	0.000000	6.402900	0.002451	NaN	0.000000	0.001592	0.001770	28.089	0.062711	0.001987	31.5676	-174.205	-166.481	-0.004096	0.400990	-0.650009	-0.651315	0.002451	31.5676	-0.650067	-4.058426E+8	-6.039442E-12	NaN
38	1.000000	0.442298	7.36541e+06	-40539.1	955.818	-29790.4	0.000000	0.000000	6.442905	0.042839	NaN	0.000000	0.001599	0.001757	28.0874	0.054501	0.002151	25.3414	-72.9749	-162.918	0.039215	0.441019	-0.610006	-0.611286	0.042839	25.3414	-0.611274	-1.190255E+8	-3.599124E-10	NaN
38	1.000000	0.482312	7.36541e+06	-40539.1	955.819	-29790.4	0.000000	0.000000	6.482921	0.104622	NaN	0.000000	0.001588	0.001783	28.0876	0.072867	0.001980	36.8074	113.146	-164.936	0.098736	0.481010	-0.569992	-0.571294	0.104622	36.8074	-0.572124	-3.435387E+7	-3.045418E-9	NaN
38	1.000000	0.522363	7.36541e+06	-40539.1	955.819	-29790.4	0.000000	0.000000	6.522966	-0.055269	NaN	0.000000	0.001579	0.001800	28.0876	0.089908	0.001989	45.2126	75.2983	-163.083	-0.022863	0.520996	-0.529941	-0.531308	-0.055269	45.2126	-0.529024	-8.69012e+06	6.359935E-9	NaN
38	1.000000	0.562357	7.36541e+06	-40539.1	955.818	-29790.4	0.000000	0.000000	6.562963	0.023355	NaN	0.000000	0.001580	0.001746	28.0864	0.089147	0.001859	47.9449	-90.9436	-164.234	0.076858	0.561063	-0.489947	-0.491241	0.023355	47.9449	-0.490313	-2.51051e+06	-9.303084E-9	NaN
38	1.000000	0.602359	7.36541e+06	-40539.1	955.819	-29790.4	0.000000	0.000000	6.602965	0.021594	NaN	0.000000	0.001607	0.001725	28.0864	0.019417	0.002134	9.098866	-141.052	-163.011	-0.001100	0.601113	-0.449945	-0.451191	0.021594	9.098866	-0.451725	-722162	-2.990251E-8	NaN
38	1.000000	0.642410	7.36541e+06	-40539.1	955.819	-29790.4	0.000000	0.000000	6.643018	0.089711	NaN	0.000000	0.001569	0.001785	28.0865	0.046545	0.001964	23.7018	-24.8217	-160.396	0.115982	0.641095	-0.409895	-0.411210	0.089711	23.7018	-0.412733	-202887	-4.421700E-7	NaN
38	1.000000	0.682406	7.36541e+06	-40539.1	955.818	-29790.4	0.000000	0.000000	6.683011	0.018397	NaN	0.000000	0.001562	0.001704	28.0893	0.078095	0.002107	37.066	-21.2094	-167.958	0.081840	0.681095	-0.369898	-0.371209	0.018397	37.066	-0.370271	-50121.6	-3.670496E-7	NaN
38	1.000000	0.722429	7.36541e+06	-40539.1	955.818	-29790.4	0.000000	0.000000	6.723036	0.067160	NaN	0.000000	0.001639	0.001735	28.0875	0.104875	0.001963	53.4279	113.435	-163.281	0.035898	0.721084	-0.329876	-0.331221	0.067160	53.4279	-0.330819	-13410.3	-5.008129E-6	NaN
38	1.000000	0.762417	7.36541e+06	-40539.1	955.818	-29790.4	0.000000	0.000000	6.763024	0.045469	NaN	0.000000	0.001574	0.001771	28.0887	0.050062	0.001901	26.3374	152.487	-164.614	0.092345	0.761146	-0.289887	-0.291158	0.045469	26.3374	-0.291182	-3475.37	-1.308318E-5	NaN
38	1.000000	0.802445	7.36541e+06	-40539.1	955.819	-29790.4	0.000000	0.000000	6.803051	0.036170	NaN	0.000000	0.001595	0.001733	28.0869	0.042864	0.002014	21.2847	148.937	-160.986	0.048264	0.801123	-0.249859	-0.251182	0.036170	21.2847	-0.251134	-856.033	-4.225290E-5	NaN
38	1.000000	0.842486	7.36542e+06	-40539.1	955.819	-29790.4	0.000000	0.000000	6.843092	0.021769	NaN	0.000000	0.001594	0.001695	28.0873	0.042966	0.002065	20.8101	-133.727	-162.815	0.057055	0.841195	-0.209818	-0.211109	0.021769	20.8101	-0.210603	-196.145	-0.000111	NaN
38	1.000000	0.882526	7.36542e+06	-40539.1	955.818	-29790.4	0.000000	0.000000	6.883132	0.041780	NaN	0.000000	0.001595	0.001714	28.0871	0.033287	0.002102	15.8359	-66.9597	-164.178	0.049268	0.881180	-0.169779	-0.171125	0.041780	15.8359	-0.171758	-44.0634	-0.000948	NaN
38	1.000000	0.922495	7.36542e+06	-40539.1	955.818	-29790.4	0.000000	0.000000	6.923101	0.035019	NaN	0.000000	0.001626	0.001722	28.0884	0.144431	0.001971	73.2701	2.370863	-163.462	-0.070833	0.921184	-0.129809	-0.131120	0.035019	73.2701	-0.130168	-7.678410	-0.004561	NaN
38	1.000000	0.962546	7.36542e+06	-40539.1	955.818	-29790.4	0.000000	0.000000	6.963152	0.022175	NaN	0.000000	0.001594	0.001774	28.0902	0.059032	0.002031	29.0635	14.0837	-164.188	0.028592	0.961229	-0.089758	-0.091075	0.022175	29.0635	-0.090331	-1.100437	-0.020151	NaN
38	1.000000	1.002531	7.36542e+06	-40539.1	955.818	-29790.4	0.000000	0.000000	7.003138	0.036371	NaN	0.000000	0.001644	0.001733	28.0899	0.019706	0.002062	9.556329	-27.4757	-162.12	0.047972	1.001263	-0.049773	-0.051041	0.036371	9.556329	-0.052628	-0.109467	-0.332258	NaN
38	1.000000	1.042573	7.36542e+06	-40539.1	955.817	-29790.4	0.000000	0.000000	7.043176	-0.020709	NaN	0.000000	0.001634	0.001744	28.0898	0.027547	0.001812	15.2007	-19.21	-164.45	0.009885	1.041248	-0.009732	-0.011056	-0.020709	15.2007	-0.008710	-0.005645	3.668317	NaN
38	2.000000	1.067134	7.36542e+06	-40539.1	955.818	-29790.4	0.000000	0.000000	7.068445	17.1855	NaN	0.000000	0.001615	0.001754	28.0898	14.9926	0.001848	8110.75	7.725982	-175.071	17.1681	1.066862	0.014830	0.014558	17.1855	8110.75	0.013241	0.013010	1320.91	64966.6
38	2.000000	1.077039	7.36542e+06	-40539.1	955.819	-29790.4	0.000000	0.000000	7.079371	42.0257	NaN	0.000000	0.001638	0.001727	28.0887	25.7718	0.001863	13835.2	0.943418	-173.618	39.7961	1.076793	0.024735	0.024488	42.0257	13835.2	0.022457	0.026551	1582.84	77574.7
38	2.000000	1.087063	7.36542e+06	-40539.1	955.82	-29790.4	0.000000	0.000000	7.090923	79.2091	NaN	0.000000	0.001598	0.001756	28.0893	35.561	0.001811	19640.6	4.877963	-179.835	78.4338	1.086767	0.034759	0.034462	79.2091	19640.6	0.031734	0.044414	1783.41	85146.5
38	2.000000	1.096981	7.36542e+06	-40539.1	955.82	-29790.4	0.000000	0.000000	7.102769	126.129	NaN	0.000000	0.001591	0.001729	28.0896	44.6087	0.001710	26085.8	0.841366	-179.04	122.888	1.096744	0.044677	0.044439	126.129	26085.8	0.041050	0.066771	1888.97	92232.3
38	2.000000	1.107031	7.36542e+06	-40539.1	955.818	-29790.4	0.000000	0.000000	7.115057	180.569	NaN	0.000000	0.001587	0.001715	28.0909	56.1434	0.001720	32643.5	6.003590	173.744	179.474	1.106793	0.054727	0.054489	180.569	32643.5	0.050578	0.094209	1916.68	97167.9
38	2.000000	1.116983	7.36542e+06	-40539.1	955.819	-29790.4	0.000000	0.000000	7.127689	245.802	NaN	0.000000	0.001605	0.001743	28.091	65.541	0.001869	35067.9	5.178025	174.469	244.296	1.116687	0.064679	0.064383	245.802	35067.9	0.059422	0.123743	1986.39	91080
38	2.000000	1.126958	7.36542e+06	-40539.1	955.818	-29790.4	0.000000	0.000000	7.140490	314.562	NaN	0.000000	0.001615	0.001735	28.0918	75.4725	0.001803	41859	8.199224	169.971	311.984	1.126729	0.074653	0.074425	314.562	41859	0.069017	0.160113	1964.63	95576.1
38	2.000000	1.136949	7.36542e+06	-40539.1	955.819	-29790.4	0.000000	0.000000	7.153594	390.325	NaN	0.000000	0.001605	0.001738	28.089	84.1708	0.001802	46709.3	3.359122	174.223	387.356	1.136793	0.084645	0.084489	390.325	46709.3	0.078377	0.199825	1953.33	95466.6
38	2.000000	1.146961	7.36542e+06	-40539.1	955.819	-29790.4	0.000000	0.000000	7.167363	481.736	NaN	0.000000	0.001595	0.001737	28.0902	92.5548	0.001736	53302.5	2.955297	173.944	479.783	1.146687	0.094656	0.094382	481.736	53302.5	0.087878	0.244321	1971.73	98523.5
38	2.000000	1.156946	7.36542e+06	-40539.1	955.818	-29790.4	0.000000	0.000000	7.181329	578.615	NaN	0.000000	0.001629	0.001764	28.0899	103.106	0.001707	60388.7	3.447180	172.376	575.69	1.156677	0.104641	0.104373	578.615	60388.7	0.097455	0.293379	1972.25	101863
38	2.000000	1.160424	7.36542e+06	-40539.1	955.819	-29790.4	0.000000	0.000000	7.186578	621.691	NaN	0.000000	0.001612	0.001738	28.1292	107.532	0.001837	58529.6	3.973126	-7.438764	618.156	1.160021	0.108120	0.107716	621.691	58529.6	0.100153	0.307956	2018.77	96361.7

File: 2025-07-22_16-23-58_1_39.txt
2025-07-22, 16:23:58, 1
Index	Phase	Displacement	Time	Pos X	Pos Y	Pos Z	Rot A	Rot B	Piezo Z	Force A	Force B	Gripper	Voltage A	Voltage B	Temperature	Amplitude force	Amplitude pos	Stiffness	Phase shift	Phase excitation	Force A raw	Displacement raw	HMax	HMax raw	Real Force	Real Stiffness	Contact Depth	Area	Hardness	Reduced Mod.
[#]	[#]	[um]	[s]	[um]	[um]	[um]	[m°]	[m°]	[um]	[uN]	[uN]	[V]	[V]	[V]	[°C]	[uN]	[um]	[N/m]	[°]	[°]	[uN]	[um]	[um]	[um]	[uN]	[N/m]	[um]	[um^2]	[MPa]	[MPa]
39	1.000000	0.002463	7.36542e+06	-40589.1	955.819	-29790	0.000000	0.000000	6.002801	0.010496	NaN	0.000000	0.001611	0.001759	28.1043	0.038696	0.000953	40.6205	-175.871	-160.869	0.024428	0.001210	-1.176849	-1.178102	0.010496	40.6205	-1.177043	-5.410691E+15	-1.939835E-18	NaN
39	1.000000	0.046415	7.36542e+06	-40589.1	955.818	-29790	0.000000	0.000000	6.046752	0.008998	NaN	0.000000	0.001685	0.001742	28.0934	0.041299	0.001952	21.1554	52.9535	-166.099	-0.030417	0.045105	-1.132898	-1.134207	0.008998	21.1554	-1.133217	-1.398827E+15	-6.432636E-18	NaN
39	1.000000	0.090445	7.36542e+06	-40589.1	955.818	-29790	0.000000	0.000000	6.090783	0.014333	NaN	0.000000	0.001701	0.001789	28.1025	0.036248	0.001966	18.4356	-140.604	-163.973	0.041997	0.089165	-1.088867	-1.090147	0.014333	18.4356	-1.089450	-3.617635E+14	-3.962037E-17	NaN
39	1.000000	0.134446	7.36542e+06	-40589.1	955.819	-29790	0.000000	0.000000	6.134784	0.025405	NaN	0.000000	0.001686	0.001749	28.0935	0.028606	0.001922	14.882	59.9732	-165.186	-0.018303	0.133160	-1.044867	-1.046152	0.025405	14.882	-1.046147	-9.475820E+13	-2.681041E-16	NaN
39	1.000000	0.178461	7.36542e+06	-40589.1	955.818	-29790	0.000000	0.000000	6.178798	0.017071	NaN	0.000000	0.001684	0.001746	28.103	0.189702	0.002011	94.3104	135.543	-167.401	-0.030185	0.177114	-1.000852	-1.002199	0.017071	94.3104	-1.000987	-2.339176E+13	-7.297940E-16	NaN
39	1.000000	0.222480	7.36542e+06	-40589.1	955.818	-29790	0.000000	0.000000	6.222817	-0.000391	NaN	0.000000	0.001600	0.001728	28.0945	0.106717	0.001982	53.8316	-56.2749	-166.08	-0.021668	0.221176	-0.956832	-0.958136	-0.000391	53.8316	-0.956827	-5.944151E+12	6.575228E-17	NaN
39	1.000000	0.266516	7.36542e+06	-40589.1	955.819	-29790	0.000000	0.000000	6.266852	-0.028944	NaN	0.000000	0.001540	0.001788	28.1025	0.099629	0.002111	47.1953	-140.351	-160.906	-0.091146	0.265222	-0.912796	-0.914090	-0.028944	47.1953	-0.912336	-1.491825E+12	1.940161E-14	NaN
39	1.000000	0.310524	7.36542e+06	-40589.1	955.819	-29790	0.000000	0.000000	6.310859	-0.053711	NaN	0.000000	0.001595	0.001783	28.0923	0.047672	0.001744	27.3306	-7.410392	-167.724	0.001372	0.309183	-0.868788	-0.870129	-0.053711	27.3306	-0.867314	-3.673699E+11	1.462030E-13	NaN
39	1.000000	0.354521	7.36542e+06	-40589.1	955.819	-29790	0.000000	0.000000	6.354858	0.017134	NaN	0.000000	0.001674	0.001742	28.1009	0.045719	0.001981	23.0735	109.074	-161.917	-0.045482	0.353240	-0.824791	-0.826073	0.017134	23.0735	-0.825348	-9.924984E+10	-1.726317E-13	NaN
39	1.000000	0.398568	7.36542e+06	-40589.1	955.818	-29790	0.000000	0.000000	6.398905	-0.003465	NaN	0.000000	0.001673	0.001774	28.0942	0.073647	0.002018	36.489	149.092	-166.769	0.094449	0.397263	-0.780744	-0.782050	-0.003465	36.489	-0.780673	-2.456852E+10	1.410377E-13	NaN
39	1.000000	0.442599	7.36542e+06	-40589.1	955.818	-29790	0.000000	0.000000	6.442937	0.034026	NaN	0.000000	0.001653	0.001826	28.1006	0.120477	0.002004	60.1105	49.0322	-164.178	0.020694	0.441287	-0.736713	-0.738026	0.034026	60.1105	-0.737138	-6.281551E+9	-5.416766E-12	NaN
39	1.000000	0.486579	7.36542e+06	-40589.1	955.818	-29790	0.000000	0.000000	6.486918	0.049995	NaN	0.000000	0.001552	0.001770	28.0966	0.012294	0.001825	6.736177	137.482	-166.766	0.021799	0.485305	-0.692733	-0.694007	0.049995	6.736177	-0.698299	-1.854823E+9	-2.695390E-11	NaN
39	1.000000	0.530624	7.36542e+06	-40589.1	955.817	-29790	0.000000	0.000000	6.530962	0.025984	NaN	0.000000	0.001588	0.001776	28.0998	0.013312	0.001965	6.773205	144.899	-167.344	0.067588	0.529364	-0.648689	-0.649949	0.025984	6.773205	-0.651566	-4.255020E+8	-6.106628E-11	NaN
39	1.000000	0.574618	7.36542e+06	-40589.1	955.818	-29790	0.000000	0.000000	6.574954	-0.012994	NaN	0.000000	0.001617	0.001734	28.0941	0.148634	0.002075	71.6167	-72.8597	-166.576	0.058607	0.573395	-0.604694	-0.605918	-0.012994	71.6167	-0.604558	-9.621122E+7	1.350529E-10	NaN
39	1.000000	0.618637	7.36542e+06	-40589.1	955.818	-29790	0.000000	0.000000	6.618975	0.022597	NaN	0.000000	0.001641	0.001781	28.0982	0.039180	0.001877	20.87	-51.4316	-162.861	0.048215	0.617358	-0.560675	-0.561954	0.022597	20.87	-0.561487	-2.448775E+7	-9.227760E-10	NaN
39	1.000000	0.662683	7.36542e+06	-40589.1	955.818	-29790	0.000000	0.000000	6.663019	-0.022872	NaN	0.000000	0.001626	0.001796	28.0959	0.029213	0.001957	14.9235	-115.221	-164.83	0.013607	0.661366	-0.516629	-0.517946	-0.022872	14.9235	-0.515480	-5.63265e+06	4.060583E-9	NaN
39	1.000000	0.706718	7.36542e+06	-40589.1	955.818	-29790	0.000000	0.000000	6.707054	-0.018977	NaN	0.000000	0.001625	0.001769	28.099	0.037757	0.002077	18.1743	-87.0532	-168.792	0.021718	0.705426	-0.472594	-0.473886	-0.018977	18.1743	-0.471811	-1.38295e+06	1.372221E-8	NaN
39	1.000000	0.750702	7.36542e+06	-40589.1	955.818	-29790	0.000000	0.000000	6.751037	-0.044432	NaN	0.000000	0.001621	0.001759	28.0976	0.103330	0.002051	50.3753	132.925	-164.06	0.027396	0.749359	-0.428610	-0.429953	-0.044432	50.3753	-0.427948	-333450	1.332495E-7	NaN
39	1.000000	0.794735	7.36542e+06	-40589.1	955.819	-29790	0.000000	0.000000	6.795070	-0.035315	NaN	0.000000	0.001598	0.001782	28.0985	0.084719	0.001900	44.5822	107.426	-164.672	-0.078937	0.793410	-0.384578	-0.385902	-0.035315	44.5822	-0.383984	-78889.8	4.476536E-7	NaN
39	1.000000	0.838752	7.36542e+06	-40589.1	955.819	-29790	0.000000	0.000000	6.839089	0.020704	NaN	0.000000	0.001649	0.001800	28.0948	0.022925	0.001921	11.9342	-18.6483	-165.897	-0.022760	0.837399	-0.340561	-0.341914	0.020704	11.9342	-0.341862	-19439.3	-1.065060E-6	NaN
39	1.000000	0.882784	7.36542e+06	-40589.1	955.819	-29790	0.000000	0.000000	6.883123	0.055819	NaN	0.000000	0.001676	0.001772	28.0974	0.010895	0.002051	5.312999	-153.022	-168.245	0.072099	0.881515	-0.296528	-0.297797	0.055819	5.312999	-0.304408	-5472.25	-1.020036E-5	NaN
39	1.000000	0.926765	7.36542e+06	-40589.1	955.819	-29790	0.000000	0.000000	6.927104	0.047597	NaN	0.000000	0.001626	0.001775	28.0947	0.113601	0.002022	56.1856	171.537	-166.241	0.075923	0.925517	-0.252548	-0.253795	0.047597	56.1856	-0.253183	-920.701	-5.169691E-5	NaN
39	1.000000	0.970774	7.36543e+06	-40589.1	955.818	-29790	0.000000	0.000000	6.971112	0.017597	NaN	0.000000	0.001589	0.001764	28.0984	0.075567	0.001991	37.9609	125.64	-165.642	0.010682	0.969546	-0.208538	-0.209766	0.017597	37.9609	-0.208886	-183.977	-9.564550E-5	NaN
39	1.000000	1.014816	7.36543e+06	-40589.1	955.82	-29790	0.000000	0.000000	7.015153	-0.000698	NaN	0.000000	0.001599	0.001744	28.0981	0.033108	0.002043	16.2048	-66.0269	-166.562	0.080275	1.013517	-0.164497	-0.165795	-0.000698	16.2048	-0.164464	-32.877	2.122388E-5	NaN
39	1.000000	1.058849	7.36543e+06	-40589.1	955.819	-29790	0.000000	0.000000	7.059184	-0.053824	NaN	0.000000	0.001616	0.001748	28.0983	0.044023	0.002012	21.8846	-7.103721	-162.707	-0.052564	1.057501	-0.120463	-0.121812	-0.053824	21.8846	-0.118619	-4.530258	0.011881	NaN
39	1.000000	1.102854	7.36543e+06	-40589.1	955.817	-29790	0.000000	0.000000	7.103190	-0.026892	NaN	0.000000	0.001596	0.001773	28.0956	0.048560	0.001978	24.5476	-125.741	-164.31	-0.058484	1.101576	-0.076458	-0.077736	-0.026892	24.5476	-0.075637	-0.479681	0.056063	NaN
39	1.000000	1.146860	7.36543e+06	-40589.1	955.818	-29790	0.000000	0.000000	7.147197	0.000792	NaN	0.000000	0.001623	0.001735	28.0965	0.043413	0.002149	20.1972	-167.098	-168.024	-0.061928	1.145660	-0.032453	-0.033652	0.000792	20.1972	-0.032482	-0.027053	-0.029266	NaN
39	2.000000	1.189475	7.36543e+06	-40589.1	955.818	-29790	0.000000	0.000000	7.190179	8.919873	NaN	0.000000	0.001619	0.001784	28.097	7.129793	0.001664	4285.56	7.815751	-170.481	9.833491	1.189031	0.010163	0.009719	8.919873	4285.56	0.008602	0.007669	1163.14	44711.4
39	2.000000	1.200302	7.36543e+06	-40589.1	955.818	-29790	0.000000	0.000000	7.201696	25.7217	NaN	0.000000	0.001612	0.001791	28.0969	18.9072	0.001858	10177.2	5.363737	-174.835	24.4071	1.200028	0.020989	0.020716	25.7217	10177.2	0.019094	0.021138	1216.83	63953.9
39	2.000000	1.211320	7.36543e+06	-40589.1	955.82	-29790	0.000000	0.000000	7.214093	59.293	NaN	0.000000	0.001593	0.001768	28.0994	28.4268	0.001687	16850.6	1.139313	-177.316	57.9177	1.210990	0.032008	0.031678	59.293	16850.6	0.029368	0.039445	1503.18	77516.5
39	2.000000	1.222306	7.36543e+06	-40589.1	955.82	-29790	0.000000	0.000000	7.227073	107.79	NaN	0.000000	0.001620	0.001740	28.0963	41.1728	0.001971	20884.9	5.670921	178.126	107.971	1.221956	0.042994	0.042644	107.79	20884.9	0.039123	0.061782	1744.68	76767
39	2.000000	1.233256	7.36543e+06	-40589.1	955.82	-29790	0.000000	0.000000	7.240378	165.123	NaN	0.000000	0.001587	0.001741	28.1005	51.6158	0.001888	27343.7	8.509823	172.003	161.981	1.232834	0.053943	0.053522	165.123	27343.7	0.049414	0.090611	1822.32	82992.7
39	2.000000	1.244218	7.36543e+06	-40589.1	955.817	-29790	0.000000	0.000000	7.253493	217.484	NaN	0.000000	0.001583	0.001709	28.0944	59.1504	0.001813	32621.6	4.645155	173.954	212.714	1.243915	0.064906	0.064603	217.484	32621.6	0.059906	0.125470	1733.36	84141.1
39	2.000000	1.255253	7.36543e+06	-40589.1	955.82	-29790	0.000000	0.000000	7.267618	292.684	NaN	0.000000	0.001594	0.001806	28.0982	68.8723	0.001798	38298.8	4.064701	173.841	292.142	1.255032	0.075941	0.075720	292.684	38298.8	0.070210	0.164942	1774.47	86157.6
39	2.000000	1.266130	7.36543e+06	-40589.1	955.82	-29790	0.000000	0.000000	7.281969	377.226	NaN	0.000000	0.001568	0.001752	28.0944	77.6927	0.001672	46473.4	3.383926	173.021	371.005	1.265890	0.086818	0.086578	377.226	46473.4	0.080730	0.210454	1792.43	92554.8
39	2.000000	1.277213	7.36543e+06	-40589.1	955.82	-29790	0.000000	0.000000	7.297140	476.682	NaN	0.000000	0.001589	0.001701	28.1004	89.5011	0.001884	47509.5	4.397851	172.277	475.6	1.276981	0.097901	0.097669	476.682	47509.5	0.090376	0.256713	1856.87	85670.1
39	2.000000	1.287214	7.36543e+06	-40589.1	955.819	-29790	0.000000	0.000000	7.311106	573.175	NaN	0.000000	0.001565	0.001750	28.1006	97.594	0.001730	56407.9	3.956560	171.563	570.547	1.286850	0.107901	0.107538	573.175	56407.9	0.100280	0.308651	1857.03	92764