Folder: unikorn_login/remote_trans/data/nanoindenter/0828-1/data/Data_2025-08-06,11h17m57s (part 185)

File: 2025-07-22_16-23-58_1_387.txt
2025-07-22, 16:23:58, 1
Index	Phase	Displacement	Time	Pos X	Pos Y	Pos Z	Rot A	Rot B	Piezo Z	Force A	Force B	Gripper	Voltage A	Voltage B	Temperature	Amplitude force	Amplitude pos	Stiffness	Phase shift	Phase excitation	Force A raw	Displacement raw	HMax	HMax raw	Real Force	Real Stiffness	Contact Depth	Area	Hardness	Reduced Mod.
[#]	[#]	[um]	[s]	[um]	[um]	[um]	[m°]	[m°]	[um]	[uN]	[uN]	[V]	[V]	[V]	[°C]	[uN]	[um]	[N/m]	[°]	[°]	[uN]	[um]	[um]	[um]	[uN]	[N/m]	[um]	[um^2]	[MPa]	[MPa]
387	1.000000	0.002742	7.36885e+06	-57739.1	1005.82	-29736.6	0.000000	0.000000	6.002781	0.058882	NaN	0.000000	0.001607	0.001669	28.0811	0.050104	0.001021	49.0509	-90.6628	-167.159	0.023991	0.001495	-1.125162	-1.126410	0.058882	49.0509	-1.126062	-1.121505E+15	-5.250270E-17	NaN
387	1.000000	0.044725	7.36885e+06	-57739.1	1005.82	-29736.6	0.000000	0.000000	6.044760	-0.022123	NaN	0.000000	0.001647	0.001699	28.0796	0.086522	0.001944	44.5063	85.1809	11.6166	-0.026084	0.043342	-1.083179	-1.084562	-0.022123	44.5063	-1.082807	-2.945871E+14	7.509900E-17	NaN
387	1.000000	0.086712	7.36885e+06	-57739.1	1005.82	-29736.6	0.000000	0.000000	6.086747	-0.035915	NaN	0.000000	0.001649	0.001674	28.0796	0.057473	0.001925	29.8617	132.376	-162.544	-0.013462	0.085407	-1.041192	-1.042497	-0.035915	29.8617	-1.040290	-7.904340E+13	4.543725E-16	NaN
387	1.000000	0.128739	7.36885e+06	-57739.1	1005.82	-29736.6	0.000000	0.000000	6.128775	0.008181	NaN	0.000000	0.001665	0.001743	28.0797	0.101019	0.002038	49.576	-134.5	15.1448	0.011308	0.127393	-0.999165	-1.000511	0.008181	49.576	-0.999289	-2.219200E+13	-3.686530E-16	NaN
387	1.000000	0.170759	7.36885e+06	-57739.1	1005.82	-29736.6	0.000000	0.000000	6.170794	-0.030575	NaN	0.000000	0.001660	0.001727	28.081	0.074787	0.002092	35.7572	24.936	-167.669	-0.050337	0.169449	-0.957145	-0.958455	-0.030575	35.7572	-0.956504	-5.884810E+12	5.195573E-15	NaN
387	1.000000	0.212755	7.36885e+06	-57739.1	1005.82	-29736.6	0.000000	0.000000	6.212789	-0.028756	NaN	0.000000	0.001656	0.001696	28.0811	0.110573	0.002037	54.2761	-161.019	13.8389	-0.027740	0.211398	-0.915150	-0.916506	-0.028756	54.2761	-0.914752	-1.608221E+12	1.788036E-14	NaN
387	1.000000	0.254788	7.36885e+06	-57739.1	1005.82	-29736.6	0.000000	0.000000	6.254824	-0.001353	NaN	0.000000	0.001683	0.001688	28.0808	0.073760	0.001938	38.0676	-115.236	-165.83	0.079230	0.253470	-0.873116	-0.874434	-0.001353	38.0676	-0.873089	-4.397841E+11	3.076953E-15	NaN
387	1.000000	0.296806	7.36885e+06	-57739.1	1005.82	-29736.6	0.000000	0.000000	6.296841	-0.026409	NaN	0.000000	0.001649	0.001709	28.0808	0.051426	0.001994	25.7892	-158.805	14.8935	-0.028506	0.295419	-0.831098	-0.832485	-0.026409	25.7892	-0.830330	-1.159481E+11	2.277659E-13	NaN
387	1.000000	0.338802	7.36885e+06	-57739.1	1005.82	-29736.6	0.000000	0.000000	6.338836	-0.041667	NaN	0.000000	0.001562	0.001678	28.0796	0.134572	0.002027	66.3941	152.008	-165.352	-0.040106	0.337565	-0.789102	-0.790339	-0.041667	66.3941	-0.788632	-3.151379E+10	1.322179E-12	NaN
387	1.000000	0.380828	7.36885e+06	-57739.1	1005.82	-29736.6	0.000000	0.000000	6.380863	-0.016912	NaN	0.000000	0.001577	0.001692	28.0798	0.094572	0.001949	48.5174	173.247	15.8631	0.006019	0.379461	-0.747077	-0.748443	-0.016912	48.5174	-0.746815	-8.508675E+9	1.987644E-12	NaN
387	1.000000	0.422875	7.36885e+06	-57739.1	1005.82	-29736.6	0.000000	0.000000	6.422914	0.065824	NaN	0.000000	0.001601	0.001664	28.0798	0.042022	0.002109	19.927	-164.973	-165.523	0.107227	0.421554	-0.705029	-0.706350	0.065824	19.927	-0.707506	-2.477514E+9	-2.656856E-11	NaN
387	1.000000	0.464880	7.36885e+06	-57739.1	1005.82	-29736.6	0.000000	0.000000	6.464912	-0.075398	NaN	0.000000	0.001567	0.001644	28.0812	0.085020	0.001958	43.413	-93.587	10.2425	-0.031128	0.463540	-0.663025	-0.664364	-0.075398	43.413	-0.661722	-5.862114E+8	1.286195E-10	NaN
387	1.000000	0.506925	7.36885e+06	-57739.1	1005.82	-29736.6	0.000000	0.000000	6.506964	0.063000	NaN	0.000000	0.001638	0.001691	28.081	0.102987	0.001864	55.2501	-69.9105	-168.097	-0.029646	0.505540	-0.620979	-0.622364	0.063000	55.2501	-0.621834	-1.662800E+8	-3.788798E-10	NaN
387	1.000000	0.548921	7.36885e+06	-57739.1	1005.82	-29736.6	0.000000	0.000000	6.548954	-0.063314	NaN	0.000000	0.001594	0.001694	28.0808	0.099324	0.001861	53.3758	-116.862	10.7085	-0.034924	0.547576	-0.578983	-0.580328	-0.063314	53.3758	-0.578093	-4.153455E+7	1.524370E-9	NaN
387	1.000000	0.590942	7.36885e+06	-57739.1	1005.82	-29736.6	0.000000	0.000000	6.590976	-0.030315	NaN	0.000000	0.001638	0.001679	28.0796	0.079515	0.001960	40.5606	-65.2763	-168.213	-0.016763	0.589592	-0.536963	-0.538313	-0.030315	40.5606	-0.536402	-1.100135E+7	2.755610E-9	NaN
387	1.000000	0.632963	7.36885e+06	-57739.1	1005.82	-29736.6	0.000000	0.000000	6.632995	-0.114079	NaN	0.000000	0.001661	0.001692	28.0798	0.132777	0.002123	62.5339	147.28	14.5773	-0.102513	0.631627	-0.494941	-0.496277	-0.114079	62.5339	-0.493573	-2.78806e+06	4.091719E-8	NaN
387	1.000000	0.674985	7.36885e+06	-57739.1	1005.82	-29736.6	0.000000	0.000000	6.675023	0.039986	NaN	0.000000	0.001697	0.001707	28.0798	0.083271	0.002035	40.9292	97.9114	-163.857	0.027053	0.673686	-0.452919	-0.454218	0.039986	40.9292	-0.453652	-768683	-5.201832E-8	NaN
387	1.000000	0.716987	7.36885e+06	-57739.1	1005.82	-29736.6	0.000000	0.000000	6.717019	-0.080579	NaN	0.000000	0.001603	0.001709	28.081	0.142249	0.001985	71.654	-174.331	13.8418	-0.096172	0.715632	-0.410918	-0.412273	-0.080579	71.654	-0.410074	-185976	4.332769E-7	NaN
387	1.000000	0.759015	7.36885e+06	-57739.1	1005.82	-29736.6	0.000000	0.000000	6.759050	-0.009273	NaN	0.000000	0.001609	0.001672	28.0811	0.025892	0.002000	12.9486	104.776	-168.609	0.061622	0.757702	-0.368890	-0.370202	-0.009273	12.9486	-0.368353	-47032.2	1.971657E-7	NaN
387	1.000000	0.801029	7.36885e+06	-57739.1	1005.82	-29736.6	0.000000	0.000000	6.801064	-0.013761	NaN	0.000000	0.001615	0.001722	28.081	0.044521	0.001981	22.4733	146.825	9.397990	-0.041529	0.799693	-0.326876	-0.328211	-0.013761	22.4733	-0.326416	-11559.1	1.190516E-6	NaN
387	1.000000	0.843060	7.36885e+06	-57739.1	1005.82	-29736.6	0.000000	0.000000	6.843091	-0.115979	NaN	0.000000	0.001586	0.001696	28.0809	0.084559	0.001971	42.8999	17.4426	-167.599	-0.124870	0.841761	-0.284844	-0.286144	-0.115979	42.8999	-0.282816	-2602.65	4.456201E-5	NaN
387	1.000000	0.885049	7.36885e+06	-57739.1	1005.82	-29736.6	0.000000	0.000000	6.885084	-0.016192	NaN	0.000000	0.001603	0.001743	28.0797	0.050140	0.001959	25.5975	-82.656	8.406796	0.007541	0.883701	-0.242855	-0.244203	-0.016192	25.5975	-0.242381	-626.176	2.585891E-5	NaN
387	1.000000	0.927083	7.36885e+06	-57739.1	1005.82	-29736.6	0.000000	0.000000	6.927117	-0.035492	NaN	0.000000	0.001589	0.001694	28.0801	0.108232	0.001979	54.6998	44.3709	-167.886	-0.090444	0.925736	-0.200822	-0.202168	-0.035492	54.6998	-0.200335	-133.415	0.000266	NaN
387	1.000000	0.969086	7.36885e+06	-57739.1	1005.82	-29736.6	0.000000	0.000000	6.969122	0.003856	NaN	0.000000	0.001602	0.001664	28.08	0.078797	0.001941	40.6062	-69.4783	14.243	-0.024744	0.967739	-0.158818	-0.160165	0.003856	40.6062	-0.158890	-26.1957	-0.000147	NaN
387	1.000000	1.011097	7.36885e+06	-57739.1	1005.82	-29736.6	0.000000	0.000000	7.011133	0.002756	NaN	0.000000	0.001688	0.001709	28.0813	0.137269	0.002149	63.8776	102.343	-169.564	0.033517	1.009762	-0.116807	-0.118143	0.002756	63.8776	-0.116840	-4.167517	-0.000661	NaN
387	1.000000	1.053170	7.36885e+06	-57739.1	1005.82	-29736.6	0.000000	0.000000	7.053209	0.070849	NaN	0.000000	0.001595	0.001683	28.0812	0.126657	0.001954	64.8088	161.044	13.0346	-0.005234	1.051801	-0.074734	-0.076104	0.070849	64.8088	-0.075554	-0.477330	-0.148427	NaN
387	1.000000	1.095165	7.36885e+06	-57739.1	1005.82	-29736.6	0.000000	0.000000	7.095202	0.012112	NaN	0.000000	0.001604	0.001695	28.0812	0.052300	0.002033	25.7204	94.0894	-166.462	0.068941	1.093877	-0.032739	-0.034028	0.012112	25.7204	-0.033092	-0.028171	-0.429949	NaN
387	2.000000	1.136145	7.36885e+06	-57739.1	1005.82	-29736.6	0.000000	0.000000	7.136557	9.142097	NaN	0.000000	0.001592	0.001693	28.0802	8.799549	0.001623	5422.59	5.425769	10.5457	8.560571	1.135609	0.008241	0.007705	9.142097	5422.59	0.006977	0.006011	1520.96	63902.2
387	2.000000	1.146579	7.36885e+06	-57739.1	1005.82	-29736.6	0.000000	0.000000	7.147645	25.0317	NaN	0.000000	0.001631	0.001694	28.0801	21.0605	0.001819	11576.3	5.523096	-177.735	22.8689	1.146289	0.018675	0.018384	25.0317	11576.3	0.017053	0.018122	1381.3	78567.1
387	2.000000	1.157166	7.36885e+06	-57739.1	1005.82	-29736.6	0.000000	0.000000	7.159097	46.0605	NaN	0.000000	0.001683	0.001687	28.0801	30.534	0.001769	17264.5	6.767497	-1.195000	48.5107	1.156770	0.029261	0.028866	46.0605	17264.5	0.027260	0.035256	1306.44	84005.7
387	2.000000	1.167640	7.36885e+06	-57739.1	1005.82	-29736.6	0.000000	0.000000	7.170968	80.0187	NaN	0.000000	0.001660	0.001709	28.0811	40.7805	0.001837	22198.6	6.424925	177.437	81.8463	1.167217	0.039736	0.039313	80.0187	22198.6	0.037032	0.056584	1414.17	85261.5
387	2.000000	1.178018	7.36885e+06	-57739.1	1005.82	-29736.6	0.000000	0.000000	7.183086	122.292	NaN	0.000000	0.001623	0.001687	28.0813	49.583	0.001718	28862.9	4.425496	-5.121236	117.906	1.177731	0.050114	0.049827	122.292	28862.9	0.046936	0.083179	1470.23	91433.8
387	2.000000	1.188597	7.36885e+06	-57739.1	1005.82	-29736.6	0.000000	0.000000	7.195209	159.841	NaN	0.000000	0.001684	0.001693	28.0811	62.8986	0.001814	34673.3	6.328013	172.48	158.952	1.188304	0.060693	0.060400	159.841	34673.3	0.057235	0.116081	1376.97	92979.5
387	2.000000	1.199070	7.36885e+06	-57739.1	1005.82	-29736.6	0.000000	0.000000	7.207936	214.615	NaN	0.000000	0.001674	0.001680	28.0809	71.4621	0.001762	40553.4	3.778196	-5.040174	215.761	1.198620	0.071165	0.070716	214.615	40553.4	0.067196	0.152870	1403.9	94763
387	2.000000	1.209484	7.36885e+06	-57739.1	1005.82	-29736.6	0.000000	0.000000	7.221175	283.283	NaN	0.000000	0.001699	0.001730	28.0797	81.6432	0.001742	46868.8	4.289274	171.431	279.65	1.209143	0.081579	0.081239	283.283	46868.8	0.077046	0.193926	1460.78	97238.8
387	2.000000	1.220062	7.36885e+06	-57739.1	1005.82	-29736.6	0.000000	0.000000	7.234857	358.708	NaN	0.000000	0.001655	0.001718	28.0802	91.2937	0.001809	50467.5	7.580809	-11.1703	359.661	1.219555	0.092158	0.091650	358.708	50467.5	0.086827	0.239196	1499.64	94277.5
387	2.000000	1.230333	7.36885e+06	-57739.1	1005.82	-29736.6	0.000000	0.000000	7.248678	444.967	NaN	0.000000	0.001739	0.001701	28.0798	99.3275	0.001756	56558.6	5.367150	169.53	438.017	1.230075	0.102429	0.102170	444.967	56558.6	0.096528	0.288450	1542.62	96213.7
387	2.000000	1.234512	7.36885e+06	-57739.1	1005.82	-29736.6	0.000000	0.000000	7.254312	480.327	NaN	0.000000	0.001669	0.001733	28.0799	103.877	0.001753	59247.9	3.711896	170.968	480.625	1.234088	0.106608	0.106184	480.327	59247.9	0.100528	0.310006	1549.41	97221.3

File: 2025-07-22_16-23-58_1_388.txt
2025-07-22, 16:23:58, 1
Index	Phase	Displacement	Time	Pos X	Pos Y	Pos Z	Rot A	Rot B	Piezo Z	Force A	Force B	Gripper	Voltage A	Voltage B	Temperature	Amplitude force	Amplitude pos	Stiffness	Phase shift	Phase excitation	Force A raw	Displacement raw	HMax	HMax raw	Real Force	Real Stiffness	Contact Depth	Area	Hardness	Reduced Mod.
[#]	[#]	[um]	[s]	[um]	[um]	[um]	[m°]	[m°]	[um]	[uN]	[uN]	[V]	[V]	[V]	[°C]	[uN]	[um]	[N/m]	[°]	[°]	[uN]	[um]	[um]	[um]	[uN]	[N/m]	[um]	[um^2]	[MPa]	[MPa]
388	1.000000	0.003083	7.36886e+06	-57689.1	1005.82	-29736.7	0.000000	0.000000	6.002804	-0.067950	NaN	0.000000	0.001576	0.001675	28.0791	0.138516	0.000999	138.632	108.364	-166.467	-0.111932	0.001885	-1.113462	-1.114660	-0.067950	138.632	-1.113094	-7.512905E+14	9.044486E-17	NaN
388	1.000000	0.045041	7.36886e+06	-57689.1	1005.82	-29736.7	0.000000	0.000000	6.044768	0.089325	NaN	0.000000	0.001676	0.001664	28.0793	0.025477	0.001988	12.8174	25.3013	14.4564	0.069862	0.043673	-1.071504	-1.072872	0.089325	12.8174	-1.076731	-2.441211E+14	-3.659046E-16	NaN
388	1.000000	0.087023	7.36886e+06	-57689.1	1005.82	-29736.7	0.000000	0.000000	6.086748	0.023096	NaN	0.000000	0.001640	0.001680	28.0792	0.059087	0.002072	28.5204	131.582	-168.63	0.075096	0.085684	-1.029521	-1.030861	0.023096	28.5204	-1.030129	-5.770493E+13	-4.002427E-16	NaN
388	1.000000	0.129036	7.36886e+06	-57689.1	1005.82	-29736.7	0.000000	0.000000	6.128760	0.009731	NaN	0.000000	0.001643	0.001672	28.0803	0.074268	0.002167	34.268	-25.6419	14.7114	-0.011305	0.127709	-0.987508	-0.988836	0.009731	34.268	-0.987721	-1.550326E+13	-6.276674E-16	NaN
388	1.000000	0.171068	7.36886e+06	-57689.1	1005.82	-29736.7	0.000000	0.000000	6.170791	-0.007683	NaN	0.000000	0.001629	0.001657	28.0803	0.034395	0.001879	18.3007	-32.7095	-165.345	0.098140	0.169791	-0.945477	-0.946754	-0.007683	18.3007	-0.945162	-4.137892E+12	1.856653E-15	NaN
388	1.000000	0.213080	7.36886e+06	-57689.1	1005.82	-29736.7	0.000000	0.000000	6.212803	0.002505	NaN	0.000000	0.001617	0.001654	28.0802	0.027774	0.002051	13.5436	-52.4906	15.2996	-0.087596	0.211727	-0.903465	-0.904818	0.002505	13.5436	-0.903604	-1.136999E+12	-2.203412E-15	NaN
388	1.000000	0.255098	7.36886e+06	-57689.1	1005.82	-29736.7	0.000000	0.000000	6.254821	-0.004092	NaN	0.000000	0.001647	0.001663	28.0791	0.070451	0.002050	34.3646	43.9444	-165.045	-0.014758	0.253821	-0.861447	-0.862724	-0.004092	34.3646	-0.861358	-3.051401E+11	1.340932E-14	NaN
388	1.000000	0.297123	7.36886e+06	-57689.1	1005.82	-29736.7	0.000000	0.000000	6.296847	-0.004807	NaN	0.000000	0.001609	0.001654	28.0792	0.065672	0.001938	33.8824	-168.863	14.0185	-0.013853	0.295781	-0.819422	-0.820764	-0.004807	33.8824	-0.819315	-8.220992E+10	5.847121E-14	NaN
388	1.000000	0.339144	7.36886e+06	-57689.1	1005.82	-29736.7	0.000000	0.000000	6.338870	0.057028	NaN	0.000000	0.001592	0.001694	28.079	0.053445	0.002034	26.2733	-51.328	-165.171	0.064543	0.337780	-0.777401	-0.778765	0.057028	26.2733	-0.779029	-2.333672E+10	-2.443693E-12	NaN
388	1.000000	0.381154	7.36886e+06	-57689.1	1005.82	-29736.7	0.000000	0.000000	6.380876	-0.032583	NaN	0.000000	0.001690	0.001605	28.0804	0.099821	0.002150	46.4351	69.3225	15.7923	-0.094707	0.379784	-0.735391	-0.736761	-0.032583	46.4351	-0.734865	-5.849276E+9	5.570484E-12	NaN
388	1.000000	0.423201	7.36886e+06	-57689.1	1005.82	-29736.7	0.000000	0.000000	6.422928	0.065948	NaN	0.000000	0.001632	0.001653	28.0803	0.067869	0.001994	34.0443	-150.381	-162.54	0.035768	0.421879	-0.693343	-0.694666	0.065948	34.0443	-0.694796	-1.661318E+9	-3.969648E-11	NaN
388	1.000000	0.465202	7.36886e+06	-57689.1	1005.82	-29736.7	0.000000	0.000000	6.464926	-0.011655	NaN	0.000000	0.001706	0.001659	28.0803	0.074207	0.002042	36.339	166.793	15.4305	0.110606	0.463850	-0.651342	-0.652695	-0.011655	36.339	-0.651102	-4.193158E+8	2.779590E-11	NaN
388	1.000000	0.507215	7.36886e+06	-57689.1	1005.82	-29736.7	0.000000	0.000000	6.506937	-0.028592	NaN	0.000000	0.001664	0.001617	28.0795	0.047338	0.002047	23.1278	31.0008	-163.259	-0.072192	0.505870	-0.609330	-0.610675	-0.028592	23.1278	-0.608403	-1.086777E+8	2.630910E-10	NaN
388	1.000000	0.549276	7.36886e+06	-57689.1	1005.82	-29736.7	0.000000	0.000000	6.549000	0.001407	NaN	0.000000	0.001593	0.001688	28.0795	0.118630	0.002030	58.4259	-15.1054	14.8738	0.026723	0.547811	-0.567269	-0.568734	0.001407	58.4259	-0.567287	-2.945352E+7	-4.777424E-11	NaN
388	1.000000	0.591269	7.36886e+06	-57689.1	1005.82	-29736.7	0.000000	0.000000	6.590994	0.022916	NaN	0.000000	0.001629	0.001636	28.0798	0.134648	0.001917	70.234	-128.506	-168.193	0.001932	0.589974	-0.525275	-0.526571	0.022916	70.234	-0.525520	-7.76856e+06	-2.949824E-9	NaN
388	1.000000	0.633283	7.36886e+06	-57689.1	1005.82	-29736.7	0.000000	0.000000	6.633008	0.045143	NaN	0.000000	0.001641	0.001628	28.0797	0.116237	0.002008	57.8868	54.989	13.1266	-0.000932	0.631943	-0.483262	-0.484602	0.045143	57.8868	-0.483847	-2.03874e+06	-2.214275E-8	NaN
388	1.000000	0.675283	7.36886e+06	-57689.1	1005.82	-29736.7	0.000000	0.000000	6.675008	0.035152	NaN	0.000000	0.001641	0.001640	28.0806	0.041170	0.002177	18.9094	8.270779	-162.727	0.054960	0.673985	-0.441262	-0.442560	0.035152	18.9094	-0.442656	-538070	-6.533032E-8	NaN
388	1.000000	0.717305	7.36886e+06	-57689.1	1005.82	-29736.7	0.000000	0.000000	6.717027	-0.021359	NaN	0.000000	0.001570	0.001610	28.0808	0.112914	0.001867	60.4728	106.143	17.4142	-0.022060	0.715979	-0.399240	-0.400566	-0.021359	60.4728	-0.398975	-129235	1.652744E-7	NaN
388	1.000000	0.759343	7.36886e+06	-57689.1	1005.82	-29736.7	0.000000	0.000000	6.759067	0.003694	NaN	0.000000	0.001580	0.001649	28.0806	0.081362	0.001988	40.9168	-95.5256	-164.128	0.026065	0.758055	-0.357202	-0.358490	0.003694	40.9168	-0.357269	-32535.2	-1.135511E-7	NaN
388	1.000000	0.801354	7.36886e+06	-57689.1	1005.82	-29736.7	0.000000	0.000000	6.801078	0.007531	NaN	0.000000	0.001586	0.001657	28.0794	0.042885	0.001849	23.1888	5.878681	12.8769	0.022759	0.800018	-0.315190	-0.316527	0.007531	23.1888	-0.315434	-7968.02	-9.451164E-7	NaN
388	1.000000	0.843348	7.36886e+06	-57689.1	1005.82	-29736.7	0.000000	0.000000	6.843075	0.070010	NaN	0.000000	0.001558	0.001634	28.0793	0.070243	0.002011	34.9323	151.674	-162.957	0.092953	0.842063	-0.273197	-0.274482	0.070010	34.9323	-0.274700	-1962.7	-3.567043E-5	NaN
388	1.000000	0.885392	7.36886e+06	-57689.1	1005.82	-29736.7	0.000000	0.000000	6.885115	-0.004091	NaN	0.000000	0.001629	0.001681	28.0792	0.099996	0.002028	49.2992	-76.354	15.6144	0.014311	0.884088	-0.231153	-0.232457	-0.004091	49.2992	-0.231091	-416.61	9.818957E-6	NaN
388	1.000000	0.927403	7.36886e+06	-57689.1	1005.82	-29736.7	0.000000	0.000000	6.927128	0.014687	NaN	0.000000	0.001633	0.001646	28.0806	0.068129	0.002005	33.9787	171.85	-165.262	0.143446	0.926157	-0.189141	-0.190388	0.014687	33.9787	-0.189466	-88.1245	-0.000167	NaN
388	1.000000	0.969409	7.36886e+06	-57689.1	1005.82	-29736.7	0.000000	0.000000	6.969134	0.024190	NaN	0.000000	0.001634	0.001681	28.0808	0.117042	0.001987	58.8901	-172.203	15.2222	0.068887	0.968027	-0.147135	-0.148518	0.024190	58.8901	-0.147444	-16.2635	-0.001487	NaN
388	1.000000	1.011422	7.36886e+06	-57689.1	1005.82	-29736.7	0.000000	0.000000	7.011146	-0.006964	NaN	0.000000	0.001641	0.001679	28.0805	0.040278	0.002099	19.1906	32.2096	-164.045	0.032979	1.010111	-0.105122	-0.106434	-0.006964	19.1906	-0.104850	-2.333117	0.002985	NaN
388	1.000000	1.053453	7.36886e+06	-57689.1	1005.82	-29736.7	0.000000	0.000000	7.053176	-0.003100	NaN	0.000000	0.001656	0.001642	28.0791	0.013493	0.002064	6.536596	58.2612	14.4958	0.070445	1.052062	-0.063092	-0.064482	-0.003100	6.536596	-0.062737	-0.215427	0.014392	NaN
388	1.000000	1.095473	7.36886e+06	-57689.1	1005.82	-29736.7	0.000000	0.000000	7.095196	-0.024362	NaN	0.000000	0.001607	0.001648	28.0793	0.065988	0.002027	32.5481	56.9266	-165.102	-0.029242	1.094164	-0.021072	-0.022381	-0.024362	32.5481	-0.020510	-0.012942	1.882448	NaN
388	2.000000	1.131527	7.36886e+06	-57689.1	1005.82	-29736.7	0.000000	0.000000	7.131658	9.897736	NaN	0.000000	0.001601	0.001631	28.0793	10.7448	0.001758	6110.66	6.247842	8.606484	9.142242	1.131185	0.014982	0.014640	9.897736	6110.66	0.013768	0.013677	723.676	47738.1
388	2.000000	1.141949	7.36886e+06	-57689.1	1005.82	-29736.7	0.000000	0.000000	7.142676	24.391	NaN	0.000000	0.001628	0.001658	28.0795	21.1022	0.001856	11366.9	6.311328	-176.264	24.4817	1.141656	0.025404	0.025111	24.391	11366.9	0.023794	0.028859	845.178	61133.1
388	2.000000	1.152418	7.36886e+06	-57689.1	1005.82	-29736.7	0.000000	0.000000	7.154105	47.7095	NaN	0.000000	0.001604	0.001642	28.0805	30.7639	0.001673	18387.5	2.762884	2.683919	47.2751	1.152045	0.035874	0.035500	47.7095	18387.5	0.033928	0.049279	968.16	75677.5
388	2.000000	1.162885	7.36886e+06	-57689.1	1005.82	-29736.7	0.000000	0.000000	7.165728	75.8139	NaN	0.000000	0.001579	0.001643	28.0807	40.2144	0.001885	21338.2	8.598109	176.72	75.3315	1.162512	0.046340	0.045967	75.8139	21338.2	0.043675	0.073871	1026.29	71728.8
388	2.000000	1.173428	7.36886e+06	-57689.1	1005.82	-29736.7	0.000000	0.000000	7.178062	119.329	NaN	0.000000	0.001599	0.001652	28.0806	49.1877	0.001718	28623.2	6.166116	-4.327177	119.567	1.172947	0.056883	0.056402	119.329	28623.2	0.053757	0.104377	1143.25	80944.8
388	2.000000	1.183895	7.36886e+06	-57689.1	1005.82	-29736.7	0.000000	0.000000	7.190253	161.249	NaN	0.000000	0.001656	0.001634	28.0792	59.7821	0.001868	32000.5	3.458793	177.965	160.491	1.183549	0.067350	0.067004	161.249	32000.5	0.063571	0.138923	1160.71	78441
388	2.000000	1.194298	7.36886e+06	-57689.1	1005.82	-29736.7	0.000000	0.000000	7.203004	218.314	NaN	0.000000	0.001663	0.001690	28.0789	70.4081	0.001869	37674.2	5.881363	-6.312282	214.334	1.194018	0.077753	0.077473	218.314	37674.2	0.073407	0.178223	1224.95	81533.3
388	2.000000	1.204848	7.36886e+06	-57689.1	1005.82	-29736.7	0.000000	0.000000	7.216922	300.163	NaN	0.000000	0.001607	0.001634	28.0791	78.375	0.001850	42362.5	6.624362	172.156	300.72	1.204456	0.088303	0.087911	300.163	42362.5	0.082989	0.220900	1358.82	82348.6
388	2.000000	1.215312	7.36886e+06	-57689.1	1005.82	-29736.7	0.000000	0.000000	7.230499	375.82	NaN	0.000000	0.001680	0.001634	28.0801	87.4587	0.001784	49026.9	6.777771	-9.105044	374.125	1.214893	0.098767	0.098348	375.82	49026.9	0.093018	0.270129	1391.26	86183
388	2.000000	1.225796	7.36886e+06	-57689.1	1005.82	-29736.7	0.000000	0.000000	7.244495	461.182	NaN	0.000000	0.001689	0.001610	28.0803	94.3564	0.001828	51618.3	4.233932	172.817	458.803	1.225574	0.109251	0.109030	461.182	51618.3	0.102550	0.321181	1435.89	83215
388	2.000000	1.227780	7.36886e+06	-57689.1	1005.82	-29736.7	0.000000	0.000000	7.247238	479.631	NaN	0.000000	0.001678	0.001606	28.0803	97.5448	0.001827	53379	4.374680	172.472	477.645	1.227555	0.111235	0.111010	479.631	53379	0.104496	0.332112	1444.19	84625.6